Time [s],lsm6dsv16x_acc_x [g],lsm6dsv16x_acc_y [g],lsm6dsv16x_acc_z [g],lsm6dsv16x_gyro_x [dps],lsm6dsv16x_gyro_y [dps],lsm6dsv16x_gyro_z [dps]
30.639935,-0.039528,0.253760,1.010648,7.700000,-1.260000,0.000000
30.648022,0.012200,0.236680,0.988688,6.300000,-0.420000,-0.560000
30.656109,-0.043432,0.250832,1.007720,3.080000,2.240000,-0.980000
30.664196,-0.052216,0.192760,0.994056,4.620000,1.540000,-0.560000
30.672283,-0.062952,0.212280,0.902800,6.440000,0.140000,-0.420000
30.680370,0.024400,0.217160,1.008696,7.420000,-1.540000,-0.280000
30.688457,-0.007808,0.229360,1.081896,6.580000,0.840000,-0.700000
30.696544,-0.035136,0.228384,0.955504,6.300000,2.100000,-0.840000
30.704631,-0.078080,0.234240,0.935008,6.440000,1.540000,-0.980000
30.712718,-0.042456,0.201056,0.899384,7.280000,-0.840000,0.280000
30.720805,0.035136,0.268400,1.039440,7.700000,-1.960000,-0.700000
30.728893,-0.006344,0.255224,1.072136,4.900000,0.980000,-0.700000
30.736980,-0.050752,0.206424,0.909144,4.480000,3.360000,-1.120000
30.745067,-0.075152,0.223504,0.924760,6.160000,0.420000,-0.980000
30.753154,-0.009272,0.254248,0.980880,7.000000,-2.660000,0.700000
30.761241,0.038552,0.235704,1.096048,5.740000,0.000000,-1.120000
30.769328,-0.034648,0.205448,1.017968,6.160000,3.080000,-0.700000
30.777415,-0.091256,0.231800,0.903288,8.260000,1.260000,-1.260000
30.785502,-0.061976,0.266448,0.866200,7.420000,-0.700000,0.420000
30.793589,0.059048,0.238632,0.987224,5.880000,-1.680000,-0.280000
30.801676,0.002440,0.251320,1.119472,4.760000,0.140000,-0.700000
30.809763,-0.070760,0.219600,0.962336,5.180000,3.640000,-1.260000
30.817850,-0.066856,0.249368,0.881328,6.300000,0.980000,-0.700000
30.825937,-0.036600,0.219600,0.919880,6.300000,-2.100000,0.280000
30.834024,0.082960,0.274744,1.116544,5.320000,-1.680000,-1.260000
30.842111,-0.061000,0.244488,1.045784,5.460000,3.640000,-0.560000
30.850198,-0.101504,0.194224,0.896944,6.160000,2.660000,-1.260000
30.858285,-0.001952,0.232288,0.909144,7.840000,-2.380000,0.280000
30.866373,0.019032,0.290360,1.024312,8.260000,-1.820000,0.140000
30.874460,-0.009272,0.284992,1.042368,4.340000,1.400000,-1.260000
30.882547,-0.061488,0.213744,0.916464,4.620000,2.800000,-0.980000
30.890634,-0.073688,0.233264,0.917928,5.040000,1.260000,-0.700000
30.898721,0.022936,0.244976,0.995520,6.160000,-3.080000,-0.140000
30.906808,-0.007320,0.266448,1.029680,5.880000,0.420000,-0.140000
30.914895,-0.018544,0.249368,1.003816,3.920000,2.660000,-1.540000
30.922982,-0.101016,0.216184,0.915488,5.040000,1.960000,-0.840000
30.931069,-0.035136,0.237656,0.960384,6.580000,-1.120000,-0.140000
30.939156,0.061000,0.292800,0.987712,6.020000,-1.820000,-0.420000
30.947243,-0.064416,0.256688,0.997472,3.500000,2.660000,-0.980000
30.955330,-0.011712,0.225944,0.991616,3.640000,1.960000,-1.400000
30.963417,-0.077104,0.252296,0.919880,5.320000,-0.700000,0.000000
30.971504,0.004880,0.253272,0.966240,5.180000,-0.560000,-0.560000
30.979591,0.019032,0.291336,1.029680,4.620000,-0.420000,-0.420000
30.987678,-0.067344,0.247416,0.991128,3.360000,2.800000,-1.400000
30.995765,-0.047336,0.238632,0.912560,2.940000,1.400000,-0.980000
31.003853,-0.023424,0.211792,0.925248,5.740000,-1.820000,0.560000
31.011940,0.021472,0.285480,1.073600,5.880000,-0.140000,-1.400000
31.020027,-0.021960,0.285480,0.983808,3.080000,2.800000,-0.840000
31.028114,-0.124928,0.223504,0.955016,4.060000,1.960000,-0.840000
31.036201,0.027816,0.213744,0.975024,6.580000,-2.800000,0.000000
31.044288,-0.005368,0.288408,1.007232,7.420000,0.000000,-0.420000
31.052375,-0.019520,0.310368,0.944768,3.360000,2.240000,-1.400000
31.060462,-0.057584,0.230824,0.950136,2.800000,1.260000,-0.700000
31.068549,-0.030744,0.240584,0.924272,4.620000,-0.840000,-0.140000
31.076636,0.031720,0.265472,0.985760,4.620000,-0.560000,-0.980000
31.084723,-0.061976,0.280112,1.052128,2.520000,2.380000,-0.560000
31.092810,-0.045872,0.224968,0.907192,4.200000,1.260000,-0.840000
31.100897,-0.005856,0.270352,0.943304,5.880000,-1.540000,-0.420000
31.108984,-0.031232,0.293288,0.966728,3.360000,-0.140000,-0.560000
31.117071,0.001464,0.261080,1.049688,1.960000,1.400000,-0.980000
31.125158,-0.047336,0.191296,0.975024,3.360000,2.240000,-0.840000
31.133245,-0.035624,0.281088,0.926712,6.160000,-0.980000,-0.420000
31.141333,-0.002928,0.318664,0.943304,3.920000,-0.980000,-0.560000
31.149420,-0.031232,0.264984,0.998936,0.700000,1.960000,-0.840000
31.157507,-0.039528,0.224480,0.964288,1.540000,2.240000,-1.260000
31.165594,-0.038552,0.250832,0.915000,4.760000,-1.260000,-0.140000
31.173681,0.021472,0.308904,1.072136,3.500000,-0.700000,-0.980000
31.181768,-0.056608,0.255712,1.013088,1.400000,3.080000,-0.560000
31.189855,-0.049288,0.220088,0.867176,2.940000,1.820000,-1.540000
31.197942,-0.017568,0.256688,0.960872,4.760000,-1.540000,0.140000
31.206029,0.019520,0.313296,1.037488,2.940000,-0.840000,-0.700000
31.214116,-0.059048,0.259128,1.023336,0.700000,3.360000,-1.540000
31.222203,-0.076128,0.231800,0.849608,3.920000,0.560000,0.140000
31.230290,0.020496,0.293288,0.999912,3.360000,-2.100000,-0.980000
31.238377,-0.022936,0.260592,1.084824,2.520000,1.260000,0.000000
31.246464,-0.007320,0.254736,0.904752,2.940000,2.100000,-1.820000
31.254551,-0.096136,0.243024,0.862784,2.660000,1.120000,-0.420000
31.262638,0.034648,0.287920,1.015528,4.060000,-2.380000,0.280000
31.270725,0.002440,0.316712,1.071648,1.260000,0.560000,-1.540000
31.278813,-0.104432,0.217160,0.915488,1.680000,3.920000,-0.700000
31.286900,-0.020496,0.269864,0.870592,2.240000,-0.840000,-0.840000
31.294987,0.020984,0.293776,1.021384,1.400000,-1.680000,-0.280000
31.303074,0.000976,0.257176,1.051640,0.000000,2.940000,-1.400000
31.311161,-0.077104,0.236192,0.826184,1.540000,2.100000,-0.980000
31.319248,-0.026352,0.310368,1.006256,1.960000,-2.240000,-0.560000
31.327335,0.010248,0.290360,1.077504,0.420000,-0.420000,-0.280000
31.335422,-0.083448,0.249368,0.912560,-0.560000,3.920000,-1.820000
31.343509,-0.045872,0.217648,0.853512,0.700000,-0.420000,0.420000
31.351596,0.063928,0.315736,1.099464,0.700000,-2.100000,-1.260000
31.359683,-0.081984,0.225944,1.009184,0.560000,3.640000,-0.840000
31.367770,-0.040504,0.224968,0.900848,2.940000,1.120000,-1.260000
31.375857,0.009272,0.293288,0.986248,3.780000,-3.220000,0.280000
31.383944,0.016104,0.304024,1.063840,1.680000,2.380000,-1.680000
31.392031,-0.095648,0.265960,0.911584,0.000000,3.640000,-0.980000
31.400118,-0.070760,0.213744,0.862784,2.940000,-1.960000,-0.140000
31.408205,0.072712,0.328912,1.012600,1.120000,-1.820000,-0.700000
31.416293,-0.026352,0.270352,1.058472,-0.280000,2.800000,-0.840000
31.424380,-0.089792,0.199104,0.929640,0.700000,2.520000,-1.400000
31.432467,0.003904,0.300608,0.926712,4.340000,-2.800000,0.420000
31.440554,-0.001464,0.311344,1.049200,0.840000,0.280000,-1.120000
31.448641,-0.032208,0.237656,0.974048,-1.400000,3.360000,-1.400000
31.456728,-0.076128,0.263520,0.812520,1.260000,1.120000,-0.840000
31.464815,0.026352,0.276696,1.032608,-0.140000,-2.100000,-0.280000
31.472902,-0.008296,0.278648,1.114592,0.700000,0.980000,-0.700000
31.480989,-0.091744,0.235216,0.898896,1.680000,3.080000,-1.820000
31.489076,-0.046848,0.236192,0.890600,2.800000,-1.260000,0.560000
31.497163,0.064416,0.331840,1.066280,1.400000,-1.820000,-1.120000
31.505250,-0.075152,0.235216,1.008696,-0.840000,4.340000,-1.540000
31.513337,-0.064904,0.223504,0.863760,3.080000,0.700000,-0.420000
31.521424,0.027328,0.305976,0.981368,2.520000,-2.520000,-0.700000
31.529511,0.000976,0.298656,1.084824,0.700000,0.840000,-0.420000
31.537598,-0.073688,0.250344,0.910120,0.560000,2.940000,-1.260000
31.545685,-0.055632,0.252784,0.851560,1.120000,-0.140000,-0.980000
31.553772,0.029768,0.288408,1.035048,1.260000,-1.680000,0.140000
31.561860,-0.001464,0.294752,1.054568,-0.140000,1.540000,-1.960000
31.569947,-0.097112,0.202520,0.873520,0.280000,3.500000,-0.840000
31.578034,0.012200,0.286944,0.954528,2.940000,-2.800000,0.000000
31.586121,0.015128,0.275720,1.126792,0.980000,-0.840000,-0.840000
31.594208,-0.062952,0.265960,0.938424,0.700000,3.780000,-1.120000
31.602295,-0.072712,0.257664,0.860344,1.540000,1.120000,-0.840000
31.610382,-0.010248,0.253272,0.986248,2.240000,-2.520000,0.280000
31.618469,0.058560,0.308416,1.074576,0.560000,0.560000,-1.120000
31.626556,-0.095160,0.243512,0.924272,0.560000,4.060000,-1.680000
31.634643,-0.061000,0.247416,0.870104,2.100000,-0.840000,-0.280000
31.642730,0.067344,0.330864,1.046760,0.980000,-2.240000,-0.420000
31.650817,-0.054656,0.247416,1.079944,-0.560000,2.940000,-1.260000
31.658904,-0.081008,0.244976,0.879376,1.960000,2.520000,-1.260000
31.666991,-0.033672,0.253760,0.900848,1.960000,-1.960000,-0.280000
31.675078,0.041968,0.282064,1.056520,1.400000,-0.700000,0.000000
31.683165,-0.019520,0.309880,0.978928,0.700000,2.380000,-2.100000
31.691252,-0.126880,0.229848,0.882304,-0.560000,3.220000,-0.980000
31.699339,0.034648,0.266448,0.974048,1.820000,-3.360000,0.560000
31.707426,0.004880,0.286456,1.100440,0.840000,0.700000,-1.680000
31.715514,-0.080520,0.244000,0.913536,0.700000,3.920000,-0.560000
31.723601,-0.019032,0.269864,0.856440,1.400000,-1.260000,-1.260000
31.731688,0.028792,0.269864,1.044320,0.840000,-2.100000,0.420000
31.739775,-0.016104,0.320616,1.064328,0.980000,2.520000,-1.820000
31.747862,-0.141520,0.224480,0.882304,-0.700000,3.080000,-1.120000
31.755949,0.036112,0.234240,0.950624,2.800000,-3.220000,0.700000
31.764036,0.038552,0.316224,1.072624,0.840000,-0.140000,-1.820000
31.772123,-0.097112,0.234240,0.951112,0.700000,4.480000,-0.840000
31.780210,-0.015128,0.295240,0.863272,0.840000,-0.560000,-0.980000
31.788297,-0.001952,0.246440,1.016992,1.260000,-1.680000,-0.420000
31.796384,-0.005368,0.300608,1.064816,1.540000,0.980000,-0.560000
31.804471,-0.090280,0.282064,0.887184,-1.260000,4.340000,-2.240000
31.812558,-0.042456,0.195688,0.915488,0.420000,-0.700000,0.420000
31.820645,0.048800,0.303536,1.036512,2.380000,-2.660000,-0.560000
31.828732,-0.048800,0.260104,1.050176,0.980000,3.080000,-1.680000
31.836819,-0.072712,0.265472,0.856928,0.560000,2.240000,-0.280000
31.844906,-0.004392,0.265960,0.929152,1.120000,-1.400000,-0.980000
31.852993,0.015616,0.279624,1.062376,1.260000,-0.840000,-0.280000
31.861081,-0.077104,0.280600,1.021872,1.400000,3.220000,-1.120000
31.869168,-0.047336,0.228384,0.891576,0.980000,1.400000,-1.400000
31.877255,0.008784,0.253272,0.963312,2.800000,-2.100000,0.420000
31.885342,0.008296,0.311344,0.995520,2.100000,0.000000,-1.260000
31.893429,-0.019032,0.304024,0.992592,-1.120000,2.520000,-1.680000
31.901516,-0.104920,0.236192,0.921344,-1.120000,1.680000,-0.280000
31.909603,0.015128,0.231312,1.009672,2.240000,-1.960000,-0.420000
31.917690,0.012200,0.324520,0.998936,2.380000,0.140000,-0.840000
31.925777,-0.078080,0.236192,0.897432,-0.980000,3.920000,-1.680000
31.933864,-0.040016,0.260592,0.948672,0.560000,-0.700000,-0.420000
31.941951,0.026840,0.284504,0.976000,1.820000,-2.240000,-0.280000
31.950038,-0.032696,0.318176,1.001864,-0.840000,1.400000,-1.260000
31.958125,-0.052704,0.254736,0.957944,-2.940000,3.360000,-1.120000
31.966212,-0.044896,0.192272,0.905728,-0.980000,-0.420000,-0.560000
31.974299,0.045384,0.324520,1.028216,0.840000,-2.240000,-0.700000
31.982386,-0.065392,0.280112,1.045296,-0.840000,2.520000,-0.700000
31.990473,-0.050752,0.251320,0.874496,-1.540000,1.540000,-1.540000
31.998560,-0.004392,0.242536,0.916464,-1.120000,-0.700000,0.000000
32.006647,0.004392,0.289384,1.057008,0.700000,-0.980000,-0.840000
32.014735,-0.050752,0.309880,1.026264,-2.240000,2.800000,-1.680000
32.022822,-0.062464,0.203008,0.904752,-1.260000,1.680000,-0.280000
32.030909,-0.002440,0.272792,0.938424,0.980000,-1.960000,-0.420000
32.038996,0.028304,0.281576,1.002840,-1.260000,0.560000,-1.400000
32.047083,-0.061000,0.276696,1.032608,-1.960000,3.360000,-1.120000
32.055170,-0.048800,0.218624,0.921832,-0.140000,0.420000,-0.700000
32.063257,0.003416,0.300120,0.950136,1.400000,-2.380000,-0.280000
32.071344,-0.024888,0.281088,0.996984,-1.400000,1.540000,-0.980000
32.079431,-0.032208,0.257176,0.990640,-2.800000,2.240000,-1.540000
32.087518,-0.067344,0.216672,0.910120,-1.820000,1.120000,-0.700000
32.095605,0.015128,0.270352,0.993568,1.120000,-1.820000,-0.420000
32.103692,-0.027816,0.282552,1.072624,0.840000,0.140000,-0.980000
32.111779,-0.041968,0.266936,0.922320,-1.400000,3.080000,-1.260000
32.119866,-0.040992,0.255712,0.893528,-1.540000,0.560000,-1.120000
32.127953,-0.009272,0.257664,0.954040,-0.560000,-1.820000,-0.140000
32.136040,0.000976,0.307440,1.042856,-1.120000,0.420000,-1.260000
32.144127,-0.028792,0.234240,1.005768,-2.940000,2.800000,-1.400000
32.152214,-0.097112,0.185440,0.927688,1.120000,1.120000,-0.280000
32.160302,0.063928,0.322080,1.008696,3.640000,-3.780000,-0.700000
32.168389,-0.048800,0.281576,0.977952,0.280000,2.240000,-0.560000
32.176476,-0.014640,0.265472,0.999912,-1.680000,2.240000,-1.960000
32.184563,-0.076616,0.222528,0.926224,-0.700000,1.540000,-0.560000
32.192650,0.000488,0.243024,0.961360,2.100000,-1.540000,0.000000
32.200737,0.001464,0.323056,1.016992,1.120000,-0.140000,-1.400000
32.208824,-0.058072,0.262056,0.993080,-2.100000,3.080000,-0.840000
32.216911,-0.050264,0.206424,0.957944,0.000000,1.820000,-1.260000
32.224998,-0.020496,0.244488,0.931104,2.380000,-1.540000,0.000000
32.233085,0.019520,0.306952,0.987712,1.540000,-0.420000,-1.120000
32.241172,-0.041480,0.283528,1.028216,-0.980000,2.380000,-0.980000
32.249259,-0.074664,0.212768,0.949160,-0.700000,2.100000,-1.120000
32.257346,-0.008296,0.208376,0.951112,2.520000,-1.120000,-0.140000
32.265433,0.009272,0.289384,1.029192,4.480000,-0.980000,-0.840000
32.273520,-0.027816,0.321592,0.996496,1.120000,1.960000,-1.120000
32.281607,-0.056120,0.227896,0.928176,-0.560000,1.680000,-0.840000
32.289694,-0.038552,0.240584,0.937448,1.960000,0.280000,-0.700000
32.297781,0.010248,0.287432,0.976000,3.500000,-1.820000,-0.420000
32.305868,-0.015616,0.286944,1.024312,0.280000,0.840000,-0.840000
32.313956,-0.036600,0.243024,0.999424,-0.140000,2.660000,-1.120000
32.322043,-0.064904,0.216672,0.930616,2.380000,1.260000,-0.840000
32.330130,-0.005368,0.247416,0.953552,4.900000,-1.540000,-0.280000
32.338217,0.010736,0.328912,0.999424,3.780000,-1.120000,-0.420000
32.346304,-0.027816,0.275232,0.992104,0.420000,1.960000,-1.120000
32.354391,-0.053192,0.239120,0.975024,-0.280000,3.640000,-1.260000
32.362478,-0.051240,0.223504,0.909144,3.360000,-1.120000,-0.700000
32.370565,-0.012200,0.289872,0.977952,3.500000,-1.260000,0.000000
32.378652,0.038552,0.276696,1.076528,2.240000,-0.140000,-0.980000
32.386739,-0.064904,0.230336,0.983808,1.260000,3.640000,-1.120000
32.394826,-0.067832,0.266448,0.890600,4.200000,0.980000,-0.700000
32.402913,-0.036600,0.300608,0.887184,3.920000,-1.960000,-0.140000
32.411000,0.032208,0.271816,1.016504,0.140000,-0.700000,-0.420000
32.419087,-0.005856,0.266936,1.056520,0.000000,2.100000,-1.260000
32.427174,-0.089792,0.224968,0.917928,0.840000,2.660000,-1.400000
32.435261,-0.051240,0.253272,0.927688,3.500000,-0.840000,0.280000
32.443348,0.035136,0.306464,1.005280,2.660000,-1.960000,-0.560000
32.451435,0.011712,0.290360,1.003328,-1.680000,1.960000,-1.540000
32.459522,-0.112240,0.232288,0.922320,-0.700000,3.780000,-1.400000
32.467610,-0.055632,0.241072,0.928176,2.100000,-1.540000,-0.280000
32.475697,0.061488,0.319640,1.068232,1.820000,-2.520000,-0.280000
32.483784,-0.028304,0.249856,1.007232,-1.120000,3.780000,-1.540000
32.491871,-0.084424,0.209352,0.844240,1.540000,2.520000,-1.120000
32.499958,0.026840,0.309392,0.955016,2.100000,-3.360000,-0.420000
32.508045,-0.002928,0.257664,1.096048,1.260000,-0.140000,0.000000
32.516132,-0.043432,0.279136,1.019920,1.680000,2.660000,-1.680000
32.524219,-0.089304,0.244488,0.787632,0.980000,1.820000,-0.980000
32.532306,0.019520,0.253272,0.947208,0.560000,-1.820000,0.140000
32.540393,0.046848,0.288408,1.138016,0.560000,-1.400000,-0.980000
32.548480,-0.119072,0.233264,1.011136,2.660000,4.760000,-1.260000
32.556567,-0.040992,0.274256,0.864248,2.520000,0.700000,-0.980000
32.564654,-0.009760,0.268888,0.920368,2.240000,-2.100000,0.140000
32.572741,0.036112,0.270352,1.093120,0.280000,0.980000,-1.260000
32.580828,-0.065392,0.257176,0.923296,0.700000,2.940000,-1.260000
32.588915,-0.082960,0.246440,0.923784,2.380000,0.840000,-0.980000
32.597002,0.048312,0.267424,1.047736,3.080000,-2.520000,0.420000
32.605089,-0.012688,0.306464,1.034560,3.640000,0.700000,-1.400000
32.613176,-0.095648,0.255712,0.879376,-0.140000,3.780000,-1.260000
32.621263,-0.013664,0.228872,0.898408,1.960000,-0.560000,-0.280000
32.629351,0.027816,0.269376,1.042856,3.220000,-3.080000,-0.140000
32.637438,-0.018056,0.324032,1.064816,2.240000,1.960000,-1.120000
32.645525,-0.105896,0.244976,0.905728,0.140000,3.360000,-1.260000
32.653612,-0.049776,0.210328,0.875960,2.100000,-0.840000,0.140000
32.661699,0.105408,0.318176,1.040416,3.220000,-2.940000,-0.700000
32.669786,-0.069784,0.288896,1.028704,0.560000,3.640000,-1.400000
32.677873,-0.097600,0.239120,0.918904,1.400000,2.520000,-1.120000
32.685960,0.015128,0.265472,0.933056,2.940000,-2.660000,0.000000
32.694047,-0.006832,0.275232,1.028216,2.100000,0.280000,-0.560000
32.702134,-0.017080,0.273280,0.966728,1.120000,2.660000,-1.820000
32.710221,-0.068808,0.250344,0.879376,0.980000,1.260000,-0.700000
32.718308,0.010736,0.250832,1.030656,2.660000,-1.960000,0.280000
32.726395,0.008296,0.330864,1.071648,2.800000,0.000000,-1.680000
32.734482,-0.121024,0.226920,0.904264,0.700000,4.480000,-0.840000
32.742569,0.004880,0.246440,0.874008,2.100000,-1.400000,-0.560000
32.750656,0.021960,0.294264,1.045296,2.380000,-1.820000,-0.560000
32.758743,-0.058560,0.258152,1.053592,1.400000,4.060000,-1.120000
32.766830,-0.036112,0.257176,0.856440,1.960000,0.700000,-1.400000
32.774917,-0.038064,0.248392,0.977464,3.360000,-1.540000,0.280000
32.783005,0.039528,0.336720,1.052128,2.660000,-0.700000,-0.840000
32.791092,-0.116144,0.273768,0.958920,0.140000,4.060000,-1.540000
32.799179,-0.052216,0.200568,0.873032,0.840000,0.560000,-0.280000
32.807266,0.089304,0.307928,1.012112,3.080000,-3.080000,-0.560000
32.815353,-0.074176,0.269864,1.050176,1.400000,2.800000,-1.260000
32.823440,-0.046848,0.264496,0.869616,0.840000,2.660000,-1.400000
32.831527,-0.026840,0.238632,0.956480,1.540000,-1.260000,0.000000
32.839614,0.025864,0.280600,1.030656,3.080000,-1.260000,-0.420000
32.847701,-0.026352,0.326472,1.027728,1.680000,2.100000,-1.540000
32.855788,-0.117120,0.221064,0.911584,0.700000,2.520000,-0.420000
32.863875,0.016592,0.255224,0.930616,3.920000,-2.240000,-0.280000
32.871962,0.036112,0.304024,0.996008,2.100000,-0.140000,-0.980000
32.880049,-0.067832,0.266936,1.011136,-0.280000,2.800000,-1.260000
32.888136,-0.047336,0.244488,0.899872,1.400000,0.840000,-0.420000
32.896223,-0.010736,0.296704,0.961360,2.520000,-1.540000,-0.560000
32.904310,-0.016104,0.288408,1.041392,0.560000,0.980000,-0.840000
32.912397,-0.051240,0.249368,0.944280,0.560000,2.380000,-1.400000
32.920484,-0.018056,0.249856,0.903776,0.560000,0.280000,-0.700000
32.928571,0.009272,0.273768,0.996984,2.520000,-1.260000,-0.280000
32.936658,-0.023912,0.339648,1.052128,1.820000,0.000000,-0.840000
32.944746,-0.066368,0.241560,0.910608,-2.520000,3.640000,-1.400000
32.952833,-0.031720,0.217648,0.934520,1.120000,0.420000,-0.280000
32.960920,0.024400,0.293776,0.974536,3.220000,-2.660000,-0.420000
32.969007,-0.031720,0.320616,1.059936,-0.140000,2.520000,-1.400000
32.977094,-0.071736,0.238144,0.938912,0.140000,2.100000,-0.840000
32.985181,-0.030744,0.266448,0.859368,1.120000,-0.980000,-0.840000
32.993268,0.024888,0.299632,1.010648,-0.280000,-0.140000,-0.700000
33.001355,-0.045872,0.249368,1.061888,-0.420000,2.380000,-0.840000
33.009442,-0.027816,0.234728,0.937448,0.420000,1.260000,-1.680000
33.017529,-0.026840,0.273768,0.936472,4.340000,-1.820000,0.840000
33.025616,-0.024400,0.346968,1.008208,0.560000,0.420000,-1.540000
33.033703,-0.047336,0.247416,0.941352,-2.940000,3.220000,-1.260000
33.041790,-0.023424,0.204960,0.908168,0.000000,-0.560000,-0.420000
33.049877,0.004880,0.280112,1.031632,2.100000,-1.960000,-0.840000
33.057964,-0.001464,0.335744,1.032608,0.140000,2.100000,-0.700000
33.066051,-0.074664,0.221064,0.939888,-0.840000,2.380000,-1.260000
33.074138,-0.015128,0.260104,0.919392,3.080000,-1.260000,0.000000
33.082225,0.007808,0.338184,0.978440,0.980000,-0.560000,-0.840000
33.090312,-0.082960,0.260104,1.008696,-2.520000,2.520000,-1.260000
33.098399,-0.003904,0.200080,0.935008,0.280000,1.260000,-0.840000
33.106487,0.003904,0.287920,0.951600,2.240000,-1.260000,-0.420000
33.114574,-0.035624,0.299632,1.046272,0.980000,0.420000,-0.980000
33.122661,-0.041480,0.260592,0.996008,0.000000,2.800000,-0.980000
33.130748,-0.037576,0.226432,0.833016,1.120000,0.280000,-0.700000
33.138835,-0.009272,0.326472,0.977464,1.120000,-1.120000,-0.560000
33.146922,-0.022936,0.288408,1.039440,-0.700000,0.000000,-0.840000
33.155009,-0.051728,0.253272,0.982832,-2.240000,3.080000,-1.680000
33.163096,-0.010248,0.210328,0.889624,0.140000,-0.280000,-0.280000
33.171183,0.002440,0.275232,1.030168,2.240000,-1.400000,-0.840000
33.179270,-0.020008,0.333304,1.001376,0.980000,0.980000,-0.560000
33.187357,-0.065392,0.282552,0.925248,-2.660000,3.080000,-1.540000
33.195444,-0.044408,0.231312,0.891576,-2.520000,0.840000,-0.700000
33.203531,0.021472,0.248392,1.010648,0.140000,-1.960000,-0.560000
33.211618,-0.040504,0.299144,1.093120,0.420000,1.400000,-0.980000
33.219705,-0.048800,0.264008,0.955504,-0.420000,1.820000,-1.260000
33.227792,-0.054656,0.217160,0.876936,0.700000,0.560000,-0.420000
33.235879,0.043432,0.278160,0.969168,2.100000,-1.680000,-0.280000
33.243966,-0.027328,0.340624,1.023336,-0.700000,0.980000,-1.400000
33.252053,-0.068808,0.249368,0.950136,-3.500000,3.500000,-1.260000
33.260140,-0.047336,0.221064,0.911096,-1.400000,-0.140000,-0.280000
33.268228,0.006832,0.262544,0.995032,0.980000,-1.540000,-0.560000
33.276315,0.018544,0.324032,1.052616,-0.560000,0.700000,-0.980000
33.284402,-0.076616,0.223016,0.956968,-2.100000,3.640000,-1.400000
33.292489,-0.040016,0.251808,0.877424,0.000000,-0.280000,-0.560000
33.300576,0.010736,0.279624,0.997472,0.420000,-2.100000,-0.560000
33.308663,-0.017568,0.269376,1.124352,-0.280000,1.820000,-0.420000
33.316750,-0.030256,0.249856,0.920368,0.700000,2.100000,-1.680000
33.324837,-0.081496,0.264496,0.855464,1.120000,0.980000,-0.560000
33.332924,0.040016,0.273280,0.984784,0.560000,-2.520000,-0.280000
33.341011,-0.026352,0.299144,1.093608,0.280000,0.420000,-0.980000
33.349098,-0.028304,0.226920,0.970632,-1.400000,3.360000,-1.400000
33.357185,-0.058072,0.237656,0.910120,1.120000,0.840000,-0.980000
33.365272,-0.052216,0.274744,0.952088,3.080000,-1.540000,0.140000
33.373359,0.051240,0.296704,0.995032,0.980000,-0.420000,-0.700000
33.381446,-0.027328,0.263520,1.063840,-0.560000,2.100000,-1.960000
33.389533,-0.072712,0.229848,0.941840,1.400000,2.520000,-1.120000
33.397620,-0.047824,0.259616,0.886208,3.220000,-0.420000,-0.280000
33.405707,0.006344,0.275720,0.992592,2.380000,-1.540000,-0.140000
33.413794,0.012200,0.314272,1.043344,0.420000,1.260000,-0.980000
33.421881,-0.088816,0.249368,0.932080,-0.560000,3.640000,-1.540000
33.429969,-0.056608,0.210816,0.859856,0.420000,0.420000,-0.700000
33.438056,0.022448,0.297680,0.996984,1.120000,-2.660000,-0.280000
33.446143,-0.011712,0.296216,1.076040,-0.140000,1.260000,-0.700000
33.454230,-0.046360,0.246440,0.999912,-0.980000,2.800000,-1.680000
33.462317,-0.078080,0.221064,0.829600,1.680000,1.120000,-0.700000
33.470404,0.022448,0.317688,0.973560,2.240000,-2.800000,0.140000
33.478491,0.018056,0.294264,1.086288,-0.700000,-0.280000,-0.980000
33.486578,-0.060024,0.233264,1.022360,-0.980000,4.060000,-1.400000
33.494665,-0.065392,0.204472,0.852048,1.820000,1.400000,-0.980000
33.502752,0.004880,0.308904,0.936960,2.660000,-3.080000,0.000000
33.510839,0.017080,0.312808,1.040904,-0.420000,0.140000,-0.560000
33.518926,-0.033184,0.275232,1.013088,-2.660000,3.220000,-2.240000
33.527013,-0.100528,0.213744,0.853512,-1.680000,3.080000,-0.840000
33.535100,0.011712,0.246440,0.987712,1.260000,-3.080000,-0.560000
33.543187,-0.003904,0.269376,1.119472,1.540000,-0.140000,0.000000
33.551274,-0.030256,0.273768,0.974048,1.260000,2.940000,-1.400000
33.559361,-0.073688,0.254736,0.850096,0.840000,1.680000,-0.980000
33.567448,-0.021472,0.264984,0.908656,1.120000,-1.120000,0.140000
33.575535,0.047336,0.316712,1.062864,0.140000,-1.820000,-0.840000
33.583622,-0.035624,0.260104,1.033096,-0.980000,1.680000,-1.260000
33.591710,-0.047824,0.239608,0.894504,-1.400000,3.080000,-1.820000
33.599797,-0.078080,0.253272,0.898896,-0.420000,-0.280000,-0.420000
33.607884,0.029768,0.277184,1.006256,0.140000,-2.380000,-0.140000
33.615971,-0.001952,0.263520,1.085800,-0.980000,2.100000,-1.260000
33.624058,-0.076128,0.235704,0.964288,0.560000,3.500000,-1.400000
33.632145,-0.061000,0.268888,0.879376,1.680000,-0.280000,-0.700000
33.640232,0.033672,0.244488,0.947696,0.560000,-2.520000,-0.140000
33.648319,0.015128,0.300608,1.105808,0.420000,0.700000,-0.700000
33.656406,-0.071248,0.283528,0.967704,-0.280000,3.080000,-1.820000
33.664493,-0.080520,0.234728,0.842776,-1.120000,1.680000,-0.560000
33.672580,0.013176,0.260592,0.959896,0.280000,-2.240000,-0.700000
33.680667,0.020984,0.287920,1.086776,0.280000,-1.260000,-0.280000
33.688754,-0.042456,0.244488,1.014552,-1.260000,3.360000,-1.260000
33.696841,-0.070272,0.228384,0.904752,0.560000,2.660000,-0.980000
33.704928,-0.049776,0.239608,0.929640,2.660000,-1.260000,-0.140000
33.713015,0.032696,0.317200,1.014552,1.960000,-2.380000,0.140000
33.721102,0.007320,0.277672,1.021384,-0.140000,1.400000,-1.540000
33.729189,-0.062464,0.240584,0.952576,-1.400000,4.200000,-1.260000
33.737276,-0.081496,0.246440,0.895480,0.700000,0.280000,-0.980000
33.745363,-0.001952,0.270840,0.955504,0.700000,-2.520000,0.000000
33.753450,0.044896,0.285968,1.037976,0.280000,-0.140000,-0.560000
33.761538,-0.058560,0.285480,0.989664,-2.100000,3.360000,-1.820000
33.769625,-0.089304,0.233264,0.927688,-1.540000,2.380000,-1.260000
33.777712,-0.002928,0.235704,0.892064,0.140000,-1.820000,-0.140000
33.785799,0.037576,0.308904,1.042856,-0.420000,-1.540000,-0.420000
33.793886,-0.031232,0.284016,1.072136,-2.240000,2.520000,-1.260000
33.801973,-0.115168,0.215696,0.874496,-1.960000,3.780000,-1.540000
33.810060,-0.012688,0.199104,0.934032,0.280000,-1.540000,-0.280000
33.818147,0.066368,0.287432,1.062864,2.940000,-2.800000,-0.140000
33.826234,-0.038064,0.318664,1.026752,0.280000,2.800000,-1.540000
33.834321,-0.094184,0.241560,0.915488,-2.380000,3.920000,-1.260000
33.842408,-0.055144,0.204960,0.898408,-0.560000,-0.140000,-0.840000
33.850495,0.016592,0.288408,0.989664,1.540000,-2.520000,0.280000
33.858582,0.046848,0.286456,1.006256,-0.700000,-0.140000,-1.260000
33.866669,-0.073200,0.277672,1.032608,-1.960000,3.640000,-1.540000
33.874756,-0.094184,0.233752,0.883280,-0.840000,0.980000,-0.700000
33.882843,-0.001952,0.226432,0.909632,-1.120000,-0.980000,-0.840000
33.890930,0.050752,0.279624,1.049688,0.420000,-1.260000,0.000000
33.899017,-0.034160,0.287920,1.102880,-0.700000,2.100000,-1.960000
33.907104,-0.096624,0.239120,0.894992,-1.120000,3.500000,-1.120000
33.915191,-0.025376,0.227408,0.906704,-0.140000,0.000000,-0.560000
33.923279,-0.012688,0.259128,0.990152,0.980000,-2.240000,-0.280000
33.931366,0.046360,0.289384,1.036024,0.980000,-0.560000,-0.420000
33.939453,-0.054168,0.285480,0.968680,-1.680000,3.360000,-1.540000
33.947540,-0.101992,0.242536,0.935496,-2.240000,1.960000,-1.120000
33.955627,-0.008296,0.234728,0.882304,-0.980000,-0.980000,-0.280000
33.963714,0.033184,0.287920,1.008208,-0.840000,-1.400000,-0.980000
33.971801,-0.029280,0.295728,1.044320,-3.080000,1.680000,-0.980000
33.979888,-0.090280,0.213256,0.921832,-3.220000,3.640000,-1.960000
33.987975,-0.009272,0.234728,0.909632,-2.240000,-0.840000,-0.420000
33.996062,-0.001464,0.256200,1.043832,-0.700000,-1.820000,0.000000
34.004149,-0.005856,0.280112,1.067744,-1.120000,1.120000,-1.400000
34.012236,-0.072712,0.239608,0.910120,-1.820000,3.500000,-1.120000
34.020323,-0.049288,0.236192,0.908656,-2.240000,0.280000,-1.400000
34.028410,0.006832,0.261568,1.008696,-0.140000,-1.820000,0.280000
34.036497,0.008296,0.257664,1.029192,-0.560000,-0.560000,-1.120000
34.044584,-0.040992,0.262056,0.987224,-2.240000,3.360000,-1.680000
34.052671,-0.047824,0.233752,0.943792,-1.120000,1.120000,-1.120000
34.060758,-0.061000,0.244000,0.887184,-0.700000,-0.280000,-0.280000
34.068845,0.065880,0.273768,1.019920,-1.260000,-1.820000,-0.700000
34.076932,-0.054656,0.310856,1.061888,-2.100000,2.100000,-0.980000
34.085019,-0.068808,0.203496,0.916952,-3.780000,3.360000,-1.960000
34.093107,-0.018544,0.221064,0.912560,-1.680000,-0.280000,-0.280000
34.101194,0.004392,0.237168,1.048224,1.120000,-1.540000,-0.420000
34.109281,-0.004880,0.284016,1.049200,0.420000,0.420000,-1.400000
34.117368,-0.071736,0.256688,0.954040,-0.980000,3.080000,-0.840000
34.125455,-0.058560,0.222528,0.920368,-1.540000,1.960000,-1.400000
34.133542,-0.011712,0.205936,0.973072,0.700000,-1.400000,-0.420000
34.141629,0.020008,0.266448,1.047248,2.800000,-1.400000,-0.280000
34.149716,-0.027816,0.276696,0.993568,1.400000,1.680000,-1.540000
34.157803,-0.058072,0.240584,1.006744,0.140000,2.800000,-0.700000
34.165890,-0.068320,0.214720,0.895480,1.960000,0.700000,-1.120000
34.173977,0.004392,0.261568,0.934032,2.520000,-1.540000,0.000000
34.182064,0.009272,0.297680,0.983320,1.260000,-0.560000,-0.700000
34.190151,0.001952,0.265472,1.025776,-0.700000,0.980000,-1.260000
34.198238,-0.062952,0.223504,1.008696,-0.560000,2.660000,-0.980000
34.206325,-0.070272,0.219112,0.943792,1.260000,1.120000,-0.980000
34.214412,0.001464,0.248880,0.927688,2.100000,-1.400000,-0.280000
34.222499,0.003904,0.276208,1.017480,1.680000,-0.420000,-0.560000
34.230586,-0.022936,0.261568,1.009672,0.840000,1.820000,-0.980000
34.238673,-0.063440,0.254736,0.974536,-0.140000,2.240000,-1.260000
34.246760,-0.041968,0.210328,0.942816,0.420000,0.700000,-0.840000
34.254847,-0.012200,0.255712,0.910120,1.960000,-0.700000,-0.280000
34.262935,0.006832,0.278648,0.996008,0.980000,-0.980000,-0.560000
34.271022,-0.033672,0.277672,1.031632,0.280000,1.400000,-1.120000
34.279109,-0.024400,0.221552,0.962336,-1.680000,1.960000,-1.120000
34.287196,-0.066856,0.245952,0.987712,-0.140000,1.400000,-0.840000
34.295283,-0.019032,0.244488,0.900848,1.400000,-1.120000,-0.280000
34.303370,0.020496,0.265960,0.968192,0.560000,-0.280000,-0.840000
34.311457,-0.018544,0.305976,1.051152,-1.960000,0.980000,-1.120000
34.319544,-0.069784,0.220576,0.962336,-2.800000,2.940000,-1.400000
34.327631,-0.046848,0.217160,0.874496,-1.680000,1.120000,-0.700000
34.335718,0.009760,0.244488,0.984784,-0.140000,-1.820000,-0.840000
34.343805,-0.015128,0.295240,1.048224,-0.840000,-0.560000,-0.140000
34.351892,-0.036600,0.229360,1.020896,-2.380000,2.940000,-1.960000
34.359979,-0.055144,0.215696,0.940376,-1.680000,2.100000,-0.560000
34.368066,-0.056120,0.237656,0.953064,1.400000,-0.840000,-0.560000
34.376153,0.026840,0.260592,0.975024,0.700000,-0.980000,-0.560000
34.384240,-0.007320,0.245952,1.065304,-0.280000,1.540000,-0.980000
34.392327,-0.054656,0.251320,0.999424,-0.280000,2.240000,-1.400000
34.400414,-0.058560,0.208376,0.916464,1.820000,0.980000,-0.420000
34.408501,-0.008296,0.250832,0.928664,3.360000,-1.260000,-0.420000
34.416588,0.016592,0.274256,1.031144,1.120000,-0.840000,-0.700000
34.424675,-0.031720,0.250832,1.059448,1.540000,1.400000,-0.420000
34.432763,-0.044896,0.226432,0.929152,1.120000,2.380000,-1.820000
34.440850,-0.050752,0.262056,0.927200,1.960000,0.560000,-0.420000
34.448937,-0.029280,0.252784,0.881328,2.240000,-1.540000,-0.700000
34.457024,0.031232,0.286456,1.038464,-0.280000,-0.980000,-0.560000
34.465111,-0.032696,0.254248,1.047248,-1.540000,2.240000,-0.980000
34.473198,-0.055632,0.221552,0.931592,-2.100000,3.500000,-1.680000
34.481285,-0.062952,0.217160,0.883768,0.000000,-0.140000,-0.700000
34.489372,-0.007808,0.270840,0.982344,0.700000,-1.680000,-0.280000
34.497459,0.045384,0.261568,1.065304,-1.260000,-0.140000,-1.120000
34.505546,-0.057584,0.264496,1.036512,-1.820000,2.800000,-1.260000
34.513633,-0.099552,0.211792,0.877912,-1.120000,2.800000,-0.980000
34.521720,0.030256,0.224968,0.885232,-0.140000,-1.960000,-0.700000
34.529807,-0.027816,0.295728,1.098000,0.700000,-1.400000,-0.140000
34.537894,0.017080,0.246928,1.059448,-1.260000,1.260000,-1.260000
34.545981,-0.064416,0.233264,0.906704,-1.540000,3.360000,-1.120000
34.554068,-0.070272,0.231312,0.919392,-0.140000,0.700000,-1.120000
34.562155,-0.013176,0.233752,0.965264,1.400000,-2.100000,0.280000
34.570242,0.033184,0.258640,1.006256,0.420000,-0.700000,-0.700000
34.578329,-0.001952,0.273280,1.092144,-1.680000,2.520000,-1.960000
34.586416,-0.104432,0.217648,0.934520,-0.140000,2.940000,-0.560000
34.594503,-0.048312,0.212768,0.869616,1.540000,0.420000,-1.120000
34.602590,0.013664,0.266936,0.996008,1.540000,-2.380000,0.000000
34.610677,0.002928,0.249368,1.084824,1.120000,0.000000,-0.700000
34.618765,-0.011712,0.253272,0.977952,0.000000,1.960000,-1.260000
34.626852,-0.096136,0.230336,0.922808,-0.280000,2.800000,-1.400000
34.634939,-0.030256,0.245464,0.863760,-0.140000,-0.560000,-0.560000
34.643026,0.001464,0.269864,1.004304,0.000000,-1.960000,-0.420000
34.651113,0.013664,0.267424,1.077016,-0.840000,-0.140000,-0.560000
34.659200,-0.037088,0.220088,1.014552,-1.960000,3.500000,-1.820000
34.667287,-0.067344,0.215696,0.917928,-0.280000,2.380000,-1.260000
34.675374,-0.074664,0.220088,0.900848,1.400000,-0.700000,-0.140000
34.683461,0.051728,0.273768,1.013576,1.120000,-2.800000,-0.280000
34.691548,0.007808,0.274256,1.077992,0.000000,1.260000,-0.980000
34.699635,-0.062952,0.250832,0.971608,-1.260000,3.080000,-1.540000
34.707722,-0.073200,0.219600,0.885232,-1.680000,2.240000,-1.120000
34.715809,-0.035136,0.210328,0.938912,0.420000,-1.260000,-0.560000
34.723896,0.037576,0.264984,1.039440,0.840000,-1.820000,0.140000
34.731983,0.009272,0.277184,1.031632,-0.980000,0.980000,-1.540000
34.740070,-0.090768,0.234240,0.990152,-2.520000,4.760000,-1.400000
34.748157,-0.069784,0.211792,0.877912,-0.700000,0.560000,-0.980000
34.756244,-0.025376,0.197640,0.948184,0.840000,-1.540000,-0.140000
34.764331,0.081496,0.281576,1.083848,1.260000,-1.400000,-0.560000
34.772418,-0.079056,0.242048,1.042856,0.980000,2.100000,-1.260000
34.780505,-0.035624,0.243024,0.901336,0.000000,2.800000,-1.260000
34.788592,-0.063440,0.251320,0.931104,0.420000,-0.140000,-0.840000
34.796679,-0.037088,0.225944,0.901336,0.000000,-0.700000,-0.420000
34.804767,0.069296,0.261568,1.058960,-0.280000,-1.400000,-0.280000
34.812854,-0.052704,0.261080,1.051152,-0.280000,1.540000,-0.980000
34.820941,-0.045384,0.223016,0.921344,-1.540000,3.080000,-1.540000
34.829028,-0.070760,0.259128,0.951600,-1.260000,0.840000,-0.980000
34.837115,-0.029768,0.197640,0.920368,-0.840000,-0.560000,0.140000
34.845202,0.084424,0.246440,1.046760,0.420000,-1.680000,-1.400000
34.853289,-0.087352,0.283528,1.068720,0.000000,2.660000,-0.560000
34.861376,-0.047824,0.218136,0.916952,-1.120000,2.520000,-1.820000
34.869463,-0.042944,0.249856,0.888160,-1.260000,0.140000,-0.420000
34.877550,-0.019520,0.232776,0.973560,-1.400000,0.000000,-0.560000
34.885637,0.040504,0.247904,0.996984,-1.400000,-1.540000,-0.700000
34.893724,-0.055632,0.237168,1.074576,-1.120000,1.960000,-0.980000
34.901811,-0.036112,0.257176,0.952576,-1.400000,2.240000,-1.820000
34.909898,-0.067344,0.205448,0.877424,-2.240000,0.980000,-0.420000
34.917985,0.025376,0.208864,1.035048,-0.280000,-1.540000,-0.560000
34.926072,-0.013176,0.282064,1.043344,0.980000,-0.560000,-0.560000
34.934159,-0.038552,0.253272,0.950624,-1.680000,2.380000,-0.980000
34.942246,-0.043920,0.224968,0.977952,-2.660000,2.520000,-1.960000
34.950333,-0.045384,0.203008,0.931592,-0.560000,-0.420000,0.000000
34.958420,-0.006832,0.233264,0.997472,0.700000,-0.560000,-0.980000
34.966507,0.019520,0.262056,1.029192,0.280000,0.000000,-0.560000
34.974594,-0.051728,0.244000,1.031144,-0.700000,2.240000,-1.260000
34.982681,-0.067832,0.221552,0.915976,-0.840000,1.960000,-1.260000
34.990769,-0.019520,0.227408,0.902800,0.000000,-0.280000,-0.280000
34.998856,-0.019520,0.272304,1.028704,-0.140000,-0.560000,-0.700000
35.006943,0.010248,0.224480,0.971120,-1.260000,-0.140000,-1.120000
35.015030,-0.057584,0.249368,1.018456,-2.800000,2.660000,-1.120000
35.023117,-0.046360,0.204472,0.943304,-1.820000,1.260000,-1.120000
35.031204,-0.032696,0.227896,0.922320,0.000000,-1.400000,-0.420000
35.039291,0.016592,0.250344,1.058960,0.140000,-0.700000,-0.560000
35.047378,-0.019520,0.275720,0.998936,-0.560000,1.400000,-1.260000
35.055465,-0.075640,0.210816,0.979904,-3.500000,3.080000,-1.260000
35.063552,-0.026840,0.201544,0.929152,-1.680000,0.700000,-0.840000
35.071639,-0.022936,0.214232,0.953552,0.420000,-1.120000,-0.420000
35.079726,0.022448,0.284504,1.001376,-0.140000,-0.560000,-0.980000
35.087813,-0.052704,0.262544,1.051152,-2.380000,1.960000,-1.260000
35.095900,-0.057584,0.196664,0.962336,-2.520000,2.240000,-0.700000
35.103987,-0.017080,0.187880,0.917440,-0.700000,0.140000,-1.400000
35.112074,-0.024400,0.249856,1.002352,1.400000,-1.120000,0.280000
35.120161,-0.008296,0.252784,0.987712,0.000000,-0.140000,-1.400000
35.128248,-0.004392,0.216184,1.033096,-1.820000,1.680000,-0.700000
35.136335,-0.049288,0.219600,0.976976,-0.140000,1.960000,-1.400000
35.144422,-0.053680,0.254736,0.931592,-0.560000,0.840000,-0.980000
35.152509,-0.011224,0.217648,0.918416,0.280000,-1.260000,-0.140000
35.160596,-0.002928,0.276208,1.042856,-1.120000,-0.140000,-1.120000
35.168683,0.003904,0.233752,1.022360,-2.940000,1.820000,-0.980000
35.176771,-0.089304,0.210328,0.934520,-2.940000,2.940000,-1.400000
35.184858,-0.042456,0.227896,0.908656,-2.100000,0.700000,-1.120000
35.192945,0.002928,0.238632,0.989664,-1.820000,-2.240000,-0.140000
35.201032,-0.009760,0.233264,1.074088,-2.940000,0.140000,-0.980000
35.209119,-0.012200,0.204472,1.037000,-2.380000,3.080000,-1.680000
35.217206,-0.104920,0.192760,0.906216,0.560000,1.400000,-0.700000
35.225293,-0.007320,0.240584,0.943304,1.680000,-1.960000,-0.560000
35.233380,0.019032,0.249856,1.010648,-0.140000,-0.420000,-0.420000
35.241467,-0.001952,0.239608,1.073600,-1.120000,1.680000,-1.260000
35.249554,-0.077104,0.211792,0.924760,-1.960000,3.220000,-1.680000
35.257641,-0.057584,0.223504,0.937448,-0.560000,0.980000,-0.700000
35.265728,-0.016592,0.207888,0.950624,0.420000,-1.540000,-0.560000
35.273815,0.026352,0.251320,1.045784,0.700000,-1.400000,-0.280000
35.281902,-0.010248,0.248880,1.065304,-1.400000,2.240000,-1.400000
35.289989,-0.086864,0.195200,0.922320,-1.120000,3.360000,-0.980000
35.298076,-0.046360,0.202520,0.904264,1.260000,-0.280000,-0.840000
35.306163,-0.025864,0.260104,0.994056,1.400000,-1.540000,0.000000
35.314250,0.048800,0.225944,1.020896,0.000000,-0.560000,-0.980000
35.322337,-0.034160,0.227408,1.083848,-0.980000,1.960000,-0.980000
35.330424,-0.068808,0.206424,0.940376,0.280000,2.520000,-1.540000
35.338511,-0.080032,0.228384,0.857416,0.420000,0.700000,-0.560000
35.346598,0.002440,0.237168,0.956968,0.280000,-1.820000,-0.420000
35.354685,0.043432,0.258640,1.023824,-1.120000,-0.980000,-0.700000
35.362773,-0.028792,0.236192,1.062376,-3.080000,2.240000,-0.980000
35.370860,-0.088328,0.192760,0.989176,-2.100000,3.640000,-1.960000
35.378947,-0.062952,0.209352,0.879864,0.420000,0.140000,-0.140000
35.387034,-0.001952,0.218624,0.940864,-0.700000,-1.400000,-0.700000
35.395121,0.032208,0.250832,1.081408,-0.980000,-1.260000,-0.420000
35.403208,-0.026840,0.229360,1.059448,-1.120000,2.100000,-0.840000
35.411295,-0.062952,0.196664,0.890600,-1.540000,3.640000,-2.240000
35.419382,-0.073200,0.252296,0.949648,-0.140000,0.000000,0.000000
35.427469,-0.021960,0.202520,0.949160,-0.280000,-1.680000,-0.560000
35.435556,0.071736,0.224480,1.041392,-0.840000,-0.700000,-0.420000
35.443643,-0.031232,0.244000,1.094096,-0.420000,1.820000,-1.540000
35.451730,-0.121024,0.184952,0.898896,-0.420000,3.360000,-0.980000
35.459817,-0.006344,0.218136,0.903288,0.980000,-0.980000,-0.980000
35.467904,-0.003904,0.235216,1.034560,0.700000,-1.680000,-0.140000
35.475991,0.023912,0.240584,1.037000,1.260000,0.000000,-0.700000
35.484078,-0.035136,0.246928,0.994056,-1.680000,2.520000,-1.820000
35.492165,-0.107360,0.213256,0.921832,-1.680000,2.800000,-0.980000
35.500252,-0.023424,0.210816,0.890600,-2.100000,-0.560000,-1.120000
35.508339,0.015616,0.212280,1.023336,-0.980000,-1.820000,0.000000
35.516426,0.006832,0.253272,1.051152,-0.980000,0.840000,-1.120000
35.524513,-0.045872,0.240584,0.962824,-4.480000,3.500000,-1.680000
35.532600,-0.113704,0.185928,0.949648,-3.080000,2.100000,-0.980000
35.540687,0.015616,0.191784,0.910608,-1.120000,-1.680000,-0.140000
35.548775,0.055632,0.237656,1.059448,-1.260000,-1.540000,-0.980000
35.556862,-0.061000,0.270352,1.102392,-2.100000,2.800000,-1.400000
35.564949,-0.074664,0.172752,0.891088,-2.520000,3.500000,-1.400000
35.573036,-0.044896,0.201056,0.889136,-2.240000,0.000000,-0.840000
35.581123,0.012200,0.230336,1.037000,-0.700000,-2.100000,-0.140000
35.589210,0.013664,0.214232,1.039440,-1.260000,0.560000,-0.700000
35.597297,-0.048312,0.237168,1.014552,-1.540000,2.240000,-1.540000
35.605384,-0.089792,0.193248,0.934032,-1.680000,1.540000,-1.260000
35.613471,0.004392,0.216184,0.940864,-0.280000,-0.980000,-0.280000
35.621558,-0.002440,0.205448,1.020896,-0.280000,-0.840000,-0.560000
35.629645,-0.003904,0.243512,1.054568,-0.560000,0.280000,-1.120000
35.637732,-0.060512,0.229848,0.928664,-2.100000,3.220000,-1.400000
35.645819,-0.058072,0.195688,0.939888,-3.080000,0.980000,-0.840000
35.653906,-0.014152,0.182512,0.976488,-0.840000,-1.260000,-0.560000
35.661993,-0.020008,0.238144,1.044808,-0.140000,-0.140000,-0.280000
35.670080,-0.001464,0.232776,0.996008,-1.120000,1.680000,-2.100000
35.678167,-0.080032,0.210816,0.972096,-2.240000,2.380000,-0.560000
35.686254,-0.034160,0.189344,0.927688,-1.400000,0.840000,-1.120000
35.694341,0.009760,0.211304,1.010160,0.140000,-1.820000,-0.280000
35.702428,-0.014152,0.206424,1.048224,0.420000,0.700000,-0.840000
35.710515,-0.021472,0.239120,1.019432,-0.980000,2.100000,-1.680000
35.718602,-0.081984,0.172264,0.944280,0.280000,1.400000,-0.280000
35.726689,-0.009272,0.195200,0.961360,1.960000,-0.420000,-0.980000
35.734777,0.020496,0.254736,1.024312,2.800000,-1.680000,-0.140000
35.742864,-0.066856,0.203496,1.001376,0.980000,1.680000,-0.840000
35.750951,-0.009760,0.200080,0.997960,0.000000,2.520000,-1.680000
35.759038,-0.046848,0.215696,0.973072,1.820000,0.420000,-0.560000
35.767125,-0.057096,0.209352,0.900848,2.240000,-0.700000,-0.420000
35.775212,0.045384,0.260104,0.998936,0.700000,-0.980000,-0.420000
35.783299,-0.048312,0.224968,1.046760,-0.700000,0.980000,-0.980000
35.791386,-0.035624,0.177144,0.992104,-1.400000,2.800000,-1.260000
35.799473,-0.040016,0.194224,0.930128,0.980000,0.700000,-0.700000
35.807560,-0.040992,0.229360,0.965752,1.680000,-1.120000,-0.560000
35.815647,0.041480,0.241072,1.031144,0.980000,-0.700000,-0.700000
35.823734,-0.061488,0.221064,1.039440,-0.700000,2.800000,-1.260000
35.831821,-0.062952,0.192760,0.969656,-0.700000,2.240000,-0.840000
35.839908,-0.026352,0.159576,0.881328,2.240000,-0.560000,-0.560000
35.847995,0.021472,0.271328,1.014064,1.680000,-1.540000,-0.420000
35.856082,-0.036600,0.229848,1.079944,0.140000,0.560000,-0.980000
35.864169,-0.054656,0.181536,0.944768,-0.420000,2.800000,-1.120000
35.872256,-0.024888,0.210328,0.915488,0.420000,0.420000,-1.120000
35.880343,-0.045384,0.220576,0.987712,1.260000,-0.420000,-0.280000
35.888430,0.016592,0.209352,1.040904,1.400000,-0.700000,-0.840000
35.896517,-0.025376,0.212768,1.035048,-0.140000,2.100000,-1.120000
35.904604,-0.056120,0.195688,0.964776,1.120000,1.960000,-0.980000
35.912691,-0.051240,0.183488,0.914512,2.240000,0.140000,-0.840000
35.920779,0.004392,0.247904,0.981368,3.360000,-0.980000,-0.140000
35.928866,0.008296,0.232288,1.054568,0.980000,-0.140000,-0.980000
35.936953,-0.048312,0.217160,1.010648,-0.280000,2.660000,-1.120000
35.945040,-0.061976,0.202032,0.920856,0.560000,1.680000,-1.120000
35.953127,-0.044896,0.199592,0.910120,0.980000,-0.280000,-0.420000
35.961214,0.018544,0.222528,0.988688,0.700000,-0.840000,-0.560000
35.969301,-0.020496,0.233752,1.093608,0.000000,0.420000,-0.840000
35.977388,-0.062952,0.189832,0.974048,-0.560000,2.940000,-1.260000
35.985475,-0.015128,0.204472,0.927200,0.840000,0.840000,-0.840000
35.993562,-0.051728,0.225456,0.977464,2.520000,-1.120000,-0.420000
36.001649,0.017568,0.232776,0.994544,-0.140000,-0.700000,-0.560000
36.009736,-0.008784,0.198616,1.030656,-1.820000,2.940000,-1.260000
36.017823,-0.072224,0.190808,0.976000,0.840000,1.540000,-0.980000
36.025910,-0.051728,0.208376,0.913048,2.800000,-0.980000,-0.560000
36.033997,0.043432,0.246440,1.024800,0.980000,-1.120000,-0.420000
36.042084,-0.039040,0.201056,1.080432,0.560000,1.540000,-1.120000
36.050171,-0.055144,0.194224,0.941352,0.000000,2.660000,-0.980000
36.058258,-0.029280,0.187880,0.914024,1.400000,0.280000,-0.840000
36.066345,-0.028304,0.240584,1.029680,3.780000,-1.120000,-0.280000
36.074432,-0.004880,0.222040,1.014552,1.540000,0.000000,-0.980000
36.082519,-0.022936,0.198616,1.020896,0.000000,1.960000,-0.840000
36.090606,-0.060024,0.191296,0.958432,2.100000,1.680000,-1.120000
36.098694,-0.045872,0.211792,0.936472,3.920000,-0.700000,-0.560000
36.106781,0.003904,0.240096,0.975512,3.360000,-1.120000,0.000000
36.114868,-0.005856,0.229848,1.079456,0.840000,0.980000,-1.120000
36.122955,-0.040016,0.170312,0.985272,0.840000,2.520000,-0.700000
36.131042,-0.062464,0.218136,0.924272,3.080000,0.980000,-1.400000
36.139129,-0.043432,0.213744,0.947696,3.360000,-0.980000,0.000000
36.147216,0.032208,0.245952,0.964288,2.240000,-1.260000,-0.560000
36.155303,-0.008296,0.239608,1.063840,-0.420000,0.840000,-0.980000
36.163390,-0.060024,0.183976,1.016016,-0.280000,3.080000,-1.120000
36.171477,-0.066368,0.189832,0.881816,1.120000,1.260000,-1.260000
36.179564,-0.004880,0.229848,0.968192,2.520000,-1.400000,0.140000
36.187651,-0.000976,0.236680,1.065304,1.680000,0.000000,-0.980000
36.195738,-0.032208,0.198128,1.031144,0.000000,2.240000,-1.120000
36.203825,-0.052216,0.187880,0.954040,3.080000,1.260000,-0.840000
36.211912,-0.053192,0.204960,0.948672,4.340000,-0.280000,-0.700000
36.219999,0.017080,0.227896,0.996984,4.620000,-1.960000,0.140000
36.228086,-0.007808,0.236192,1.043832,3.640000,0.280000,-0.840000
36.236173,0.003904,0.234728,0.993080,1.680000,1.680000,-0.980000
36.244260,-0.080520,0.203008,0.916952,1.400000,2.240000,-1.260000
36.252347,-0.051728,0.206912,0.938424,1.540000,1.260000,-0.700000
36.260434,-0.005856,0.208376,1.019432,3.780000,-1.960000,-0.280000
36.268521,-0.020496,0.242048,1.039928,3.500000,0.560000,-0.280000
36.276608,0.001464,0.220088,1.025776,1.680000,1.680000,-1.400000
36.284696,-0.080032,0.184464,0.914512,2.380000,2.100000,-0.980000
36.292783,-0.055144,0.223992,0.903776,3.500000,-0.560000,-0.560000
36.300870,0.011712,0.235704,0.987224,3.080000,-1.960000,-0.140000
36.308957,-0.009272,0.211792,1.071160,2.660000,0.140000,-0.560000
36.317044,-0.013176,0.213744,1.028704,1.540000,2.800000,-1.400000
36.325131,-0.074664,0.211304,0.936472,3.220000,1.540000,-0.980000
36.333218,-0.038552,0.184464,0.943304,5.600000,-0.840000,-0.140000
36.341305,0.013176,0.259616,1.001864,5.460000,-1.680000,-0.420000
36.349392,-0.010248,0.247904,1.013576,2.520000,0.840000,-0.420000
36.357479,-0.029280,0.228384,0.975024,0.700000,2.520000,-1.680000
36.365566,-0.074176,0.189344,0.945744,0.980000,2.660000,-0.840000
36.373653,-0.030256,0.168848,0.967216,4.620000,-1.680000,-0.560000
36.381740,-0.026840,0.258640,1.011136,5.460000,-1.120000,-0.140000
36.389827,0.043920,0.263520,1.013576,2.520000,0.000000,-0.840000
36.397914,-0.082472,0.224968,1.011136,0.980000,3.500000,-1.400000
36.406001,-0.057584,0.164456,0.893528,1.540000,1.400000,-0.560000
36.414088,-0.013176,0.214232,0.929640,4.480000,-2.100000,-0.280000
36.422175,0.014640,0.286944,1.076528,3.080000,-0.560000,-0.700000
36.430262,-0.001952,0.221064,1.032120,1.120000,1.540000,-0.980000
36.438349,-0.086376,0.183000,0.963800,2.100000,2.800000,-1.260000
36.446436,-0.040016,0.192272,0.908168,4.900000,-0.280000,-0.560000
36.454523,-0.003904,0.244000,1.006744,5.740000,-2.380000,0.140000
36.462610,0.011224,0.236680,1.042856,4.060000,0.140000,-0.560000
36.470697,-0.026352,0.239608,1.018456,3.080000,2.940000,-1.400000
36.478785,-0.095648,0.224968,0.918416,2.520000,2.100000,-0.840000
36.486872,-0.025864,0.200568,0.858880,3.360000,-0.560000,-0.700000
36.494959,-0.006344,0.276208,1.038952,3.360000,-1.540000,-0.140000
36.503046,0.030256,0.204960,1.052128,1.120000,0.140000,-0.980000
36.511133,-0.049288,0.210816,1.049200,1.960000,2.800000,-0.980000
36.519220,-0.080520,0.211792,0.917440,4.480000,2.100000,-1.260000
36.527307,-0.037576,0.214232,0.880352,4.340000,-1.540000,0.000000
36.535394,0.033672,0.258640,1.029192,4.900000,-1.960000,-0.140000
36.543481,-0.000488,0.249368,1.043344,2.660000,1.400000,-0.980000
36.551568,-0.034160,0.232776,0.994056,0.560000,2.240000,-1.400000
36.559655,-0.093696,0.214232,0.924760,2.100000,2.660000,-1.260000
36.567742,-0.030256,0.186904,0.919880,3.640000,-0.700000,-0.280000
36.575829,0.026840,0.253272,1.042368,4.340000,-2.240000,-0.280000
36.583916,-0.006344,0.234728,1.048712,2.660000,0.980000,-0.700000
36.592003,-0.045384,0.217648,1.005768,2.800000,3.220000,-1.120000
36.600090,-0.081008,0.232288,0.896944,3.360000,1.260000,-1.120000
36.608177,-0.048312,0.216184,0.882304,4.200000,-0.840000,0.140000
36.616264,0.053192,0.273280,1.026752,3.360000,-2.380000,-0.560000
36.624351,-0.010736,0.239120,1.053592,1.400000,0.560000,-0.840000
36.632438,-0.022936,0.221064,1.002352,0.420000,3.080000,-1.120000
36.640525,-0.114680,0.183976,0.940376,2.520000,2.240000,-1.120000
36.648612,-0.040504,0.225944,0.886208,4.340000,-1.260000,0.140000
36.656699,0.067832,0.271816,1.017968,3.220000,-2.520000,-0.700000
36.664786,-0.029280,0.265472,1.087752,1.820000,1.680000,-0.420000
36.672873,-0.031232,0.222528,0.944280,0.420000,2.800000,-1.960000
36.680961,-0.093208,0.223016,0.900848,-0.140000,2.240000,-0.560000
36.689048,-0.017568,0.214232,0.932568,2.940000,-1.820000,-0.560000
36.697135,0.026840,0.277672,0.982832,0.700000,-1.400000,-0.140000
36.705222,-0.002928,0.234728,1.077504,-1.260000,1.540000,-1.120000
36.713309,-0.078080,0.236192,0.996496,-0.560000,3.080000,-1.680000
36.721396,-0.091256,0.156648,0.868640,0.980000,1.260000,0.000000
36.729483,0.059536,0.237656,0.995032,3.500000,-2.940000,-0.420000
36.737570,0.017568,0.283040,1.108736,2.380000,-0.840000,-0.140000
36.745657,-0.056120,0.241560,0.996008,0.560000,3.920000,-1.820000
36.753744,-0.108824,0.202520,0.887184,1.260000,2.240000,-0.980000
36.761831,-0.014640,0.203008,0.906216,2.100000,-1.400000,-0.420000
36.769918,0.015616,0.266448,1.056032,2.100000,-1.400000,-0.420000
36.778005,0.000976,0.216672,1.027728,1.960000,0.420000,-0.280000
36.786092,-0.052216,0.245952,0.984784,0.700000,3.080000,-2.100000
36.794179,-0.083448,0.223016,0.921832,1.400000,1.540000,-0.280000
36.802266,-0.020496,0.218624,0.889624,0.700000,-0.700000,-0.700000
36.810353,0.042944,0.250344,1.028216,1.120000,-1.960000,-0.280000
36.818440,-0.017568,0.263032,1.106296,1.260000,1.820000,-1.260000
36.826527,-0.084424,0.222040,0.910608,-1.400000,3.780000,-1.400000
36.834614,-0.048800,0.188368,0.918904,0.560000,0.000000,-0.980000
36.842701,0.019032,0.247416,1.005280,1.820000,-2.100000,0.140000
36.850788,-0.006344,0.244488,1.020896,2.380000,0.000000,-0.840000
36.858875,-0.028792,0.251320,1.012112,0.560000,2.100000,-1.540000
36.866962,-0.083448,0.219112,0.969168,0.140000,2.240000,-0.560000
36.875049,-0.035136,0.197640,0.899384,0.700000,0.140000,-0.980000
36.883137,0.014640,0.217160,1.002352,2.800000,-1.260000,-0.140000
36.891224,0.006344,0.278648,1.058472,2.520000,-0.280000,-0.980000
36.899311,-0.079056,0.227408,0.993080,0.560000,2.520000,-0.980000
36.907398,-0.017568,0.201544,0.957456,1.120000,1.260000,-0.840000
36.915485,-0.047336,0.214720,0.976000,3.220000,0.280000,-0.980000
36.923572,-0.018544,0.263520,0.911096,3.360000,-1.400000,0.420000
36.931659,0.023912,0.244976,1.018944,2.240000,-0.420000,-1.540000
36.939746,-0.024888,0.264496,1.050176,0.420000,1.680000,-0.420000
36.947833,-0.081984,0.184952,0.933056,0.140000,2.660000,-1.540000
36.955920,-0.017080,0.199104,0.937448,2.660000,-0.700000,-0.280000
36.964007,0.002928,0.266448,0.987712,3.500000,-1.400000,-0.560000
36.972094,-0.036112,0.264496,1.004304,1.680000,1.120000,-0.560000
36.980181,-0.009272,0.244488,1.012112,0.280000,1.260000,-1.400000
36.988268,-0.097112,0.205448,0.955016,-0.140000,2.800000,-0.840000
36.996355,-0.003416,0.193736,0.909632,2.380000,-0.700000,-0.560000
37.004442,0.016592,0.271816,0.989176,2.240000,-1.400000,-0.700000
37.012529,-0.052216,0.261080,1.083848,0.560000,1.820000,-0.700000
37.020616,-0.016592,0.207888,0.957456,0.140000,2.380000,-1.680000
37.028703,-0.090768,0.195200,0.928176,1.540000,1.120000,-0.280000
37.036790,0.021960,0.270352,0.964776,3.920000,-1.680000,-0.840000
37.044877,-0.010736,0.243024,0.954040,0.840000,0.000000,-0.280000
37.052964,-0.034648,0.256688,1.085312,-0.420000,1.820000,-1.260000
37.061051,-0.039528,0.189832,0.977952,0.840000,1.400000,-1.120000
37.069138,-0.040992,0.211792,0.874984,2.520000,0.000000,-0.140000
37.077226,0.018544,0.285968,1.024800,3.080000,-1.540000,-0.980000
37.085313,-0.033184,0.258640,1.022848,0.840000,0.560000,-0.280000
37.093400,-0.048312,0.209840,0.975512,-1.260000,3.080000,-1.820000
37.101487,-0.045384,0.208376,0.947696,0.840000,1.680000,-0.700000
37.109574,-0.047336,0.203008,0.965752,3.360000,-1.260000,-0.280000
37.117661,0.023912,0.261080,1.001864,3.360000,-1.260000,-0.700000
37.125748,-0.013176,0.278160,1.041392,1.260000,1.260000,-0.700000
37.133835,-0.070760,0.217648,0.953552,0.560000,2.520000,-1.260000
37.141922,-0.021960,0.194712,0.902312,1.960000,0.700000,-0.420000
37.150009,-0.011712,0.251808,0.999912,3.920000,-1.540000,-0.700000
37.158096,-0.037576,0.251808,0.983320,2.380000,0.280000,0.000000
37.166183,0.018544,0.259128,1.033096,1.260000,0.560000,-1.540000
37.174270,-0.073200,0.236192,0.947208,-1.120000,3.500000,-1.120000
37.182357,-0.036112,0.196176,0.941352,0.420000,0.700000,-0.840000
37.190444,-0.040016,0.224480,0.983320,3.360000,-1.540000,-0.140000
37.198531,0.026352,0.266936,1.039928,2.940000,-1.120000,-0.700000
37.206618,-0.020984,0.248392,1.002840,0.560000,2.660000,-1.120000
37.214705,-0.081984,0.205448,0.948672,1.120000,1.960000,-1.260000
37.222792,-0.032208,0.233752,0.910608,2.520000,-0.420000,-0.560000
37.230879,0.001952,0.269376,0.951600,1.540000,-1.540000,-0.420000
37.238966,-0.011224,0.267424,1.041392,0.000000,0.000000,-0.700000
37.247053,-0.017568,0.223016,1.000400,-2.100000,2.380000,-1.400000
37.255140,-0.074664,0.188368,0.943792,0.700000,2.380000,-0.700000
37.263227,-0.017080,0.241072,0.987224,2.660000,-1.400000,-1.120000
37.271314,0.019032,0.247416,0.945256,1.680000,-0.560000,0.000000
37.279402,-0.032696,0.251808,1.112152,0.560000,1.820000,-1.540000
37.287489,-0.067344,0.215208,0.975512,0.560000,2.100000,-0.700000
37.295576,-0.040016,0.188368,0.882304,3.640000,0.700000,-0.420000
37.303663,0.012688,0.269864,1.008696,3.920000,-1.960000,-0.980000
37.311750,-0.021472,0.253760,1.011624,3.220000,-0.280000,0.140000
37.319837,-0.003416,0.249856,1.004304,1.820000,1.680000,-1.540000
37.327924,-0.047336,0.213744,0.992104,1.120000,2.520000,-1.120000
37.336011,-0.084912,0.209840,0.887672,3.640000,0.560000,-0.280000
37.344098,-0.026352,0.251320,0.953552,4.200000,-0.980000,-0.560000
37.352185,0.040504,0.250344,1.033584,3.080000,-1.540000,-0.140000
37.360272,-0.036600,0.251808,1.066280,2.240000,2.100000,-1.260000
37.368359,-0.053680,0.225456,0.904752,0.980000,3.080000,-1.120000
37.376446,-0.065392,0.224480,0.894504,1.960000,0.140000,-0.980000
37.384533,-0.016592,0.253272,0.941840,2.100000,-2.100000,-0.140000
37.392620,0.056120,0.266448,1.018456,1.120000,-1.120000,-0.280000
37.400707,-0.038064,0.285480,1.078480,-1.540000,2.800000,-1.540000
37.408794,-0.070760,0.198128,0.922808,-1.540000,3.080000,-1.260000
37.416881,-0.071736,0.205936,0.880352,1.960000,0.280000,-0.560000
37.424968,0.050752,0.264984,1.037976,1.540000,-3.220000,-0.280000
37.433055,-0.009272,0.254248,1.060912,0.140000,1.400000,-0.980000
37.441142,-0.061000,0.223992,0.996008,-0.140000,4.060000,-1.400000
37.449229,-0.094672,0.201544,0.895480,1.960000,0.560000,-0.840000
37.457316,0.010248,0.246928,0.906704,2.660000,-2.380000,0.000000
37.465403,0.045872,0.254736,1.053592,1.120000,0.000000,-0.980000
37.473490,-0.043920,0.243512,1.137528,1.120000,1.680000,-0.700000
37.481577,-0.080032,0.207400,0.904752,2.800000,2.800000,-1.400000
37.489665,-0.029768,0.245464,0.863272,2.520000,0.840000,-0.840000
37.497752,-0.043920,0.234240,0.987224,3.360000,-1.680000,0.140000
37.505839,0.052216,0.245952,1.082384,2.520000,-1.400000,-0.560000
37.513926,-0.016104,0.246440,1.023336,2.100000,2.660000,-0.980000
37.522013,-0.094672,0.231800,0.934032,2.240000,2.660000,-1.540000
37.530100,-0.062952,0.246440,0.875472,2.240000,0.560000,-0.560000
37.538187,0.006832,0.234240,0.948184,2.660000,-2.240000,-0.420000
37.546274,0.017568,0.247416,1.079944,2.100000,-0.280000,-0.280000
37.554361,-0.003416,0.244488,1.041392,1.680000,1.540000,-1.400000
37.562448,-0.098088,0.223016,0.924272,1.680000,3.500000,-1.260000
37.570535,-0.053680,0.229360,0.875472,2.100000,-0.280000,-0.560000
37.578622,0.016104,0.245464,0.992592,2.520000,-1.960000,0.140000
37.586709,0.037576,0.279624,1.130696,2.380000,-0.140000,-1.120000
37.594796,-0.061000,0.235704,0.947208,0.840000,3.500000,-1.260000
37.602883,-0.072712,0.227896,0.880352,1.120000,2.660000,-1.260000
37.610970,-0.055632,0.241072,0.987224,2.520000,-1.120000,-0.280000
37.619057,0.019032,0.229848,1.001376,3.640000,-2.380000,0.140000
37.627144,0.051240,0.269376,1.013088,1.960000,0.560000,-1.120000
37.635231,-0.080032,0.257664,1.005768,0.560000,3.640000,-1.120000
37.643318,-0.102480,0.219112,0.926224,1.540000,1.680000,-1.260000
37.651405,0.000000,0.214720,0.853512,1.820000,-1.400000,0.000000
37.659492,0.048312,0.277184,1.050176,1.960000,-2.240000,-0.560000
37.667579,-0.025376,0.252784,1.079944,0.840000,2.100000,-0.840000
37.675666,-0.069784,0.229848,0.937448,1.260000,2.100000,-1.540000
37.683753,-0.077592,0.230336,0.900360,0.280000,1.400000,-0.420000
37.691840,0.017080,0.232776,0.990640,1.960000,-2.240000,-0.560000
37.699928,0.014640,0.242536,1.010160,1.680000,-0.560000,-0.140000
37.708015,-0.010736,0.280600,1.033096,1.260000,2.100000,-1.680000
37.716102,-0.117120,0.255712,0.947696,-0.420000,3.220000,-1.400000
37.724189,-0.028792,0.196176,0.854000,0.280000,-0.560000,0.140000
37.732276,0.056608,0.249856,1.047736,0.980000,-1.820000,-0.700000
37.740363,-0.024888,0.282064,1.086288,1.120000,0.980000,-0.840000
37.748450,-0.101992,0.232288,0.915976,-0.280000,4.200000,-1.820000
37.756537,-0.014152,0.207888,0.864736,-0.280000,-0.700000,-0.280000
37.764624,0.018544,0.248392,1.055056,1.540000,-2.660000,-0.140000
37.772711,-0.015616,0.276208,1.035536,1.540000,0.980000,-0.980000
37.780798,-0.038552,0.242048,0.945744,0.000000,2.660000,-1.400000
37.788885,-0.098576,0.230824,0.954040,-1.120000,2.380000,-1.260000
37.796972,-0.014152,0.186416,0.935496,1.960000,-1.680000,-0.140000
37.805059,0.035624,0.263032,1.054568,2.940000,-1.400000,-0.420000
37.813146,-0.021960,0.264984,0.998448,1.680000,1.680000,-1.260000
37.821233,-0.065880,0.248392,0.968192,0.420000,2.520000,-1.260000
37.829320,-0.058072,0.215208,0.931104,0.560000,1.260000,-1.120000
37.837407,0.003416,0.206912,0.968192,2.240000,-1.960000,-0.280000
37.845494,-0.003904,0.296216,1.013576,3.080000,-0.560000,-0.280000
37.853581,-0.017080,0.266936,1.009184,0.840000,1.120000,-1.400000
37.861668,-0.058072,0.212280,0.967704,-0.280000,2.940000,-0.840000
37.869755,-0.042944,0.240096,0.952088,1.540000,0.000000,-0.980000
37.877842,-0.005856,0.221552,0.917928,2.380000,-0.840000,-0.140000
37.885929,0.020984,0.285480,1.046272,2.240000,-0.700000,-0.700000
37.894016,-0.070272,0.253272,1.016992,0.280000,2.520000,-1.540000
37.902103,-0.023424,0.214720,0.923296,0.280000,1.400000,-0.840000
37.910190,-0.060512,0.235704,0.928664,0.560000,0.560000,-0.560000
37.918278,0.019520,0.242536,0.996984,1.680000,-1.960000,-0.140000
37.926365,-0.005856,0.272304,1.015040,0.840000,0.840000,-1.260000
37.934452,-0.053192,0.244976,0.993080,-1.400000,3.360000,-1.260000
37.942539,-0.062952,0.230336,0.943792,0.560000,0.700000,-0.700000
37.950626,-0.021960,0.213744,0.910608,1.260000,-0.700000,-0.420000
37.958713,0.035136,0.289384,1.022360,1.120000,-1.260000,-0.560000
37.966800,-0.068808,0.268888,1.049688,-0.700000,3.080000,-1.260000
37.974887,-0.038064,0.191784,0.943304,-0.700000,1.680000,-1.260000
37.982974,-0.023424,0.235704,0.918904,0.840000,-0.560000,-0.420000
37.991061,-0.013664,0.237168,0.972096,1.820000,-1.400000,-0.560000
37.999148,0.016104,0.291824,1.069696,0.140000,0.280000,-0.700000
38.007235,-0.066368,0.214232,0.980392,-0.420000,3.220000,-1.120000
38.015322,-0.051728,0.229848,0.926224,0.140000,1.400000,-1.400000
38.023409,-0.020496,0.235216,0.910608,1.400000,-0.840000,-0.280000
38.031496,-0.008296,0.273280,1.030656,1.120000,-1.120000,-0.840000
38.039583,-0.010736,0.252784,1.043344,-0.560000,0.700000,-0.840000
38.047670,-0.056120,0.215208,0.947696,-1.260000,2.660000,-0.840000
38.055757,-0.041968,0.208376,0.905240,0.980000,0.000000,-1.120000
38.063844,0.001464,0.276696,0.988200,2.100000,-1.820000,0.000000
38.071931,-0.002928,0.263032,1.038464,0.140000,0.560000,-1.260000
38.080018,-0.056120,0.240096,1.007720,-1.120000,2.520000,-1.400000
38.088105,-0.037576,0.191296,0.952088,0.560000,1.400000,-1.120000
38.096192,-0.035136,0.232288,0.935496,2.520000,-0.560000,0.000000
38.104279,0.033672,0.264008,0.992104,2.520000,-1.120000,-0.980000
38.112366,-0.051728,0.280112,1.057984,0.140000,2.520000,-0.840000
38.120453,-0.067344,0.211304,0.946720,0.560000,2.240000,-1.260000
38.128541,-0.030256,0.217648,0.912560,1.260000,-0.140000,-0.420000
38.136628,0.012688,0.238144,0.981368,3.080000,-1.540000,-0.560000
38.144715,-0.028792,0.275720,1.052128,1.960000,0.140000,-0.420000
38.152802,-0.023912,0.224968,1.013088,0.840000,2.240000,-1.400000
38.160889,-0.058560,0.239120,0.957944,1.400000,2.100000,-0.700000
38.168976,-0.047336,0.191296,0.905240,3.220000,0.000000,-0.840000
38.177063,0.027328,0.279624,0.996984,4.060000,-1.680000,-0.140000
38.185150,-0.015616,0.280112,1.047736,2.520000,0.140000,-0.840000
38.193237,-0.056608,0.243024,0.950624,-0.420000,2.940000,-1.260000
38.201324,-0.033672,0.232288,0.924272,0.560000,1.260000,-1.120000
38.209411,-0.052216,0.221064,0.936472,2.240000,-0.980000,-0.140000
38.217498,0.010248,0.272792,1.016992,2.660000,-1.400000,-0.840000
38.225585,0.000000,0.246440,1.025288,0.560000,0.980000,-0.700000
38.233672,-0.049776,0.218136,0.972584,0.280000,2.520000,-1.120000
38.241759,-0.072224,0.237656,0.927200,2.240000,0.840000,-0.840000
38.249846,-0.006832,0.245952,0.903776,2.940000,-1.260000,-0.140000
38.257933,0.033672,0.287920,1.033096,-0.280000,-0.420000,-0.980000
38.266020,-0.044896,0.258152,1.101904,-0.140000,2.380000,-0.840000
38.274107,-0.066856,0.175680,0.891088,0.140000,2.380000,-1.400000
38.282194,-0.053192,0.250344,0.878400,1.400000,0.140000,-0.420000
38.290281,0.040016,0.279136,1.038464,1.540000,-2.520000,-0.560000
38.298368,-0.011224,0.250832,1.047248,0.000000,0.700000,-0.700000
38.306455,-0.010736,0.233752,1.003816,-0.420000,3.360000,-1.540000
38.314542,-0.101504,0.239608,0.928664,1.540000,1.120000,-0.980000
38.322629,-0.056608,0.223504,0.864248,1.960000,-0.420000,-0.140000
38.330716,0.067832,0.281088,1.047248,0.700000,-2.240000,-0.560000
38.338803,-0.063928,0.221064,1.089216,-0.140000,1.680000,-0.840000
38.346891,-0.002440,0.224480,0.906216,0.140000,3.080000,-1.680000
38.354978,-0.093696,0.262056,0.911096,0.980000,1.120000,-0.700000
38.363065,-0.018056,0.246928,0.949648,0.840000,-2.240000,-0.280000
38.371152,0.061976,0.252296,1.078480,0.560000,-0.980000,-0.560000
38.379239,-0.053680,0.243024,1.032608,-0.280000,2.800000,-1.120000
38.387326,-0.081984,0.222528,0.920856,0.140000,2.660000,-1.680000
38.395413,-0.061976,0.228384,0.854976,1.260000,-0.420000,0.140000
38.403500,0.049288,0.238144,1.047248,1.540000,-2.520000,-0.420000
38.411587,0.017080,0.288408,1.077992,0.560000,0.700000,-0.980000
38.419674,-0.083936,0.244976,0.958432,-0.140000,3.780000,-1.400000
38.427761,-0.072712,0.209352,0.871568,0.000000,1.680000,-1.260000
38.435848,-0.004392,0.218136,0.981368,2.240000,-2.380000,-0.140000
38.443935,0.013176,0.269864,1.062376,2.520000,-0.840000,-0.280000
38.452022,0.009760,0.262056,1.003328,0.140000,1.960000,-1.540000
38.460109,-0.107848,0.233752,0.982344,0.000000,3.220000,-0.980000
38.468196,-0.054168,0.221064,0.853512,1.960000,0.560000,-0.560000
38.476283,0.031720,0.236680,0.954528,1.540000,-2.240000,-0.560000
38.484370,0.027328,0.291824,1.102392,0.280000,-0.140000,-0.980000
38.492457,-0.079056,0.238144,1.024800,-0.140000,3.920000,-1.400000
38.500544,-0.091744,0.206912,0.846192,0.700000,2.240000,-0.980000
38.508631,-0.012200,0.236680,0.911584,0.840000,-1.820000,-0.560000
38.516718,0.048800,0.257664,1.063352,1.120000,-1.820000,0.000000
38.524805,-0.015128,0.265472,1.088240,0.980000,1.260000,-1.540000
38.532892,-0.084424,0.219600,0.927200,0.420000,3.500000,-1.400000
38.540979,-0.042944,0.225944,0.895968,1.400000,-0.280000,-0.420000
38.549066,-0.034160,0.249368,0.962336,2.380000,-1.820000,0.000000
38.557153,0.056120,0.258640,1.049200,1.120000,-0.140000,-0.700000
38.565240,-0.031232,0.268400,1.065792,1.120000,1.820000,-1.540000
38.573328,-0.113216,0.199104,0.897432,0.280000,3.360000,-0.980000
38.581415,0.010736,0.226920,0.869616,0.700000,-1.540000,-0.560000
38.589502,-0.014640,0.257664,1.053592,2.380000,-2.240000,0.000000
38.597589,0.037088,0.293776,1.041392,1.260000,0.420000,-1.260000
38.605676,-0.096136,0.243024,0.952576,-0.560000,4.340000,-1.960000
38.613763,-0.051240,0.195688,0.931592,-0.280000,0.560000,-0.700000
38.621850,0.004880,0.222040,0.961848,2.800000,-1.960000,0.140000
38.629937,0.017080,0.278160,1.029192,2.380000,-0.560000,-0.560000
38.638024,-0.032696,0.279624,1.029192,0.280000,2.660000,-1.540000
38.646111,-0.128344,0.216184,0.927200,0.420000,3.220000,-0.840000
38.654198,0.008296,0.190320,0.880352,1.400000,-0.700000,-0.700000
38.662285,0.034160,0.264496,1.057984,2.100000,-2.660000,-0.140000
38.670372,-0.021472,0.291336,1.063352,1.540000,1.820000,-0.980000
38.678459,-0.057096,0.219112,0.916464,-0.420000,3.780000,-1.820000
38.686546,-0.099064,0.219112,0.932080,1.260000,1.120000,-0.700000
38.694633,0.032208,0.237168,0.950136,2.240000,-2.100000,-0.140000
38.702720,0.028304,0.274744,1.043344,1.680000,-0.700000,-0.700000
38.710807,-0.059048,0.268888,1.022848,0.840000,2.520000,-0.840000
38.718894,-0.055632,0.219112,0.922808,-0.420000,2.380000,-1.820000
38.726981,-0.066368,0.220576,0.923296,1.260000,-0.420000,0.140000
38.735068,0.029768,0.240584,0.998936,2.520000,-1.680000,-0.980000
38.743155,-0.003416,0.268400,1.037976,1.260000,0.280000,-0.280000
38.751242,-0.071736,0.245952,1.001376,0.420000,2.800000,-1.400000
38.759329,-0.050264,0.215208,0.906704,0.700000,1.540000,-0.980000
38.767416,-0.017568,0.212280,0.987712,3.360000,-1.820000,0.000000
38.775503,0.027816,0.267424,1.003816,2.660000,-0.980000,-0.700000
38.783590,-0.008784,0.279624,1.004304,2.240000,1.120000,-0.700000
38.791677,-0.086376,0.239120,1.001376,0.560000,2.940000,-1.680000
38.799764,-0.041968,0.223504,0.876448,1.540000,0.980000,-0.560000
38.807852,0.005856,0.236192,0.963800,2.940000,-2.100000,-0.700000
38.815939,-0.011712,0.281088,1.057008,1.820000,-0.140000,-0.560000
38.824026,-0.020984,0.252784,0.989176,0.560000,2.520000,-1.540000
38.832113,-0.081984,0.214720,0.913048,0.000000,2.380000,-0.840000
38.840200,-0.021472,0.223016,0.970632,1.820000,-1.260000,-0.280000
38.848287,0.036112,0.265472,0.989176,2.380000,-1.820000,-0.280000
38.856374,-0.026352,0.275232,1.016016,0.840000,2.100000,-1.120000
38.864461,-0.086376,0.241560,0.982832,0.560000,2.800000,-1.540000
38.872548,-0.015128,0.206912,0.881328,1.820000,-0.700000,-0.140000
38.880635,0.036112,0.257664,1.009184,1.400000,-2.100000,-0.560000
38.888722,-0.030744,0.292800,1.081408,1.400000,1.400000,-0.700000
38.896809,-0.087352,0.223992,0.931592,0.560000,3.220000,-1.400000
38.904896,-0.046848,0.197152,0.889136,0.840000,0.700000,-0.700000
38.912983,0.038552,0.232288,1.036024,3.780000,-3.080000,0.280000
38.921070,-0.038552,0.302072,1.009672,2.940000,0.980000,-1.120000
38.929157,-0.004880,0.245464,0.952088,-0.420000,3.080000,-1.400000
38.937244,-0.121512,0.238632,0.952088,-0.140000,1.680000,-0.840000
38.945331,-0.010736,0.194224,0.940376,1.820000,-0.700000,-0.280000
38.953418,0.084912,0.268400,1.051152,4.060000,-2.520000,-0.560000
38.961505,-0.105408,0.267912,1.016504,1.960000,2.800000,-0.700000
38.969592,0.004392,0.246440,0.981856,0.980000,1.400000,-1.680000
38.977679,-0.082472,0.243024,0.930616,1.260000,1.680000,-0.560000
38.985766,-0.004392,0.202032,0.922320,2.660000,-1.120000,-0.280000
38.993853,0.027816,0.306952,1.038952,3.500000,-1.120000,-0.840000
39.001940,-0.075640,0.224480,0.979904,1.540000,1.820000,-0.280000
39.010027,-0.014152,0.239608,0.997960,1.400000,1.820000,-1.960000
39.018114,-0.065880,0.224968,0.974048,2.940000,0.560000,0.000000
39.026201,-0.000488,0.247416,0.910608,3.780000,-0.980000,-0.700000
39.034288,0.009272,0.281088,1.002840,2.660000,0.000000,-0.560000
39.042376,-0.034648,0.261568,1.027728,2.520000,0.700000,-0.560000
39.050463,-0.046848,0.238632,0.959896,0.140000,2.940000,-1.960000
39.058550,-0.037576,0.232776,0.922320,1.260000,0.140000,-0.560000
39.066637,-0.036112,0.240096,0.948672,2.100000,-0.420000,-0.280000
39.074724,0.022448,0.271328,0.974048,2.380000,-0.980000,-0.420000
39.082811,-0.022448,0.276696,1.044808,-0.140000,1.680000,-1.400000
39.090898,-0.065392,0.239120,0.979416,-0.840000,2.940000,-0.840000
39.098985,-0.042456,0.200080,0.894016,2.380000,-0.420000,-0.840000
39.107072,-0.004392,0.259128,1.012112,3.220000,-1.400000,0.000000
39.115159,0.024400,0.265960,1.094096,2.800000,0.000000,-1.260000
39.123246,-0.069296,0.216184,1.013088,2.100000,2.660000,-0.420000
39.131333,-0.042456,0.234240,0.932568,4.900000,1.540000,-1.540000
39.139420,-0.057096,0.260592,0.850584,3.640000,0.420000,0.000000
39.147507,0.014152,0.275232,0.987712,3.640000,-2.240000,-0.280000
39.155594,0.010736,0.286456,1.020896,1.680000,0.140000,-0.840000
39.163681,-0.025864,0.247416,1.008696,-0.420000,2.380000,-0.980000
39.171768,-0.090280,0.237168,0.904264,0.280000,2.240000,-1.680000
39.179855,-0.057584,0.213744,0.878888,2.240000,-0.700000,0.280000
39.187942,0.079056,0.296704,1.065792,1.820000,-3.220000,-0.840000
39.196029,-0.032696,0.269376,1.057008,-0.420000,2.100000,-0.840000
39.204116,-0.050264,0.231800,0.930616,-0.700000,3.360000,-1.540000
39.212203,-0.068320,0.222528,0.888160,0.700000,0.280000,-0.700000
39.220290,0.003904,0.262056,1.015528,2.380000,-1.820000,0.140000
39.228377,0.010736,0.257664,1.111176,1.960000,0.700000,-1.400000
39.236464,-0.044408,0.217160,0.947208,1.540000,3.360000,-0.980000
39.244551,-0.074664,0.265472,0.929152,3.360000,0.840000,-0.700000
39.252638,-0.024888,0.235216,0.885720,3.080000,-1.540000,-0.560000
39.260725,0.061000,0.284504,1.025776,1.540000,-1.820000,-0.280000
39.268813,-0.055632,0.277672,1.083360,0.140000,3.920000,-1.400000
39.276900,-0.079544,0.223992,0.915976,1.540000,2.100000,-0.840000
39.284987,-0.069784,0.220088,0.858392,2.520000,-0.840000,-0.840000
39.293074,0.071736,0.263520,0.990640,2.240000,-2.240000,0.140000
39.301161,-0.025376,0.295728,1.135576,2.240000,0.560000,-1.120000
39.309248,-0.063440,0.236680,0.967216,0.840000,3.920000,-1.540000
39.317335,-0.053192,0.213744,0.827160,1.400000,0.980000,-0.840000
39.325422,-0.029280,0.262544,0.982344,2.380000,-2.100000,0.000000
39.333509,0.041968,0.275720,1.124352,2.240000,-0.840000,-0.560000
39.341596,-0.051728,0.271816,0.955504,1.260000,3.640000,-1.400000
39.349683,-0.063928,0.221064,0.846192,0.280000,2.240000,-1.540000
39.357770,-0.032208,0.238144,0.968680,1.540000,-1.540000,0.000000
39.365857,0.019520,0.272304,1.055056,2.240000,-2.660000,-0.280000
39.373944,-0.001952,0.262544,1.040904,0.980000,2.100000,-1.260000
39.382031,-0.063928,0.231800,0.892552,0.560000,3.920000,-1.260000
39.390118,-0.088816,0.243024,0.918416,2.100000,0.140000,-0.980000
39.398205,0.020496,0.255224,1.031632,3.220000,-2.660000,0.140000
39.406292,0.014152,0.255224,1.048224,2.940000,0.560000,-0.840000
39.414379,-0.042944,0.229360,0.971608,1.680000,3.500000,-1.540000
39.422466,-0.089304,0.248880,0.913048,3.780000,1.260000,-0.840000
39.430553,-0.030744,0.280112,0.915488,4.340000,-1.820000,0.420000
39.438640,0.061488,0.265472,0.999912,2.240000,-1.820000,-0.840000
39.446727,-0.008784,0.273768,1.078968,1.540000,1.820000,-1.120000
39.454814,-0.110288,0.264496,0.922808,0.700000,4.060000,-1.260000
39.462901,-0.048312,0.213744,0.837896,0.980000,-0.420000,-0.420000
39.470988,0.077592,0.254248,1.039928,2.520000,-3.360000,-0.420000
39.479075,-0.036112,0.294264,1.117032,1.680000,2.240000,-0.840000
39.487162,-0.076128,0.234240,0.924272,0.840000,2.660000,-1.540000
39.495249,-0.059536,0.213744,0.873032,2.380000,1.260000,-0.140000
39.503336,0.050264,0.279136,1.006256,2.940000,-2.520000,0.000000
39.511424,-0.035624,0.290848,1.082872,2.520000,0.560000,-1.400000
39.519511,-0.059536,0.238144,0.903776,0.840000,4.060000,-0.980000
39.527598,-0.046848,0.228384,0.913048,1.400000,0.280000,-0.840000
39.535685,-0.011224,0.238632,0.987712,3.360000,-2.100000,0.280000
39.543772,0.041968,0.322568,1.045296,2.660000,-0.420000,-1.120000
39.551859,-0.106384,0.239120,0.965752,-0.280000,4.340000,-1.400000
39.559946,-0.018056,0.206424,0.914024,1.820000,0.280000,-0.420000
39.568033,0.009760,0.249368,1.029680,5.180000,-2.520000,0.140000
39.576120,-0.004880,0.303536,1.021384,4.760000,0.280000,-1.260000
39.584207,-0.056608,0.292800,0.918416,0.420000,3.220000,-1.120000
39.592294,-0.054168,0.207400,0.912560,0.420000,0.840000,-0.700000
39.600381,0.009760,0.266448,0.998448,3.220000,-1.960000,-0.280000
39.608468,0.015616,0.284016,1.035536,2.800000,-0.980000,-0.700000
39.616555,-0.071736,0.275720,0.985760,0.700000,3.360000,-1.400000
39.624642,-0.062464,0.202520,0.932080,1.260000,1.960000,-0.840000
39.632729,-0.006344,0.227408,0.988200,4.340000,-1.260000,-0.280000
39.640816,0.008296,0.276696,1.015528,5.040000,-0.420000,-0.420000
39.648903,-0.032696,0.296216,0.989176,3.360000,1.260000,-1.400000
39.656990,-0.077104,0.226432,0.911096,1.260000,2.660000,-0.420000
39.665077,-0.012688,0.254248,0.962336,3.500000,-0.700000,-0.840000
39.673164,-0.040016,0.290848,0.961848,3.500000,-0.840000,-0.280000
39.681251,0.018056,0.261080,0.971608,1.260000,0.420000,-0.840000
39.689338,-0.040016,0.281576,0.987224,-0.420000,2.100000,-1.400000
39.697425,-0.087840,0.232288,0.914512,0.280000,1.120000,-0.560000
39.705512,0.026840,0.243512,0.976488,1.680000,-1.120000,-0.560000
39.713599,0.011712,0.262056,1.091656,2.380000,0.420000,-0.980000
39.721686,-0.042944,0.283040,0.932080,1.400000,2.520000,-1.260000
39.729773,-0.084912,0.258640,0.928176,1.120000,1.680000,-0.840000
39.737860,-0.005856,0.233264,0.914024,1.960000,-1.820000,0.000000
39.745947,0.013664,0.270352,1.045784,2.240000,-0.280000,-0.980000
39.754034,-0.025864,0.297192,1.014064,0.840000,2.100000,-0.980000
39.762122,-0.072224,0.241560,0.956480,0.700000,1.400000,-0.980000
39.770209,-0.034160,0.230824,0.907192,1.680000,0.140000,-0.420000
39.778296,0.031232,0.269864,1.014064,3.640000,-1.820000,-0.560000
39.786383,-0.027816,0.268888,1.035536,1.120000,2.240000,-1.120000
39.794470,-0.061488,0.275232,0.928664,1.400000,1.820000,-0.840000
39.802557,-0.052704,0.254736,0.908168,0.420000,0.700000,-0.840000
39.810644,-0.012200,0.240584,0.931592,1.960000,-0.980000,-0.280000
39.818731,0.011712,0.304024,1.059448,0.840000,-0.280000,-0.980000
39.826818,-0.060512,0.239120,1.007720,-0.840000,2.520000,-1.120000
39.834905,-0.020984,0.216672,0.944280,2.240000,0.700000,-0.840000
39.842992,-0.022936,0.287920,0.914512,3.920000,-1.540000,0.000000
39.851079,0.003904,0.313296,1.019920,0.420000,0.000000,-0.840000
39.859166,-0.012688,0.258640,1.001864,-1.820000,2.660000,-1.540000
39.867253,-0.093208,0.200080,0.896456,0.840000,1.680000,-0.840000
39.875340,0.003904,0.256688,1.000400,2.940000,-2.240000,-0.280000
39.883427,-0.001464,0.308904,1.023336,2.100000,-0.560000,-0.560000
39.891514,-0.039040,0.249856,0.977464,-0.840000,3.920000,-1.960000
39.899601,-0.067832,0.238144,0.925248,1.820000,0.420000,0.000000
39.907688,-0.006832,0.254736,0.929640,2.520000,-1.820000,-0.420000
39.915775,0.027816,0.308904,1.049200,-0.280000,1.260000,-1.680000
39.923862,-0.057584,0.223992,0.957944,-0.280000,3.080000,-0.700000
39.931949,-0.074176,0.235704,0.905240,2.660000,-0.560000,-0.560000
39.940036,0.035624,0.314760,1.068232,2.940000,-1.820000,-0.420000
39.948123,-0.035136,0.233264,1.064328,1.960000,1.820000,-0.700000
39.956210,-0.054656,0.246928,0.883280,2.240000,2.520000,-1.680000
39.964297,-0.036112,0.290360,0.872544,2.380000,-0.140000,-0.420000
39.972384,-0.006832,0.264496,0.985272,1.260000,-1.540000,-0.420000
39.980471,0.017568,0.291336,1.098976,0.280000,0.420000,-0.840000
39.988558,-0.069296,0.227896,0.956480,0.420000,3.220000,-1.260000
39.996645,-0.044408,0.223504,0.861320,2.380000,0.700000,-0.700000
40.004733,-0.003416,0.293776,0.979904,3.780000,-2.520000,0.140000
40.012820,0.010248,0.316224,1.075552,0.280000,0.420000,-1.400000
40.020907,-0.054168,0.248392,0.954040,-1.120000,3.080000,-1.260000
40.028994,-0.073688,0.203496,0.835456,0.280000,1.120000,-0.560000
40.037081,0.015616,0.255224,1.045296,2.380000,-2.100000,-0.140000
40.045168,0.021472,0.301096,1.084336,2.240000,0.280000,-0.840000
40.053255,-0.088328,0.252784,0.948672,0.980000,3.360000,-1.540000
40.061342,-0.069296,0.239120,0.839360,2.380000,-0.140000,-0.140000
40.069429,0.044896,0.285968,0.974048,2.240000,-2.520000,-0.420000
40.077516,0.026352,0.298656,1.082384,0.000000,1.120000,-1.260000
40.085603,-0.087840,0.253272,0.967216,-0.420000,4.200000,-1.400000
40.093690,-0.096136,0.199592,0.870592,1.960000,0.140000,-0.280000
40.101777,0.073200,0.302072,1.023824,3.360000,-3.920000,-0.140000
40.109864,-0.015128,0.284016,1.055056,1.120000,2.660000,-0.840000
40.117951,-0.075640,0.248392,0.956968,-0.280000,3.640000,-1.960000
40.126038,-0.076616,0.217648,0.888160,2.800000,-0.280000,-0.280000
40.134125,0.046360,0.316224,0.993080,3.220000,-2.940000,0.000000
40.142212,-0.005856,0.283528,1.029680,-0.140000,1.400000,-1.400000
40.150299,-0.056120,0.240096,0.935008,-0.700000,3.500000,-1.400000
40.158386,-0.056608,0.235704,0.927688,0.980000,0.980000,-0.840000
40.166473,0.010248,0.256200,1.031632,3.080000,-2.380000,0.420000
40.174560,0.012200,0.312808,1.063352,2.660000,-0.420000,-1.120000
40.182647,-0.093208,0.246440,0.819840,-0.280000,4.340000,-1.540000
40.190734,-0.005368,0.255712,0.920856,0.700000,-0.980000,-0.700000
40.198821,-0.007808,0.271328,1.115080,2.100000,-1.960000,-0.280000
40.206908,-0.012200,0.270352,1.037976,2.100000,1.540000,-0.700000
40.214995,-0.090280,0.233752,0.840336,0.700000,3.780000,-1.540000
40.223082,-0.002928,0.245952,0.896944,1.960000,-1.540000,0.140000
40.231169,0.031720,0.310368,1.081408,2.660000,-2.380000,-0.420000
40.239256,-0.046360,0.294264,1.004792,0.420000,2.940000,-1.400000
40.247344,-0.072712,0.240584,0.875960,-0.140000,2.940000,-1.260000
40.255431,-0.032208,0.209840,0.929152,0.980000,-1.260000,-0.140000
40.263518,0.051728,0.306952,1.120448,3.220000,-1.960000,-0.420000
40.271605,-0.067832,0.281088,0.982832,0.700000,3.640000,-1.820000
40.279692,-0.095648,0.226920,0.854488,-0.140000,2.380000,-0.980000
40.287779,0.030256,0.232776,0.969656,2.520000,-2.520000,0.000000
40.295866,0.012200,0.301096,1.067744,3.080000,-0.840000,-0.420000
40.303953,-0.031232,0.294264,0.972096,0.560000,3.640000,-2.100000
40.312040,-0.111264,0.249856,0.869128,-0.280000,1.680000,-0.420000
40.320127,-0.005856,0.217648,0.960872,1.820000,-1.680000,-0.140000
40.328214,0.039040,0.277184,1.094584,2.520000,-0.280000,-0.700000
40.336301,-0.044408,0.270352,0.962824,2.380000,2.520000,-1.540000
40.344388,-0.073688,0.292312,0.897920,0.560000,1.820000,-1.260000
40.352475,-0.032696,0.253272,0.889624,0.980000,-1.540000,0.280000
40.360562,0.073200,0.293776,1.045784,0.420000,-1.960000,-0.840000
40.368649,-0.054656,0.282552,1.063352,0.280000,2.800000,-0.980000
40.376736,-0.096136,0.223992,0.887184,0.560000,2.520000,-1.260000
40.384823,0.005856,0.263520,0.928176,1.680000,-2.100000,-0.420000
40.392910,0.011712,0.281088,1.058472,1.400000,-0.700000,-0.280000
40.400997,-0.042944,0.262544,1.038464,0.280000,3.360000,-1.820000
40.409084,-0.058072,0.237168,0.847168,1.680000,1.400000,-0.840000
40.417171,-0.024400,0.269864,0.948184,1.260000,-1.400000,-0.420000
40.425258,0.021472,0.291824,1.067744,1.540000,-0.420000,-0.420000
40.433345,-0.056120,0.261568,1.015040,0.840000,2.940000,-1.260000
40.441432,-0.083936,0.216672,0.830088,1.260000,1.960000,-0.980000
40.449519,0.037576,0.285968,0.964776,2.240000,-2.800000,-0.420000
40.457606,-0.009760,0.305976,1.080432,0.560000,0.000000,-0.560000
40.465693,-0.038064,0.253272,1.020896,0.840000,3.220000,-1.820000
40.473780,-0.088328,0.210328,0.857416,1.400000,1.680000,-0.280000
40.481867,0.037088,0.294264,0.925736,2.800000,-2.660000,-0.420000
40.489954,0.003416,0.311832,1.053104,1.540000,-0.280000,-0.840000
40.498042,-0.096136,0.246928,1.030656,-0.140000,4.480000,-1.120000
40.506129,-0.027816,0.233264,0.853024,1.260000,0.000000,-0.840000
40.514216,-0.003416,0.253272,0.974048,2.380000,-1.820000,-0.420000
40.522303,0.001464,0.301096,1.059936,2.100000,0.700000,-0.420000
40.530390,-0.045384,0.289384,0.958920,0.280000,2.240000,-1.820000
40.538477,-0.074664,0.204960,0.933544,0.420000,2.240000,-0.280000
40.546564,0.020496,0.258640,0.971120,4.480000,-2.520000,-0.420000
40.554651,-0.024888,0.306464,1.027728,2.100000,0.700000,-1.120000
40.562738,-0.034648,0.247904,0.959408,0.420000,2.660000,-1.120000
40.570825,-0.055632,0.251808,0.931592,2.380000,0.980000,-0.840000
40.578912,-0.001952,0.284504,0.976976,3.220000,-2.240000,-0.140000
40.586999,-0.004880,0.308416,0.976000,0.700000,0.840000,-0.980000
40.595086,-0.043920,0.264496,0.963800,-2.380000,2.520000,-1.400000
40.603173,-0.040992,0.189832,0.940864,0.560000,0.420000,-0.140000
40.611260,0.013664,0.321104,0.959896,3.500000,-1.820000,-0.560000
40.619347,-0.030744,0.295728,1.039440,0.980000,0.840000,-0.840000
40.627434,-0.059048,0.239120,0.995032,-1.120000,2.800000,-1.260000
40.635521,0.003416,0.249856,0.844728,1.400000,-0.420000,-0.980000
40.643608,-0.024888,0.278648,0.976976,1.400000,-0.700000,0.000000
40.651695,0.002440,0.307928,1.093120,0.280000,-0.140000,-1.400000
40.659782,-0.087352,0.246928,0.964776,-1.820000,3.500000,-0.840000
40.667869,-0.041968,0.204472,0.895480,1.960000,0.420000,-0.560000
40.675956,0.018056,0.325984,0.959896,2.380000,-2.240000,-0.700000
40.684043,-0.002928,0.271328,0.996496,-2.800000,2.520000,-1.120000
40.692130,-0.037576,0.248880,0.980880,-1.400000,2.240000,-1.260000
40.700217,-0.062464,0.230824,0.910120,2.100000,-1.120000,-0.280000
40.708304,0.013664,0.332816,1.054568,1.260000,-0.280000,-0.560000
40.716391,-0.050264,0.246440,1.044320,-0.420000,1.820000,-1.120000
40.724478,-0.060024,0.228872,0.873520,1.120000,2.100000,-1.120000
40.732565,-0.007320,0.282064,0.874496,1.260000,-0.420000,-0.560000
40.740652,-0.005368,0.272792,1.030656,-0.280000,-1.820000,-0.560000
40.748739,-0.015616,0.292800,1.129232,-0.420000,1.960000,-0.980000
40.756827,-0.061488,0.219600,0.915000,1.120000,2.520000,-0.840000
40.764914,-0.055632,0.261080,0.818864,1.960000,-0.420000,-0.560000
40.773001,0.046848,0.300608,0.998448,-0.140000,-1.260000,-0.840000
40.781088,-0.012200,0.292312,1.107760,-1.820000,1.680000,-1.260000
40.789175,-0.083936,0.197640,0.950624,-0.140000,3.640000,-1.260000
40.797262,-0.061488,0.243024,0.874008,3.920000,-1.120000,0.000000
40.805349,0.050752,0.304024,0.967216,1.120000,-1.820000,-0.840000
40.813436,-0.000976,0.285480,1.098000,-0.420000,0.980000,-0.700000
40.821523,-0.098088,0.246928,0.965264,0.000000,3.080000,-1.400000
40.829610,-0.043920,0.247904,0.833992,1.120000,0.840000,-0.840000
40.837697,0.027328,0.263520,0.957944,1.120000,-1.820000,-0.140000
40.845784,-0.015128,0.306952,1.137040,0.560000,0.420000,-0.980000
40.853871,-0.046360,0.240096,0.965264,0.700000,2.660000,-1.260000
40.861958,-0.067832,0.262544,0.815448,0.420000,1.400000,-1.120000
40.870045,0.011712,0.268400,0.970144,0.000000,-1.960000,-0.280000
40.878132,0.020984,0.309392,1.092144,-0.840000,-1.120000,-0.420000
40.886219,-0.064904,0.259128,0.967216,-2.660000,4.620000,-1.820000
40.894306,-0.063440,0.208864,0.850096,-1.120000,1.820000,-0.840000
40.902393,-0.001952,0.269864,1.009672,1.680000,-3.640000,-0.140000
40.910480,0.029768,0.315248,1.074088,-0.420000,1.400000,-1.120000
40.918567,-0.066856,0.244488,0.939400,-2.660000,3.780000,-1.540000
40.926654,-0.088816,0.229360,0.860832,-0.980000,0.700000,-0.980000
40.934741,0.027816,0.253760,1.001376,0.980000,-2.520000,0.140000
40.942828,0.008784,0.298656,1.120936,0.840000,-0.140000,-0.700000
40.950915,-0.055144,0.253272,0.980392,0.140000,3.500000,-1.400000
40.959002,-0.052216,0.259616,0.826672,0.140000,1.540000,-1.400000
40.967089,-0.053680,0.264008,0.881816,-1.400000,-0.280000,-0.140000
40.975176,0.031232,0.269376,1.088728,-1.120000,-2.100000,-0.140000
40.983263,-0.002928,0.275232,1.075064,-1.120000,1.120000,-1.120000
40.991350,-0.047824,0.243024,0.843264,-2.520000,3.640000,-1.960000
40.999437,-0.074664,0.272792,0.934520,-1.120000,-0.280000,-0.280000
41.007525,-0.010248,0.266448,0.961848,-0.840000,-1.960000,0.140000
41.015612,0.065880,0.272792,1.055056,-2.240000,-0.140000,-1.540000
41.023699,-0.090280,0.261568,1.041880,-2.660000,3.920000,-1.260000
41.031786,-0.083936,0.209352,0.867176,-0.840000,1.680000,-1.400000
41.039873,0.004392,0.258152,0.931592,0.140000,-2.240000,0.140000
41.047960,0.031232,0.288896,1.062376,-0.280000,-0.980000,-0.560000
41.056047,-0.036600,0.258640,1.064816,-0.420000,1.960000,-1.120000
41.064134,-0.052216,0.224480,0.904264,-0.420000,3.220000,-1.540000
41.072221,-0.073688,0.270352,0.937936,0.840000,0.140000,-0.560000
41.080308,-0.006832,0.237168,0.915488,1.820000,-2.240000,0.000000
41.088395,0.059536,0.294752,1.061400,-0.280000,-0.560000,-0.840000
41.096482,-0.053192,0.276208,1.030656,-0.980000,2.940000,-1.120000
41.104569,-0.079544,0.240096,0.881816,-1.680000,2.380000,-1.120000
41.112656,-0.051240,0.261080,0.939888,-0.420000,0.140000,-0.560000
41.120743,0.010736,0.264984,0.950136,-0.140000,-1.540000,-0.280000
41.128830,0.038552,0.271328,1.038464,-1.540000,-0.700000,-0.840000
41.136917,-0.045384,0.274256,1.045296,-2.100000,3.500000,-1.680000
41.145004,-0.089792,0.231800,0.894504,-1.540000,2.380000,-1.120000
41.153091,-0.007808,0.215696,0.928664,-0.140000,-1.400000,-0.280000
41.161178,0.031720,0.281576,1.055544,0.980000,-1.820000,-0.140000
41.169265,-0.033672,0.280112,1.059448,0.560000,1.680000,-1.260000
41.177352,-0.064416,0.236680,0.907680,-0.980000,3.500000,-1.540000
41.185439,-0.056120,0.243512,0.903776,-0.280000,0.140000,-0.560000
41.193526,0.003904,0.249856,0.973072,0.560000,-1.680000,-0.700000
41.201613,0.006832,0.275720,1.038952,0.420000,-0.420000,0.000000
41.209700,-0.021472,0.282552,1.018944,-0.840000,2.380000,-2.240000
41.217787,-0.091256,0.234240,0.929640,-1.260000,2.660000,-0.420000
41.225874,-0.007320,0.211792,0.894504,0.000000,0.000000,-1.120000
41.233961,-0.009272,0.290360,1.041880,0.560000,-1.400000,-0.140000
41.242048,-0.002928,0.257176,1.004792,1.120000,0.420000,-0.840000
41.250135,-0.027328,0.274744,0.970632,-1.820000,2.660000,-1.680000
41.258222,-0.095160,0.217648,0.936960,-0.280000,1.680000,-0.420000
41.266309,-0.020008,0.263520,0.928664,0.280000,-0.980000,-0.420000
41.274397,0.039528,0.264008,1.031144,0.140000,-0.980000,0.140000
41.282484,-0.043920,0.249856,1.025288,-0.140000,1.960000,-1.260000
41.290571,-0.040016,0.254736,0.936960,-1.120000,1.960000,-0.840000
41.298658,-0.077592,0.249368,0.931592,0.560000,0.560000,-0.560000
41.306745,0.026840,0.218136,0.941840,1.260000,-1.260000,-0.560000
41.314832,0.026352,0.315248,1.056520,1.960000,-0.980000,-0.700000
41.322919,-0.082960,0.262056,1.003816,-1.120000,2.940000,-1.400000
41.331006,-0.029768,0.229848,0.935496,-1.260000,2.100000,-0.980000
41.339093,-0.068808,0.227408,0.941840,0.140000,0.560000,-0.560000
41.347180,0.041480,0.230336,0.980392,2.240000,-2.380000,-0.420000
41.355267,-0.024400,0.307440,1.004304,2.240000,0.560000,-0.840000
41.363354,-0.039040,0.289872,0.996008,-0.840000,1.680000,-0.980000
41.371441,-0.035136,0.223016,0.980880,-1.960000,2.240000,-1.540000
41.379528,-0.040504,0.203496,0.890112,1.260000,0.140000,-0.140000
41.387615,-0.007808,0.286456,1.011136,3.080000,-1.400000,-0.980000
41.395702,-0.006832,0.282552,0.998448,0.840000,0.140000,-0.280000
41.403789,-0.043432,0.238144,1.018456,-0.840000,2.660000,-1.680000
41.411876,-0.055144,0.234728,0.982344,0.700000,0.840000,-0.420000
41.419963,-0.033184,0.236680,0.888648,2.660000,-0.420000,-0.560000
41.428050,0.013664,0.258640,0.960872,1.400000,0.420000,-0.700000
41.436137,-0.020984,0.285968,1.038464,1.540000,-0.840000,-0.420000
41.444224,-0.036112,0.247416,1.037976,0.000000,2.520000,-1.400000
41.452311,-0.038064,0.217160,0.891088,1.540000,1.820000,-0.420000
41.460398,-0.051728,0.268400,0.954528,2.940000,-0.420000,-0.980000
41.468485,0.002928,0.270840,0.962824,1.680000,-1.400000,0.000000
41.476572,0.001952,0.281088,1.061888,0.980000,1.400000,-0.980000
41.484659,-0.051728,0.242048,0.990152,-0.700000,2.940000,-1.260000
41.492746,-0.062952,0.218136,0.869128,1.260000,1.120000,-0.980000
41.500833,-0.014640,0.255224,0.934520,2.100000,-1.120000,-0.280000
41.508920,0.016104,0.292800,1.065792,1.400000,-2.100000,-0.420000
41.517007,-0.029768,0.256688,1.033584,0.280000,2.800000,-1.120000
41.525094,-0.045872,0.240096,0.925736,0.280000,2.100000,-1.400000
41.533181,-0.069296,0.224480,0.894504,1.400000,0.000000,-0.420000
41.541268,0.002440,0.272304,1.003816,2.660000,-1.680000,-0.420000
41.549355,0.007808,0.276696,1.040416,1.260000,-0.140000,-0.700000
41.557442,-0.017568,0.243512,1.003816,-0.140000,2.940000,-1.400000
41.565530,-0.096136,0.235704,0.950624,1.400000,2.100000,-1.120000
41.573617,-0.030256,0.254248,0.840336,2.520000,-0.980000,-0.280000
41.581704,0.011712,0.272792,1.001376,1.680000,-1.820000,-0.280000
41.589791,0.027328,0.286944,1.093120,0.420000,-0.140000,-0.700000
41.597878,-0.058560,0.255224,0.961360,-0.560000,3.640000,-1.680000
41.605965,-0.077104,0.244488,0.901336,-1.120000,2.380000,-0.980000
41.614052,-0.046360,0.253760,0.863760,-0.560000,-1.260000,-0.840000
41.622139,0.038064,0.253272,0.981856,-0.840000,-1.820000,0.280000
41.630226,0.027328,0.298656,1.112152,-2.100000,0.140000,-1.540000
41.638313,-0.102480,0.233264,1.001376,-2.800000,4.760000,-1.400000
41.646400,-0.051240,0.217160,0.843264,-0.560000,0.980000,-1.120000
41.654487,-0.018056,0.240096,0.976488,-0.140000,-1.820000,0.000000
41.662574,0.055632,0.276208,1.101904,0.700000,-1.540000,-0.700000
41.670661,-0.036112,0.265472,1.049200,0.000000,2.940000,-1.260000
41.678748,-0.096136,0.226920,0.857904,0.000000,3.500000,-1.260000
41.686835,-0.042456,0.233264,0.968680,0.840000,-0.840000,-0.980000
41.694922,-0.000976,0.249856,0.966240,2.520000,-2.100000,0.700000
41.703009,0.042944,0.284504,0.996984,1.120000,0.000000,-1.400000
41.711096,-0.041480,0.275720,1.053592,-0.840000,2.100000,-0.980000
41.719183,-0.069784,0.223992,0.868640,-0.560000,3.080000,-1.680000
41.727270,-0.064416,0.256200,0.944768,-0.840000,0.280000,-0.280000
41.735357,0.003904,0.230336,0.980880,1.400000,-2.100000,-0.280000
41.743444,0.036112,0.285968,1.054080,1.400000,-0.420000,-0.560000
41.751531,-0.019520,0.265472,1.017480,-0.840000,2.380000,-1.680000
41.759618,-0.116144,0.232776,0.916464,-0.700000,2.940000,-1.120000
41.767705,-0.017568,0.216672,0.897432,0.560000,-0.420000,-0.700000
41.775792,-0.007808,0.283528,0.979416,0.280000,-1.400000,-0.280000
41.783879,0.030744,0.280112,1.015040,-0.840000,-0.140000,-0.840000
41.791966,-0.059536,0.280112,1.015528,-2.800000,3.360000,-1.820000
41.800053,-0.096624,0.205448,0.917928,-2.380000,2.520000,-0.700000
41.808140,0.001952,0.205936,0.933056,0.140000,-2.240000,-0.420000
41.816227,0.060512,0.287432,1.036024,0.700000,-1.680000,-0.280000
41.824314,-0.055144,0.302560,1.055056,-0.980000,3.080000,-1.960000
41.832401,-0.110776,0.206424,0.892064,-2.520000,3.360000,-0.840000
41.840488,0.021472,0.200080,0.894992,-0.420000,-0.560000,-1.120000
41.848576,-0.033672,0.291336,1.084824,1.820000,-2.100000,0.280000
41.856663,0.034160,0.243512,1.005768,0.840000,-0.140000,-0.980000
41.864750,-0.053192,0.249856,1.012600,0.140000,3.220000,-1.400000
41.872837,-0.080520,0.228872,0.949648,1.540000,1.680000,-0.700000
41.880924,-0.031232,0.247416,0.943304,1.540000,-0.140000,-0.840000
41.889011,0.016592,0.244488,0.933544,2.940000,-1.540000,0.280000
41.897098,0.003416,0.280600,1.011136,1.260000,0.280000,-1.400000
41.905185,-0.048312,0.262056,1.007720,-0.840000,1.960000,-0.560000
41.913272,-0.036600,0.239120,0.958432,-0.980000,1.960000,-1.400000
41.921359,-0.074664,0.227408,0.932080,-0.560000,0.840000,-0.700000
41.929446,0.028304,0.220088,0.937448,1.820000,-1.680000,-0.420000
41.937533,-0.011712,0.314760,1.050664,1.540000,-0.560000,-0.560000
41.945620,-0.038064,0.256688,0.988688,-0.840000,2.520000,-1.540000
41.953707,-0.043432,0.237168,0.958432,-1.680000,2.240000,-1.260000
41.961794,-0.063440,0.212280,0.939400,-0.840000,0.700000,-0.420000
41.969881,0.009760,0.249368,0.959896,2.380000,-1.820000,-0.420000
41.977968,0.019520,0.270352,0.975512,0.840000,-0.280000,-0.980000
41.986055,-0.033184,0.288896,1.076040,-2.380000,2.240000,-1.120000
41.994142,-0.099552,0.212768,0.937936,-0.700000,2.100000,-0.700000
42.002229,0.012688,0.207888,0.860832,0.700000,-0.700000,-0.840000
42.010316,0.004392,0.286456,1.056032,1.540000,-0.980000,-0.280000
42.018403,-0.043920,0.264984,1.042368,1.260000,0.560000,-0.980000
42.026490,-0.006832,0.228872,0.984296,-0.840000,2.660000,-1.260000
42.034577,-0.073688,0.228872,0.968192,1.120000,1.120000,-0.840000
42.042664,-0.049776,0.224480,0.917928,2.240000,0.140000,-0.560000
42.050751,-0.003416,0.295240,0.986248,3.780000,-0.840000,-0.280000
42.058838,0.002440,0.228872,1.000888,0.700000,0.000000,-0.980000
42.066925,-0.013176,0.253760,1.054568,0.420000,1.540000,-0.840000
42.075012,-0.063928,0.223016,0.933056,1.680000,2.380000,-1.540000
42.083099,-0.060512,0.244000,0.908168,2.100000,0.140000,-0.280000
42.091186,0.020008,0.263032,0.970632,2.940000,-2.240000,-0.840000
42.099273,-0.013664,0.268888,1.033584,2.240000,0.140000,-0.140000
42.107360,0.003416,0.258640,1.040904,0.420000,2.100000,-1.680000
42.115447,-0.091744,0.213744,0.933056,2.380000,2.240000,-0.700000
42.123534,-0.034160,0.232776,0.910120,3.220000,-0.280000,-0.700000
42.131621,-0.019520,0.288408,0.941840,2.800000,-1.540000,0.000000
42.139709,0.037088,0.255224,1.022848,0.700000,0.000000,-0.980000
42.147796,-0.039528,0.277184,1.086776,-0.840000,2.520000,-1.120000
42.155883,-0.061488,0.192760,0.897432,1.400000,2.240000,-1.260000
42.163970,-0.063928,0.252784,0.870592,2.520000,0.000000,-0.280000
42.172057,0.011224,0.284016,1.043832,2.380000,-1.400000,-0.560000
42.180144,0.005368,0.256200,0.979416,-0.280000,-0.700000,-0.560000
42.188231,-0.009272,0.245464,1.008696,-1.680000,3.080000,-1.400000
42.196318,-0.086864,0.251808,0.955992,0.700000,1.820000,-1.120000
42.204405,-0.044896,0.223504,0.850096,1.820000,-0.840000,-0.140000
42.212492,0.031232,0.299144,1.048224,-0.280000,-1.120000,-0.980000
42.220579,-0.027328,0.244000,1.107760,-0.700000,1.120000,-0.420000
42.228666,-0.040504,0.184952,0.887672,0.420000,3.080000,-1.680000
42.236753,-0.049776,0.266936,0.919392,2.380000,0.700000,-0.700000
42.244840,-0.062464,0.270352,0.981368,2.240000,-1.400000,-0.140000
42.252927,0.037576,0.229848,1.016992,0.000000,-0.280000,-0.560000
42.261014,0.025376,0.244488,1.085312,1.120000,1.400000,-1.400000
42.269101,-0.136152,0.251320,0.896944,1.820000,3.360000,-0.980000
42.277188,-0.016592,0.243512,0.886208,1.960000,-0.840000,-0.980000
42.285275,-0.020984,0.260104,0.993080,2.660000,-1.260000,0.420000
42.293362,0.052704,0.273768,1.070184,1.540000,-0.980000,-1.120000
42.301449,-0.027816,0.247904,0.997960,0.000000,2.800000,-1.120000
42.309536,-0.092720,0.215696,0.882792,1.540000,2.380000,-1.260000
42.317623,-0.038064,0.261080,0.934520,2.240000,-1.820000,-0.420000
42.325710,0.040992,0.274744,1.028704,1.540000,-2.240000,0.280000
42.333797,-0.004880,0.267424,1.066280,0.000000,2.520000,-1.680000
42.341884,-0.093208,0.228384,0.947696,0.000000,3.080000,-1.120000
42.349971,-0.068808,0.220088,0.854976,1.260000,0.420000,-0.840000
42.358058,0.036112,0.284504,0.950136,1.820000,-2.800000,0.280000
42.366145,0.012688,0.298656,1.119472,-0.420000,-0.140000,-1.120000
42.374232,-0.059048,0.237656,0.963800,-2.520000,4.620000,-1.540000
42.382319,-0.057584,0.182024,0.831552,0.000000,1.680000,-1.120000
42.390406,-0.034160,0.268400,1.052128,1.400000,-2.240000,-0.840000
42.398493,0.029280,0.266936,1.129232,1.960000,-1.260000,0.140000
42.406580,-0.034160,0.214232,0.954040,1.680000,3.220000,-1.540000
42.414667,-0.069296,0.256200,0.857416,2.100000,2.240000,-1.120000
42.422754,-0.061000,0.269864,0.960384,2.240000,-0.980000,-0.420000
42.430842,0.028304,0.229848,0.994544,1.680000,-2.100000,-0.140000
42.438929,0.034160,0.268888,1.062376,1.960000,0.280000,-1.120000
42.447016,-0.090280,0.286456,0.971608,0.000000,4.200000,-1.680000
42.455103,-0.089304,0.202520,0.858392,0.980000,0.980000,-0.420000
42.463190,0.016104,0.242048,0.944280,2.240000,-1.820000,-0.280000
42.471277,0.042944,0.258640,1.110688,1.680000,-1.260000,-0.980000
42.479364,-0.043432,0.272304,1.016504,0.980000,3.220000,-0.980000
42.487451,-0.101504,0.215208,0.886696,2.240000,2.660000,-1.400000
42.495538,-0.017080,0.256200,0.908168,2.660000,-1.820000,0.140000
42.503625,0.014640,0.282064,1.037488,2.940000,-1.680000,-0.560000
42.511712,0.013664,0.262544,1.053104,0.840000,1.400000,-0.560000
42.519799,-0.071736,0.224480,0.952088,1.260000,3.220000,-1.960000
42.527886,-0.095648,0.253272,0.919880,2.660000,0.700000,-0.420000
42.535973,0.016592,0.242536,0.905728,2.800000,-2.380000,-0.140000
42.544060,0.041480,0.266936,1.075064,1.680000,-0.840000,-0.700000
42.552147,-0.019520,0.284016,1.049200,0.980000,2.520000,-1.120000
42.560234,-0.125416,0.216672,0.877424,0.980000,3.780000,-1.260000
42.568321,0.001464,0.232288,0.899384,2.100000,-1.400000,-0.560000
42.576408,-0.003416,0.279624,1.048224,2.940000,-2.240000,0.140000
42.584495,0.013664,0.256688,1.033584,1.680000,0.980000,-1.260000
42.592582,-0.058072,0.271328,0.967216,0.000000,2.800000,-1.260000
42.600669,-0.099064,0.222040,0.882304,0.700000,1.960000,-0.700000
42.608756,0.031232,0.245464,0.924272,1.120000,-2.660000,-0.140000
42.616843,0.023424,0.274256,1.076040,1.400000,-0.840000,-0.560000
42.624930,-0.032696,0.284992,1.064816,1.260000,2.940000,-1.680000
42.633017,-0.107848,0.226432,0.861320,0.280000,2.800000,-0.840000
42.641104,-0.008296,0.196664,0.913536,1.260000,-0.420000,-0.700000
42.649191,0.026352,0.306464,1.077504,2.660000,-2.380000,-0.140000
42.657278,-0.040504,0.234240,1.016016,1.820000,1.120000,-0.840000
42.665365,-0.009760,0.261568,0.965264,0.840000,3.080000,-1.820000
42.673452,-0.087352,0.238144,0.914024,2.240000,0.980000,-0.420000
42.681539,-0.026840,0.247904,0.935496,2.660000,-1.820000,-0.280000
42.689626,0.059536,0.281088,1.047248,1.960000,-0.980000,-0.700000
42.697713,-0.062464,0.265960,1.003328,1.120000,2.660000,-0.840000
42.705800,-0.080032,0.247416,0.923296,-0.140000,2.660000,-1.960000
42.713888,-0.010736,0.226920,0.879376,0.700000,-0.840000,0.140000
42.721975,0.007808,0.271328,1.011624,1.680000,-2.100000,-0.280000
42.730062,-0.001952,0.315736,1.058960,-0.420000,0.840000,-1.260000
42.738149,-0.061000,0.234728,0.917440,-1.820000,3.920000,-1.260000
42.746236,-0.083448,0.212280,0.876936,-2.240000,1.540000,-1.260000
42.754323,0.030744,0.247416,1.021872,0.280000,-3.080000,0.280000
42.762410,0.011224,0.281088,1.077504,0.140000,0.420000,-1.400000
42.770497,-0.061000,0.244976,0.996008,-0.840000,4.200000,-1.120000
42.778584,-0.077104,0.218136,0.906216,1.120000,0.700000,-1.260000
42.786671,-0.015616,0.272792,0.924272,1.400000,-1.540000,0.280000
42.794758,0.054168,0.249856,1.019432,0.280000,-0.560000,-0.980000
42.802845,-0.064904,0.258152,1.087752,0.700000,2.240000,-1.260000
42.810932,-0.053192,0.226432,0.906216,1.260000,1.540000,-1.120000
42.819019,-0.038064,0.267912,0.921344,0.560000,0.000000,-0.420000
42.827106,0.008784,0.240584,0.951600,2.100000,-1.540000,-0.140000
42.835193,0.002928,0.311344,1.050176,0.840000,0.000000,-0.980000
42.843280,-0.054656,0.240584,0.972096,-1.260000,2.940000,-1.260000
42.851367,-0.061000,0.226920,0.918416,-1.680000,2.240000,-1.260000
42.859454,-0.023912,0.239608,0.939400,0.280000,-1.260000,0.000000
42.867541,0.024888,0.278160,1.001376,0.140000,-1.540000,-0.980000
42.875628,-0.028304,0.264008,1.042856,-0.840000,2.240000,-0.980000
42.883715,-0.058560,0.213744,0.986736,-0.560000,2.520000,-1.540000
42.891802,-0.046360,0.220576,0.980392,1.820000,-0.140000,-0.420000
42.899889,0.011224,0.249368,0.959896,4.340000,-1.680000,0.000000
42.907976,-0.007320,0.291336,0.997472,2.380000,1.120000,-1.540000
42.916063,-0.038552,0.261080,1.014064,0.420000,1.960000,-0.700000
42.924150,-0.068808,0.223016,0.943792,0.980000,1.820000,-1.400000
42.932237,-0.024888,0.238632,0.894504,1.540000,0.280000,-0.280000
42.940324,0.004392,0.281088,0.993080,2.520000,-1.820000,-0.840000
42.948411,-0.022448,0.265472,1.014552,0.840000,0.980000,-0.420000
42.956498,-0.022448,0.270352,1.005280,-0.700000,1.540000,-1.260000
42.964585,-0.070272,0.215208,0.909144,-0.980000,2.380000,-1.120000
42.972672,-0.018056,0.230824,0.915976,2.100000,-1.540000,-0.280000
42.980759,-0.011712,0.310368,0.970144,0.980000,-1.260000,-0.560000
42.988846,0.006344,0.267424,1.036512,-1.960000,0.420000,-0.700000
42.996934,-0.055144,0.237168,1.013576,-2.520000,3.780000,-1.820000
43.005021,-0.056608,0.213744,0.904752,-0.700000,0.140000,-0.280000
43.013108,-0.017080,0.220576,0.946232,1.820000,-1.400000,-0.700000
43.021195,0.043432,0.311832,1.089704,0.280000,-0.840000,-0.420000
43.029282,-0.047824,0.251808,1.016016,-0.840000,2.660000,-1.260000
43.037369,-0.069784,0.244000,0.881816,-0.700000,2.240000,-1.120000
43.045456,-0.019520,0.221552,0.853024,0.420000,-0.280000,-0.700000
43.053543,-0.030256,0.305976,1.071160,-0.420000,-1.680000,-0.280000
43.061630,0.023424,0.236680,1.081896,-1.540000,0.840000,-1.120000
43.069717,-0.057096,0.207888,0.933056,-0.840000,3.780000,-1.260000
43.077804,-0.064904,0.228384,0.903288,1.260000,0.700000,-1.120000
43.085891,-0.012200,0.286944,1.020408,2.380000,-2.660000,0.280000
43.093978,0.001952,0.255224,1.017968,1.540000,-0.140000,-0.560000
43.102065,0.026840,0.233264,1.005280,-0.980000,2.660000,-2.100000
43.110152,-0.108336,0.236680,0.947696,1.540000,2.380000,-0.560000
43.118239,-0.076128,0.249368,0.912072,1.820000,-0.280000,-0.700000
43.126326,0.037088,0.253272,0.959896,1.820000,-2.240000,0.000000
43.134413,0.016104,0.275720,1.066768,0.700000,0.700000,-0.700000
43.142500,-0.038064,0.259616,1.014064,-0.840000,3.220000,-1.540000
43.150587,-0.090280,0.196664,0.900848,1.120000,1.680000,-0.980000
43.158674,-0.014640,0.242048,0.898896,2.660000,-0.840000,-0.280000
43.166761,0.036600,0.311344,1.061400,1.960000,-1.960000,-0.560000
43.174848,-0.041968,0.223992,1.046272,-0.280000,1.820000,-0.700000
43.182935,-0.026352,0.213744,0.954040,1.540000,3.360000,-1.960000
43.191022,-0.109312,0.280600,0.899872,3.080000,0.420000,-0.140000
43.199109,0.000488,0.235704,0.918416,2.100000,-1.960000,-0.420000
43.207196,0.074176,0.295728,1.056032,1.120000,-1.120000,-0.420000
43.215283,-0.072712,0.254248,1.024312,-0.140000,3.080000,-1.400000
43.223370,-0.060512,0.231800,0.897432,-1.540000,2.800000,-1.680000
43.231457,-0.043432,0.231800,0.912072,0.700000,-0.560000,-0.560000
43.239544,0.003904,0.270840,1.009184,1.260000,-1.960000,0.000000
43.247631,0.021960,0.262544,1.056520,-0.420000,0.700000,-1.540000
43.255718,-0.055144,0.264984,0.961360,-1.260000,3.080000,-0.980000
43.263805,-0.108336,0.200080,0.893040,-0.420000,1.540000,-1.120000
43.271892,0.028304,0.250832,0.915000,0.420000,-2.380000,0.000000
43.279979,0.021472,0.293288,1.060912,0.140000,-1.120000,-0.560000
43.288066,-0.035136,0.255224,1.069696,-1.820000,2.520000,-1.540000
43.296153,-0.071248,0.200080,0.909144,-0.420000,2.800000,-1.120000
43.304240,-0.074664,0.246440,0.942816,0.980000,0.280000,-0.700000
43.312327,0.046848,0.251808,0.972096,1.680000,-2.660000,-0.280000
43.320415,0.015128,0.261568,1.067744,0.560000,0.280000,-0.700000
43.328502,-0.051728,0.260104,1.028704,0.700000,3.080000,-1.120000
43.336589,-0.084912,0.234728,0.882304,1.120000,2.380000,-1.820000
43.344676,-0.038064,0.229360,0.876448,0.700000,-0.840000,0.280000
43.352763,0.041480,0.273768,1.033584,1.120000,-2.100000,-0.980000
43.360850,-0.004880,0.265960,1.057984,0.000000,0.840000,-0.560000
43.368937,-0.049776,0.234240,1.001864,-0.420000,3.500000,-1.820000
43.377024,-0.112240,0.245952,0.881816,0.140000,2.100000,-0.700000
43.385111,0.010248,0.217160,0.931592,1.120000,-1.680000,-0.560000
43.393198,0.020496,0.268888,1.056520,1.400000,-1.120000,-0.140000
43.401285,0.007808,0.253272,1.026264,0.280000,0.840000,-1.120000
43.409372,-0.069784,0.242048,0.963800,0.140000,3.360000,-1.540000
43.417459,-0.103456,0.236192,0.891576,1.680000,0.980000,-0.560000
43.425546,0.030256,0.257664,0.916952,1.820000,-2.800000,0.000000
43.433633,0.012688,0.269376,1.090680,0.560000,-0.280000,-0.560000
43.441720,-0.022448,0.267912,1.047736,0.140000,2.800000,-1.540000
43.449807,-0.101992,0.187392,0.870104,-0.280000,3.220000,-1.260000
43.457894,-0.028304,0.250344,0.936960,2.100000,-0.560000,-0.560000
43.465981,-0.002928,0.263520,1.027240,1.960000,-1.960000,-0.140000
43.474068,0.035624,0.237168,0.979904,0.980000,-0.140000,-0.560000
43.482155,-0.041480,0.286456,1.066280,0.560000,2.800000,-1.820000
43.490242,-0.101016,0.220576,0.876936,0.280000,2.520000,-0.980000
43.498329,-0.019520,0.220088,0.942328,1.540000,-0.700000,-0.420000
43.506416,0.008784,0.269376,1.016992,3.220000,-2.240000,0.000000
43.514503,0.017080,0.278160,1.017968,1.540000,0.560000,-0.840000
43.522590,-0.043432,0.271816,0.988688,-0.560000,2.940000,-1.680000
43.530677,-0.098088,0.214720,0.927200,-0.280000,1.820000,-0.700000
43.538764,-0.005856,0.221552,0.893040,0.980000,-0.840000,-0.840000
43.546851,0.024888,0.268400,1.007720,1.680000,-2.240000,0.000000
43.554938,-0.014152,0.292312,1.036024,0.840000,0.980000,-0.980000
43.563025,-0.042944,0.257664,0.990640,-0.700000,2.520000,-1.540000
43.571112,-0.079544,0.206912,0.928176,-1.680000,2.380000,-1.120000
43.579199,-0.022936,0.216672,0.937936,0.420000,-0.700000,-0.420000
43.587286,0.024400,0.266936,1.008696,1.820000,-1.540000,-0.560000
43.595373,-0.020008,0.284504,1.020896,-0.140000,1.260000,-0.980000
43.603460,-0.056120,0.253272,0.976488,-1.260000,2.800000,-1.400000
43.611547,-0.063440,0.196664,0.926224,-0.840000,1.540000,-0.560000
43.619634,0.006832,0.243024,1.000888,0.980000,-1.400000,-0.840000
43.627721,-0.006832,0.272792,0.978928,2.380000,-0.560000,-0.140000
43.635808,-0.019032,0.251808,0.988688,0.280000,1.400000,-1.260000
43.643895,-0.026840,0.259128,1.013088,-1.120000,1.960000,-1.540000
43.651982,-0.075640,0.227408,0.942816,0.420000,1.260000,-0.560000
43.660070,-0.015616,0.219112,0.899384,1.400000,-0.280000,-0.560000
43.668157,0.024888,0.281576,1.046272,1.540000,-1.400000,-0.420000
43.676244,-0.053680,0.244976,0.997472,0.560000,1.540000,-0.840000
43.684331,-0.030744,0.260592,0.997472,0.000000,1.960000,-1.400000
43.692418,-0.075640,0.190808,0.929152,0.560000,1.120000,-0.560000
43.700505,-0.006344,0.250344,0.934520,2.800000,-0.980000,-0.560000
43.708592,0.011712,0.289384,1.013088,2.240000,-1.260000,-0.840000
43.716679,-0.032696,0.256688,1.022360,0.140000,1.260000,-0.420000
43.724766,-0.023912,0.240584,1.003816,-0.280000,2.240000,-1.960000
43.732853,-0.074176,0.219112,0.874008,0.280000,1.400000,0.000000
43.740940,-0.018544,0.258152,0.938912,1.400000,-0.840000,-0.980000
43.749027,0.019520,0.268888,1.004304,-0.280000,-0.980000,-0.280000
43.757114,-0.002928,0.275232,1.030656,-1.540000,1.680000,-1.260000
43.765201,-0.086376,0.226920,0.952576,-3.080000,3.080000,-1.260000
43.773288,-0.017080,0.213744,0.900848,-0.140000,-0.420000,-0.840000
43.781375,-0.016592,0.285480,0.967216,0.420000,-1.960000,-0.140000
43.789462,0.022936,0.276696,1.068232,-2.660000,0.840000,-1.540000
43.797549,-0.060024,0.246440,1.000888,-3.360000,3.920000,-0.980000
43.805636,-0.078568,0.168848,0.861808,-2.240000,2.380000,-1.540000
43.813723,0.020008,0.259128,1.011624,0.560000,-2.660000,-0.280000
43.821810,-0.018056,0.262056,1.054568,0.700000,-1.120000,0.000000
43.829897,-0.014152,0.263520,1.009184,-1.680000,2.800000,-1.960000
43.837984,-0.063440,0.206424,0.919880,-1.120000,2.100000,-0.700000
43.846071,-0.070272,0.214720,0.935008,0.700000,0.140000,-0.980000
43.854158,0.033184,0.276208,1.021872,1.820000,-1.540000,-0.280000
43.862245,-0.013176,0.248392,1.015528,0.420000,0.000000,-0.560000
43.870332,-0.022448,0.235704,1.009672,-1.260000,2.380000,-1.400000
43.878419,-0.067344,0.231800,0.927200,1.120000,1.540000,-0.840000
43.886506,-0.043432,0.242536,0.903776,1.120000,-0.420000,-0.840000
43.894593,0.010248,0.277184,0.987712,0.420000,-2.100000,-0.140000
43.902680,0.008784,0.256688,1.031632,-1.400000,0.560000,-0.980000
43.910767,-0.039040,0.244488,1.007720,-2.800000,3.360000,-1.400000
43.918854,-0.096624,0.198616,0.923296,-0.140000,1.820000,-0.980000
43.926941,-0.010736,0.226920,0.899872,0.700000,-0.980000,-0.420000
43.935028,0.025864,0.264496,1.057984,0.840000,-1.400000,-0.700000
43.943115,-0.030744,0.265472,1.105320,-0.700000,2.100000,-0.980000
43.951202,-0.063928,0.195200,0.892552,-0.140000,2.240000,-1.120000
43.959289,-0.040992,0.253272,0.907192,0.840000,0.980000,-1.120000
43.967376,-0.015616,0.266448,0.977464,0.980000,-1.680000,-0.420000
43.975463,0.006832,0.228872,1.042856,0.000000,-0.280000,-0.280000
43.983550,-0.002440,0.229848,1.074576,0.140000,2.240000,-1.540000
43.991637,-0.098576,0.230824,0.910608,1.120000,2.520000,-0.980000
43.999724,-0.034160,0.241560,0.890112,1.260000,0.280000,-0.980000
44.007812,-0.013176,0.271328,0.931592,1.120000,-1.820000,-0.280000
44.015899,0.015616,0.246440,1.017480,-1.120000,0.000000,-0.700000
44.023986,-0.000488,0.232776,1.152656,-0.280000,0.980000,-0.980000
44.032073,-0.072224,0.211792,0.931592,1.680000,2.660000,-1.120000
44.040160,-0.061488,0.251808,0.868152,1.540000,0.700000,-0.980000
44.048247,-0.027816,0.237656,0.931104,1.960000,-1.680000,-0.140000
44.056334,0.038064,0.281088,1.012600,0.140000,-1.120000,-0.560000
44.064421,-0.008296,0.257176,1.073112,-1.960000,1.680000,-1.400000
44.072508,-0.081008,0.208864,0.964776,-1.820000,3.920000,-1.400000
44.080595,-0.052704,0.225456,0.877424,0.420000,0.560000,-0.840000
44.088682,-0.015128,0.255224,0.979904,0.840000,-2.100000,-0.280000
44.096769,0.033184,0.228872,1.033584,0.000000,-0.560000,-0.280000
44.104856,-0.003904,0.244976,1.055544,-0.280000,1.960000,-1.540000
44.112943,-0.098576,0.234728,0.969656,0.700000,2.800000,-1.120000
44.121030,-0.037088,0.212280,0.845216,1.400000,0.280000,-0.840000
44.129117,-0.024888,0.280600,1.009184,1.820000,-1.400000,-0.140000
44.137204,0.055632,0.238632,1.067256,0.560000,-1.120000,-0.840000
44.145291,-0.050752,0.238144,1.033096,0.000000,4.060000,-1.260000
44.153378,-0.095160,0.241560,0.877424,0.980000,2.240000,-1.400000
44.161465,-0.034648,0.232288,0.908656,0.280000,-0.420000,-0.420000
44.169552,0.009272,0.251808,0.992592,1.540000,-1.820000,0.000000
44.177639,-0.007808,0.240096,1.021384,-0.280000,0.000000,-0.700000
44.185726,-0.001952,0.254248,1.031632,-0.980000,1.260000,-1.120000
44.193813,-0.084912,0.257176,0.871568,-1.120000,2.520000,-1.540000
44.201900,-0.038064,0.232776,0.924272,-1.400000,0.000000,-0.560000
44.209987,0.004392,0.216184,1.020896,-0.420000,-2.100000,-0.280000
44.218074,0.025864,0.274256,1.052128,-1.120000,0.000000,-0.420000
44.226161,-0.061488,0.240096,1.014552,-1.960000,4.340000,-2.520000
44.234248,-0.098088,0.203984,0.858880,-1.540000,1.960000,-0.420000
44.242335,0.016104,0.211792,0.956968,0.000000,-2.240000,-0.840000
44.250422,0.020984,0.288408,1.111176,0.280000,-1.820000,0.000000
44.258509,-0.030744,0.231800,1.001864,-0.420000,2.660000,-1.120000
44.266596,-0.059536,0.226920,0.942328,-0.980000,3.220000,-1.680000
44.274683,-0.070760,0.226432,0.930616,0.420000,0.000000,-0.280000
44.282770,0.006344,0.216184,0.948184,1.260000,-1.120000,-0.700000
44.290857,0.061488,0.252296,1.058960,0.700000,-0.840000,-0.560000
44.298944,-0.070272,0.270352,1.060912,1.400000,2.800000,-1.540000
44.307031,-0.095160,0.204960,0.884744,-0.140000,2.660000,-0.980000
44.315118,-0.023912,0.237168,0.923784,1.120000,-0.280000,-0.700000
44.323205,-0.007808,0.250832,0.966240,0.840000,-1.820000,-0.280000
44.331292,0.041968,0.267912,1.020896,-0.420000,-0.700000,-0.700000
44.339379,-0.058560,0.244488,1.063352,-1.820000,2.940000,-1.540000
44.347467,-0.081984,0.159088,0.934032,0.140000,2.380000,-0.980000
44.355554,-0.007808,0.247416,0.899384,1.400000,-1.680000,-0.700000
44.363641,0.000488,0.256688,1.024312,1.680000,-1.260000,0.000000
44.371728,0.023424,0.255712,1.041880,0.140000,0.840000,-1.120000
44.379815,-0.073200,0.255224,0.975512,-0.980000,3.780000,-1.540000
44.387902,-0.101016,0.207888,0.894016,-0.420000,1.820000,-0.840000
44.395989,0.006832,0.229848,0.903776,-0.560000,-1.260000,-0.420000
44.404076,0.057584,0.254248,1.071648,0.000000,-1.960000,-0.280000
44.412163,-0.071736,0.248392,1.069208,-0.840000,2.520000,-1.540000
44.420250,-0.067832,0.219112,0.925248,-0.840000,3.080000,-1.260000
44.428337,-0.040016,0.193736,0.912560,0.000000,-0.140000,-0.560000
44.436424,0.008296,0.230336,1.011136,1.820000,-1.680000,-0.140000
44.444511,0.014152,0.278160,1.050176,1.960000,-0.980000,-0.840000
44.452598,-0.046848,0.251320,0.976488,-0.420000,3.220000,-1.120000
44.460685,-0.038552,0.237656,0.946232,-0.980000,1.400000,-1.540000
44.468772,-0.072224,0.213744,0.922808,-0.980000,1.120000,-0.420000
44.476859,0.011712,0.192760,0.981856,0.840000,-1.260000,-0.420000
44.484946,0.012200,0.278648,1.048224,1.820000,-0.700000,-0.700000
44.493033,-0.072712,0.221552,1.010648,0.420000,1.820000,-0.560000
44.501120,0.015128,0.224968,1.002352,0.700000,1.680000,-1.680000
44.509207,-0.114680,0.221552,0.918416,1.820000,0.980000,-0.280000
44.517294,0.011712,0.249368,0.927688,2.520000,-0.840000,-0.560000
44.525381,-0.000976,0.293288,0.977952,0.280000,-1.260000,-0.700000
44.533468,0.004880,0.254736,0.971608,-2.380000,0.700000,-0.840000
44.541555,-0.044896,0.234240,1.065304,-2.940000,2.240000,-1.820000
44.549642,-0.088328,0.184952,0.917440,-1.400000,2.520000,-0.140000
44.557729,0.018544,0.205936,0.916952,0.700000,-1.120000,-1.120000
44.565816,-0.012200,0.277184,1.036512,1.400000,-0.700000,-0.280000
44.573903,-0.020984,0.251808,1.030168,-0.420000,1.120000,-0.840000
44.581990,-0.030256,0.214232,1.003816,-1.260000,1.960000,-1.540000
44.590077,-0.067344,0.211304,0.957456,0.280000,1.540000,-0.700000
44.598164,-0.039040,0.220576,0.933056,0.840000,0.560000,-1.260000
44.606251,-0.009272,0.256688,0.936960,1.960000,-1.400000,0.280000
44.614338,-0.010736,0.266448,0.981856,-0.980000,0.000000,-1.400000
44.622425,-0.005856,0.249368,1.062376,-2.800000,1.540000,-0.700000
44.630512,-0.044896,0.175680,0.975024,-1.820000,1.820000,-1.400000
44.638599,-0.076128,0.244488,0.948184,0.560000,0.980000,-0.980000
44.646686,0.020984,0.238144,0.905728,1.120000,-1.540000,-0.420000
44.654773,-0.016104,0.280112,0.994056,-1.260000,-0.420000,-0.560000
44.662860,0.002440,0.236680,1.053104,-3.220000,1.120000,-1.120000
44.670947,-0.049288,0.205936,0.991128,-3.360000,3.080000,-1.400000
44.679035,-0.089792,0.209840,0.872056,-2.660000,1.680000,-0.980000
44.687122,0.004392,0.242536,0.958920,-0.560000,-2.240000,-0.560000
44.695209,-0.009272,0.256200,1.054568,-2.520000,-0.140000,-0.560000
44.703296,-0.003416,0.216184,1.027240,-3.360000,2.240000,-1.400000
44.711383,-0.053680,0.186904,0.951600,-1.960000,1.820000,-0.980000
44.719470,-0.071248,0.240584,0.946720,0.000000,0.280000,-0.700000
44.727557,-0.007320,0.244488,0.970632,-0.280000,-0.560000,-0.420000
44.735644,0.020496,0.233752,1.056520,-1.820000,-0.980000,-0.840000
44.743731,-0.032696,0.206424,1.025776,-2.380000,3.360000,-1.680000
44.751818,-0.059048,0.206424,0.910120,-0.560000,1.960000,-0.700000
44.759905,-0.061488,0.219112,0.929640,0.560000,-0.980000,-0.840000
44.767992,0.026840,0.276696,1.023824,0.140000,-1.260000,-0.280000
44.776079,0.011712,0.222528,1.047248,-1.400000,0.280000,-0.980000
44.784166,-0.069784,0.195200,1.016016,-1.960000,3.640000,-1.540000
44.792253,-0.043920,0.218624,0.926224,1.400000,0.420000,-0.560000
44.800340,-0.050264,0.232288,0.896944,1.960000,-0.700000,-0.700000
44.808427,0.021472,0.238144,1.084824,0.560000,-1.400000,-0.560000
44.816514,-0.006832,0.231800,1.044320,1.260000,1.540000,-0.840000
44.824601,-0.058072,0.216184,0.966728,-0.280000,2.800000,-1.540000
44.832688,-0.074664,0.210816,0.909632,0.840000,1.260000,-0.700000
44.840775,-0.005368,0.220088,0.880840,0.840000,-1.260000,-0.840000
44.848862,-0.007808,0.256688,1.030168,0.980000,-1.680000,0.140000
44.856949,0.021960,0.244488,1.091168,-0.280000,0.420000,-1.260000
44.865036,-0.037576,0.219600,0.999424,-1.400000,3.500000,-0.980000
44.873123,-0.095160,0.196664,0.931104,1.400000,1.960000,-1.540000
44.881210,-0.047336,0.204960,0.910120,2.100000,-0.560000,-0.280000
44.889297,0.050264,0.244000,1.005280,2.100000,-2.100000,-0.140000
44.897384,-0.024888,0.251320,1.082872,1.540000,0.840000,-1.120000
44.905471,-0.006832,0.229360,0.991616,0.140000,1.820000,-0.840000
44.913558,-0.109800,0.227896,0.912560,0.980000,2.940000,-1.540000
44.921645,-0.032696,0.230824,0.859368,0.420000,-0.700000,-0.280000
44.929732,0.008784,0.216184,1.049200,1.120000,-1.960000,-0.700000
44.937819,0.013664,0.215208,1.095072,0.840000,0.280000,-0.140000
44.945906,-0.023424,0.228384,1.016992,1.400000,1.960000,-1.820000
44.953993,-0.109312,0.219600,0.895968,0.980000,3.080000,-0.980000
44.962080,-0.011712,0.233264,0.883768,1.260000,-0.560000,-0.560000
44.970167,-0.039528,0.232288,1.026752,1.260000,-1.260000,-0.280000
44.978254,0.054656,0.198616,1.047736,1.400000,-0.700000,-0.560000
44.986341,-0.017568,0.253760,1.041392,0.980000,1.960000,-1.260000
44.994428,-0.090768,0.215696,0.921832,1.400000,2.240000,-0.840000
45.002515,-0.032696,0.240096,0.916464,0.700000,0.280000,-1.400000
45.010602,-0.034648,0.220088,0.988200,1.400000,-1.260000,0.840000
45.018690,0.040016,0.244488,1.030168,1.960000,-0.700000,-1.260000
45.026777,-0.009760,0.224968,1.043344,-0.980000,2.660000,-1.400000
45.034864,-0.100040,0.203008,0.930128,1.540000,2.520000,-1.120000
45.042951,-0.055144,0.234728,0.886208,2.100000,-0.140000,-0.280000
45.051038,0.066368,0.212280,1.016992,1.960000,-3.080000,-0.140000
45.059125,-0.032696,0.268888,1.135088,1.540000,1.400000,-1.120000
45.067212,-0.045872,0.220576,0.931104,0.980000,3.500000,-0.980000
45.075299,-0.105896,0.197640,0.895968,1.120000,1.960000,-1.400000
45.083386,-0.010248,0.226920,0.941840,1.400000,-0.560000,-0.140000
45.091473,0.015616,0.250344,0.996984,3.080000,-2.380000,-0.560000
45.099560,0.003904,0.242536,1.021872,-0.140000,0.840000,-0.420000
45.107647,-0.001464,0.212768,1.077016,0.280000,2.100000,-1.540000
45.115734,-0.140544,0.201056,0.893040,1.960000,3.220000,-0.980000
45.123821,-0.003416,0.230336,0.904264,2.100000,-0.840000,-0.560000
45.131908,-0.005856,0.250832,0.999424,2.380000,-2.100000,-0.140000
45.139995,0.043432,0.249856,1.034072,0.560000,-0.280000,-0.840000
45.148082,-0.057584,0.242048,1.030168,-0.840000,3.080000,-1.400000
45.156169,-0.098088,0.199104,0.894992,-0.840000,2.520000,-1.120000
45.164256,-0.039528,0.182024,0.943304,0.700000,-0.560000,-0.700000
45.172343,0.035136,0.245464,1.007720,3.220000,-3.080000,0.140000
45.180430,0.000000,0.264496,1.044320,1.120000,1.120000,-0.980000
45.188517,-0.035624,0.244000,1.031144,-0.560000,3.080000,-1.400000
45.196604,-0.124440,0.171776,0.899872,0.560000,2.520000,-0.700000
45.204691,0.038552,0.229848,0.894016,1.120000,-1.680000,-0.700000
45.212778,-0.008296,0.260592,1.067256,1.960000,-2.240000,-0.140000
45.220865,-0.013664,0.247904,1.076040,0.700000,1.820000,-0.980000
45.228952,-0.025376,0.201544,0.885720,-0.280000,3.360000,-1.540000
45.237039,-0.095160,0.244488,0.959896,-0.140000,0.840000,-0.980000
45.245126,0.001464,0.196176,0.970144,1.120000,-1.260000,-0.280000
