Time [s],lsm6dsv16x_acc_x [g],lsm6dsv16x_acc_y [g],lsm6dsv16x_acc_z [g],lsm6dsv16x_gyro_x [dps],lsm6dsv16x_gyro_y [dps],lsm6dsv16x_gyro_z [dps]
22.391124,-0.068808,0.126880,0.973560,4.760000,2.800000,-1.260000
22.399211,-0.048312,0.161528,0.907680,6.160000,-0.700000,-0.280000
22.407298,0.012688,0.180072,1.019432,7.000000,-1.400000,-0.140000
22.415385,0.011712,0.186904,1.083848,7.420000,-0.420000,-0.140000
22.423473,-0.062952,0.155184,0.988688,5.880000,3.220000,-1.400000
22.431560,-0.059048,0.143472,0.974048,6.160000,1.400000,-0.700000
22.439647,-0.036600,0.151768,0.926712,8.120000,-0.980000,0.000000
22.447734,0.000976,0.218136,1.009184,7.280000,-0.700000,-0.420000
22.455821,-0.004392,0.178120,0.989664,5.740000,0.140000,-0.420000
22.463908,-0.046848,0.183488,1.019432,3.640000,1.680000,-0.980000
22.471995,-0.063928,0.147376,0.958432,4.480000,1.820000,-1.120000
22.480082,-0.022448,0.161528,0.956968,6.160000,-1.120000,-0.140000
22.488169,0.003904,0.191784,1.020408,5.740000,-0.980000,-0.280000
22.496256,0.019032,0.198616,1.065304,5.320000,0.280000,-1.120000
22.504343,-0.085888,0.165920,0.967216,3.500000,2.940000,-0.700000
22.512431,-0.055144,0.155672,0.934032,3.920000,0.700000,-0.840000
22.520518,0.013176,0.169824,0.999912,6.720000,-1.680000,0.140000
22.528605,-0.020008,0.173240,1.042368,6.160000,-0.280000,-0.560000
22.536692,-0.026840,0.214232,1.021384,4.620000,2.660000,-1.120000
22.544779,-0.094184,0.123464,0.948184,4.620000,2.240000,-0.840000
22.552866,-0.008296,0.153232,0.945256,6.720000,-1.260000,-0.420000
22.560953,0.022936,0.223992,1.072624,8.120000,-1.540000,-0.140000
22.569040,-0.035624,0.175192,0.983808,6.020000,0.980000,-0.560000
22.577127,-0.017568,0.175680,1.039440,5.320000,1.400000,-1.400000
22.585214,-0.081984,0.179096,0.937936,6.580000,1.540000,0.000000
22.593301,-0.025864,0.178608,0.927200,6.300000,-0.700000,-0.560000
22.601388,0.007808,0.190808,1.048224,7.560000,-1.400000,-0.280000
22.609476,-0.037576,0.175680,1.015528,6.860000,1.260000,-0.420000
22.617563,-0.012688,0.204960,0.999424,5.040000,1.120000,-1.540000
22.625650,-0.070272,0.149328,0.988688,6.440000,1.680000,-0.140000
22.633737,-0.027328,0.174704,0.917928,7.420000,-0.140000,-0.840000
22.641824,-0.024888,0.216184,1.009184,7.700000,-0.700000,-0.140000
22.649911,-0.006344,0.179096,1.005768,6.440000,-0.420000,-0.280000
22.657998,-0.014152,0.196176,1.037000,5.320000,2.100000,-1.120000
22.666085,-0.061488,0.201056,0.973560,6.440000,1.120000,-0.560000
22.674172,-0.048800,0.175192,0.901824,6.160000,-0.560000,-0.700000
22.682259,0.017568,0.211304,0.971120,6.580000,-0.560000,0.000000
22.690346,0.002928,0.219600,1.060912,5.040000,-0.560000,-0.840000
22.698434,-0.050264,0.197152,1.044320,2.800000,2.240000,-0.700000
22.706521,-0.040504,0.136152,0.904264,5.600000,1.820000,-0.980000
22.714608,-0.062464,0.211792,0.918416,5.880000,-0.700000,-0.140000
22.722695,0.028792,0.208376,1.047248,5.460000,-2.100000,-0.420000
22.730782,-0.003416,0.213744,1.076040,4.200000,1.400000,-0.420000
22.738869,-0.079056,0.161528,0.961360,3.220000,4.340000,-1.820000
22.746956,-0.043920,0.183976,0.934520,5.880000,0.000000,-0.560000
22.755043,-0.035136,0.200080,0.963800,7.280000,-1.820000,-0.140000
22.763130,0.042944,0.212280,1.026264,5.180000,-0.980000,-0.560000
22.771217,-0.028792,0.203496,1.086776,4.480000,1.400000,-0.420000
22.779304,-0.064904,0.162016,0.935496,4.340000,3.080000,-1.400000
22.787391,-0.062952,0.207400,0.921832,6.580000,0.280000,-0.420000
22.795479,-0.043920,0.214232,0.951112,6.300000,-1.680000,0.000000
22.803566,0.061976,0.207888,1.042856,4.900000,-0.980000,-0.420000
22.811653,-0.024400,0.195688,1.069208,4.200000,1.540000,-0.980000
22.819740,-0.114680,0.183976,0.943304,5.040000,3.220000,-0.980000
22.827827,-0.020984,0.201056,0.883768,5.880000,-0.420000,-0.560000
22.835914,-0.042944,0.204960,0.986248,5.320000,-1.260000,0.280000
22.844001,0.068808,0.212280,1.077992,5.040000,-1.260000,-0.420000
22.852088,-0.049776,0.224968,1.031144,3.920000,2.660000,-1.120000
22.860175,-0.051728,0.176656,0.920368,3.640000,2.380000,-1.400000
22.868262,-0.080032,0.189344,0.918416,5.460000,-0.140000,0.000000
22.876349,0.035624,0.216184,1.016504,5.880000,-2.240000,-0.140000
22.884436,0.002928,0.233752,1.069696,4.760000,0.140000,-0.840000
22.892524,-0.039040,0.196176,1.005768,4.340000,2.940000,-1.120000
22.900611,-0.101504,0.188856,0.900360,4.340000,2.380000,-0.980000
22.908698,-0.011224,0.192272,0.924760,4.900000,-1.540000,-0.140000
22.916785,0.037088,0.238632,1.058960,4.340000,-1.540000,-0.700000
22.924872,-0.050264,0.223016,1.035536,4.060000,1.680000,-0.420000
22.932959,-0.020008,0.190808,0.953552,2.800000,2.660000,-2.100000
22.941046,-0.098088,0.203984,0.931592,4.200000,0.700000,0.280000
22.949133,0.005856,0.191296,0.996984,5.460000,-1.400000,-0.700000
22.957220,0.020496,0.237656,1.011624,4.760000,-1.260000,0.000000
22.965307,-0.035624,0.187392,1.049688,4.340000,2.800000,-1.540000
22.973394,-0.054656,0.220576,0.954528,4.200000,1.260000,-0.840000
22.981481,-0.063440,0.183000,0.951600,4.620000,0.560000,-0.420000
22.989569,-0.004392,0.214720,0.976000,6.580000,-1.120000,-0.140000
22.997656,0.039528,0.234240,1.003328,5.600000,-0.280000,-0.700000
23.005743,-0.083448,0.225456,1.025776,3.080000,1.960000,-0.560000
23.013830,-0.009272,0.185440,0.965752,3.780000,1.680000,-1.400000
23.021917,-0.062464,0.224968,0.944768,4.200000,-0.140000,-0.280000
23.030004,-0.006344,0.203984,0.938424,5.180000,-1.120000,-0.140000
23.038091,0.033672,0.269376,1.028704,4.480000,-0.700000,-0.980000
23.046178,-0.072712,0.233264,1.013088,1.820000,2.100000,-0.840000
23.054265,-0.053192,0.198128,0.914024,0.560000,2.100000,-1.260000
23.062352,-0.024888,0.173240,0.931592,1.680000,-0.140000,-0.560000
23.070439,0.002928,0.232288,1.027240,3.360000,-1.820000,-0.420000
23.078526,-0.024888,0.233752,1.098488,2.520000,1.260000,-1.120000
23.086614,-0.051728,0.170800,0.966240,2.520000,3.080000,-0.700000
23.094701,-0.059536,0.182512,0.914512,4.620000,-0.420000,-0.980000
23.102788,0.004880,0.264984,0.998448,6.160000,-1.540000,0.000000
23.110875,-0.025376,0.241560,0.961848,3.500000,0.280000,-0.700000
23.118962,-0.012200,0.220088,1.039928,1.400000,1.540000,-1.260000
23.127049,-0.024400,0.192760,0.992104,1.680000,1.540000,-0.980000
23.135136,-0.097600,0.203496,0.912560,3.640000,2.100000,-0.420000
23.143223,0.022448,0.211304,0.965752,4.900000,-2.100000,-0.840000
23.151310,-0.022936,0.245952,1.058472,3.360000,-0.280000,-0.140000
23.159397,-0.003416,0.203496,1.040416,2.660000,2.520000,-1.260000
23.167484,-0.081984,0.210328,0.910608,3.360000,1.680000,-0.840000
23.175571,-0.038552,0.213744,0.882304,4.340000,-0.280000,-0.280000
23.183659,0.032696,0.261568,1.038464,3.080000,-1.260000,-0.560000
23.191746,-0.049288,0.225944,1.072136,1.820000,0.140000,-0.420000
23.199833,-0.012200,0.172264,0.956480,2.100000,2.380000,-1.680000
23.207920,-0.043432,0.232776,0.943304,4.060000,0.280000,-0.700000
23.216007,-0.070272,0.234240,0.923784,3.640000,-0.420000,0.420000
23.224094,0.058072,0.248392,1.060912,2.800000,-1.260000,-1.260000
23.232181,-0.056608,0.218624,1.045784,1.820000,2.380000,-0.700000
23.240268,-0.064416,0.175680,0.913048,2.800000,2.380000,-1.540000
23.248355,-0.022936,0.211792,0.920856,4.340000,-0.980000,0.000000
23.256442,-0.006344,0.241560,1.045784,5.040000,-1.960000,-0.420000
23.264529,0.006344,0.255712,1.055056,2.940000,0.980000,-0.840000
23.272616,-0.051240,0.205448,0.966728,2.100000,3.780000,-1.260000
23.280704,-0.087352,0.188368,0.917440,3.780000,0.560000,-0.700000
23.288791,0.022448,0.212280,0.950136,5.880000,-2.520000,0.140000
23.296878,0.017080,0.258640,1.095072,4.340000,-0.280000,-0.560000
23.304965,-0.043432,0.210328,1.052616,4.200000,2.240000,-1.260000
23.313052,-0.065392,0.205936,0.918904,6.160000,2.100000,-0.840000
23.321139,-0.049776,0.209352,0.895968,6.720000,-0.420000,-0.420000
23.329226,0.003416,0.253760,1.016992,6.860000,-1.680000,0.000000
23.337313,0.009760,0.233264,1.003816,4.900000,0.000000,-0.280000
23.345400,-0.019032,0.257664,1.048712,3.360000,2.240000,-1.540000
23.353487,-0.083448,0.207888,0.901824,3.220000,2.380000,-0.840000
23.361574,-0.048312,0.223992,0.897920,4.200000,0.000000,-0.840000
23.369661,0.014152,0.239608,1.021384,5.040000,-2.380000,0.000000
23.377749,-0.008296,0.250344,1.044320,3.360000,0.000000,-0.420000
23.385836,-0.000976,0.230336,1.001864,2.100000,3.080000,-1.680000
23.393923,-0.122976,0.204960,0.902800,3.640000,1.680000,-0.560000
23.402010,-0.018056,0.233264,0.884256,3.780000,-1.680000,-0.280000
23.410097,0.066368,0.280600,1.060912,2.240000,-1.820000,-0.420000
23.418184,-0.047336,0.233752,1.082384,0.700000,3.080000,-1.120000
23.426271,-0.098088,0.182024,0.922808,2.100000,3.360000,-1.260000
23.434358,-0.033672,0.177632,0.899872,5.320000,-0.840000,0.140000
23.442445,0.074664,0.289872,1.037976,5.320000,-3.640000,-0.560000
23.450532,-0.055144,0.263520,1.108736,2.800000,2.520000,-0.840000
23.458619,-0.051240,0.196664,0.930128,2.520000,3.220000,-1.120000
23.466706,-0.079056,0.190320,0.860344,5.460000,1.120000,-1.120000
23.474794,0.029768,0.241560,1.051640,6.020000,-2.380000,0.560000
23.482881,0.021472,0.263520,1.106296,6.300000,-1.120000,-1.120000
23.490968,-0.076616,0.248880,0.962336,4.760000,4.060000,-0.980000
23.499055,-0.061000,0.206912,0.869128,5.320000,1.400000,-0.980000
23.507142,-0.054656,0.232776,0.928664,4.900000,-1.120000,0.000000
23.515229,0.066856,0.264984,1.059936,6.160000,-2.100000,0.000000
23.523316,-0.039528,0.258640,1.016016,4.060000,1.540000,-1.260000
23.531403,-0.054168,0.207888,0.942816,2.800000,3.220000,-1.120000
23.539490,-0.041968,0.232776,0.945256,5.740000,-0.140000,-0.700000
23.547577,-0.044408,0.237656,0.931104,5.600000,-1.820000,0.420000
23.555664,0.065880,0.260104,1.032120,3.920000,-0.420000,-0.840000
23.563751,-0.057584,0.250832,1.059448,3.360000,2.800000,-1.400000
23.571838,-0.088328,0.213744,0.881816,4.340000,1.540000,-0.840000
23.579926,-0.015128,0.248880,0.900848,4.340000,-1.120000,-0.420000
23.588013,0.029280,0.257176,1.076040,4.340000,-1.960000,0.140000
23.596100,-0.024400,0.236680,1.096536,4.900000,1.260000,-1.260000
23.604187,-0.068320,0.224480,0.884256,3.920000,3.780000,-1.260000
23.612274,-0.061488,0.223992,0.903288,4.760000,-0.140000,-0.420000
23.620361,0.000976,0.232288,0.981856,5.740000,-2.240000,0.140000
23.628448,0.050752,0.286944,1.040904,5.040000,-0.560000,-0.560000
23.636535,-0.060024,0.272304,1.034072,3.500000,2.940000,-1.400000
23.644622,-0.097112,0.215208,0.885720,2.800000,2.520000,-0.980000
23.652709,-0.010736,0.225944,0.909632,4.340000,-1.260000,-0.280000
23.660796,0.024400,0.283528,1.039440,4.620000,-1.680000,-0.280000
23.668883,-0.026840,0.261080,1.015528,2.660000,1.260000,-0.840000
23.676971,-0.026352,0.215208,0.962336,1.820000,2.800000,-1.540000
23.685058,-0.081008,0.235216,0.954040,3.640000,0.980000,-0.560000
23.693145,-0.016104,0.239120,0.946720,4.760000,-1.260000,0.140000
23.701232,0.033672,0.267424,1.031144,5.040000,-0.980000,-0.700000
23.709319,-0.045872,0.244000,1.060912,4.200000,2.660000,-1.260000
23.717406,-0.061976,0.234240,0.909144,4.760000,1.680000,-0.840000
23.725493,-0.047824,0.251320,0.914024,4.760000,-0.700000,-0.280000
23.733580,0.018544,0.258640,0.932568,4.060000,-0.840000,-0.280000
23.741667,0.010248,0.303048,1.038952,2.520000,-1.120000,-0.560000
23.749754,-0.081984,0.251320,0.997472,0.140000,3.780000,-1.680000
23.757841,-0.019520,0.212280,0.889136,2.380000,0.700000,-0.560000
23.765928,-0.034160,0.250832,0.974536,2.520000,-1.260000,-0.420000
23.774016,0.019032,0.289384,1.059936,2.240000,0.140000,-0.840000
23.782103,-0.073200,0.232776,0.982832,1.540000,2.800000,-1.260000
23.790190,-0.058560,0.187392,0.914512,2.240000,2.100000,-0.700000
23.798277,0.045384,0.273768,0.971608,4.900000,-3.220000,-0.140000
23.806364,-0.041480,0.299144,1.017968,3.640000,0.140000,-0.560000
23.814451,-0.012200,0.237656,1.014064,1.680000,2.380000,-1.260000
23.822538,-0.073200,0.239120,0.936960,1.680000,1.820000,-0.980000
23.830625,-0.047824,0.240584,0.920368,3.080000,-0.280000,-0.140000
23.838712,0.061976,0.270352,0.941840,3.220000,-2.100000,-0.560000
23.846799,-0.038064,0.291336,1.040416,0.840000,0.980000,-0.980000
23.854886,-0.066856,0.257176,1.009184,0.420000,3.080000,-1.400000
23.862973,-0.038552,0.215696,0.865712,0.980000,0.280000,-0.560000
23.871060,-0.001952,0.234240,0.991128,1.680000,-1.120000,-0.280000
23.879148,0.029280,0.293288,1.079456,1.960000,0.280000,-1.260000
23.887235,-0.111752,0.235216,0.946720,1.120000,3.920000,-0.980000
23.895322,-0.019520,0.244000,0.937936,2.380000,-0.280000,-0.560000
23.903409,-0.016104,0.254248,0.930128,3.220000,-1.400000,-0.280000
23.911496,0.010248,0.269864,1.021384,1.260000,0.420000,-0.700000
23.919583,-0.035624,0.278648,1.034072,0.280000,1.960000,-1.400000
23.927670,-0.092232,0.211304,0.893528,0.980000,1.680000,-0.700000
23.935757,0.023424,0.250832,0.923296,1.260000,-1.120000,-0.980000
23.943844,-0.004880,0.280112,1.032608,1.960000,-1.120000,0.000000
23.951931,-0.052216,0.281088,1.033096,0.280000,2.100000,-1.260000
23.960018,-0.043432,0.222528,0.915488,-0.700000,1.960000,-1.400000
23.968105,-0.039528,0.240584,0.921832,0.700000,0.140000,-0.420000
23.976193,0.007320,0.263032,1.002840,1.260000,-1.680000,-0.700000
23.984280,0.012688,0.288896,0.984784,0.140000,0.000000,-1.120000
23.992367,-0.086864,0.276208,1.007720,-2.100000,3.640000,-0.980000
24.000454,-0.029280,0.183976,0.940864,-2.100000,1.680000,-1.400000
24.008541,-0.029280,0.254248,0.934032,1.820000,-1.960000,0.140000
24.016628,0.026352,0.270840,0.998936,-0.140000,-0.140000,-1.400000
24.024715,-0.038552,0.292800,1.063352,-1.120000,2.240000,-0.980000
24.032802,-0.079056,0.171776,0.957944,-0.140000,1.680000,-0.840000
24.040889,-0.014640,0.261568,0.902800,2.380000,-0.560000,-0.700000
24.048976,0.011712,0.277672,0.953064,1.540000,-1.400000,-0.280000
24.057063,-0.027816,0.313296,1.059936,-1.120000,1.260000,-1.400000
24.065150,-0.028304,0.218624,0.976488,-2.520000,2.240000,-1.120000
24.073237,-0.060024,0.212280,0.919392,-0.560000,1.260000,-0.980000
24.081325,-0.015616,0.233752,0.983808,1.820000,-1.400000,-0.140000
24.089412,0.001464,0.269864,1.088240,2.520000,-0.560000,-0.700000
24.097499,-0.029768,0.280112,0.962824,0.140000,2.800000,-1.260000
24.105586,-0.065392,0.235216,0.922808,0.140000,1.680000,-1.120000
24.113673,-0.047336,0.208376,0.908656,1.540000,-0.280000,-0.700000
24.121760,0.033184,0.297192,1.030656,2.380000,-1.820000,-0.420000
24.129847,-0.012200,0.244976,1.026264,0.140000,0.420000,-0.840000
24.137934,-0.053192,0.228384,0.985272,-0.560000,2.940000,-1.260000
24.146021,-0.047336,0.247416,0.921344,2.520000,0.840000,-0.840000
24.154108,-0.042456,0.282552,0.881328,1.680000,-1.260000,0.000000
24.162195,0.040992,0.273768,1.028704,-0.980000,-0.840000,-1.120000
24.170282,-0.021960,0.265472,1.104344,-1.260000,2.380000,-0.980000
24.178369,-0.103944,0.196664,0.883768,0.280000,2.380000,-1.120000
24.186457,-0.004880,0.243512,0.857416,1.260000,-1.120000,-0.560000
24.194544,0.002440,0.304512,1.049200,0.700000,-1.540000,-0.140000
24.202631,-0.013664,0.268888,1.052616,-2.520000,2.800000,-1.680000
24.210718,-0.039528,0.189832,0.928176,-1.820000,2.380000,-0.980000
24.218805,-0.068808,0.238632,0.926712,1.540000,-0.420000,-0.700000
24.226892,0.006344,0.279136,1.046760,1.260000,-1.820000,-0.140000
24.234979,-0.020984,0.259128,1.043344,0.840000,1.120000,-0.700000
24.243066,-0.018544,0.227408,0.907680,-0.700000,3.080000,-2.100000
24.251153,-0.078080,0.245952,0.903776,0.840000,0.280000,0.000000
24.259240,-0.000488,0.258152,1.002840,1.400000,-1.680000,-0.980000
24.267327,0.013664,0.267912,1.070184,0.000000,0.420000,-0.280000
24.275414,-0.024400,0.215696,0.966728,-0.420000,2.520000,-1.540000
24.283502,-0.089792,0.271816,0.956968,1.260000,2.100000,-0.840000
24.291589,-0.019032,0.224480,0.894992,2.660000,-1.820000,-0.280000
24.299676,-0.004880,0.270840,1.046272,1.260000,-0.420000,-0.560000
24.307763,0.028304,0.241560,1.080920,0.700000,1.400000,-1.120000
24.315850,-0.091256,0.231312,0.888160,1.960000,2.520000,-0.980000
24.323937,-0.048312,0.230824,0.904752,2.800000,0.000000,-0.560000
24.332024,0.028792,0.302560,1.027240,3.080000,-2.100000,-0.280000
24.340111,-0.029768,0.251320,1.060912,0.980000,1.400000,-0.700000
24.348198,-0.036112,0.232288,0.954040,0.700000,2.800000,-1.680000
24.356285,-0.071736,0.224968,0.910608,2.520000,0.840000,-0.560000
24.364372,-0.013176,0.250832,0.946720,4.200000,-1.680000,-0.140000
24.372459,0.021960,0.281088,1.064328,2.100000,-0.560000,-0.700000
24.380546,-0.028792,0.249368,1.023336,1.120000,2.660000,-1.120000
24.388634,-0.085400,0.235704,0.885232,2.240000,2.380000,-1.120000
24.396721,-0.021472,0.239608,0.903288,3.080000,-1.260000,-0.280000
24.404808,0.006832,0.304512,1.048224,2.520000,-1.820000,-0.420000
24.412895,-0.007320,0.249368,1.037000,0.140000,1.960000,-1.120000
24.420982,-0.046848,0.221552,0.911584,0.980000,2.520000,-0.840000
24.429069,-0.056608,0.243024,0.924760,2.660000,-0.420000,-0.980000
24.437156,-0.001464,0.280600,1.013576,2.660000,-1.540000,0.280000
24.445243,-0.009272,0.280112,1.035048,0.700000,1.260000,-1.120000
24.453330,-0.033672,0.198616,0.892064,-0.140000,2.940000,-1.820000
24.461417,-0.038552,0.219600,0.938912,2.800000,-0.840000,0.280000
24.469504,0.011224,0.311832,1.078480,2.940000,-2.240000,-0.700000
24.477591,-0.040992,0.272304,1.033096,0.420000,2.940000,-1.260000
24.485678,-0.051728,0.201544,0.850584,0.560000,3.080000,-0.840000
24.493766,-0.030256,0.223992,0.921832,2.660000,-0.560000,-1.120000
24.501853,0.035624,0.313784,1.071160,2.660000,-2.520000,0.280000
24.509940,-0.056608,0.260104,1.094584,1.260000,3.220000,-1.680000
24.518027,-0.085888,0.212280,0.906704,2.380000,2.240000,-0.420000
24.526114,-0.010248,0.234728,0.828136,4.620000,-1.820000,-0.420000
24.534201,0.047336,0.306464,0.996496,1.120000,-1.400000,-0.840000
24.542288,-0.026352,0.288408,1.123376,-0.140000,1.960000,-0.840000
24.550375,-0.117120,0.198128,0.961848,0.840000,3.640000,-1.540000
24.558462,-0.036600,0.208864,0.864248,3.920000,-0.420000,0.140000
24.566549,0.040504,0.300608,0.999912,4.480000,-3.220000,-0.140000
24.574636,-0.004392,0.284016,1.027728,0.700000,1.960000,-1.400000
24.582723,-0.046360,0.261080,0.992592,0.700000,2.660000,-1.260000
24.590811,-0.105408,0.215208,0.823256,0.840000,0.840000,-0.700000
24.598898,0.050752,0.259616,0.992592,1.820000,-2.380000,-0.140000
24.606985,0.026840,0.295240,1.116544,1.400000,-0.280000,-1.400000
24.615072,-0.103456,0.240096,0.938912,0.280000,4.620000,-1.260000
24.623159,-0.056120,0.242536,0.926712,1.540000,0.420000,-0.700000
24.631246,-0.004392,0.234240,0.977464,3.220000,-3.080000,0.420000
24.639333,0.054656,0.266448,1.021384,1.680000,1.400000,-1.960000
24.647420,-0.078568,0.295240,0.974048,0.980000,3.500000,-0.980000
24.655507,-0.115656,0.204472,0.915488,2.520000,0.560000,-0.560000
24.663594,0.063928,0.287920,0.982344,2.660000,-2.800000,0.000000
24.671681,-0.009272,0.252296,1.010160,1.400000,1.120000,-0.840000
24.679768,-0.066856,0.248392,0.974048,-0.280000,3.920000,-2.100000
24.687855,-0.043432,0.202032,0.923784,2.940000,-0.140000,-0.140000
24.695943,0.006832,0.298168,1.035536,4.060000,-2.660000,0.000000
24.704030,0.006832,0.280112,0.998448,2.240000,1.120000,-1.260000
24.712117,-0.072224,0.264496,0.917440,0.000000,3.500000,-1.120000
24.720204,-0.044896,0.209352,0.932568,1.400000,0.000000,-0.980000
24.728291,0.027328,0.268400,1.069208,4.200000,-1.820000,0.280000
24.736378,-0.027328,0.280112,1.008696,3.500000,0.840000,-1.120000
24.744465,-0.055144,0.280600,0.875472,0.560000,2.940000,-1.680000
24.752552,-0.056608,0.223504,0.889624,0.000000,0.140000,-0.280000
24.760639,0.018056,0.252784,1.053104,1.540000,-2.380000,-0.280000
24.768726,-0.010248,0.250832,1.132648,3.080000,1.400000,-1.120000
24.776813,-0.097112,0.252296,0.843752,3.780000,3.500000,-0.980000
24.784900,-0.018544,0.273768,0.869128,1.680000,-1.400000,-0.700000
24.792987,0.042456,0.278648,1.026752,1.680000,-1.680000,0.140000
24.801074,-0.023424,0.284016,1.101416,0.560000,1.400000,-1.540000
24.809162,-0.092232,0.209840,0.908656,0.700000,4.060000,-0.980000
24.817249,-0.022448,0.218624,0.833992,3.500000,-1.120000,-0.280000
24.825336,0.044408,0.333792,1.040416,1.680000,-1.540000,-0.980000
24.833423,-0.049776,0.270352,1.072624,0.840000,1.400000,-0.700000
24.841510,-0.099064,0.220576,0.951112,0.420000,3.640000,-1.540000
24.849597,0.007320,0.221552,0.866688,2.240000,-0.980000,-0.280000
24.857684,0.022936,0.252296,1.067744,3.780000,-1.960000,-0.420000
24.865771,-0.031720,0.324032,1.024312,2.940000,2.100000,-0.980000
24.873858,-0.053680,0.276696,0.879376,0.840000,1.680000,-1.540000
24.881945,-0.074176,0.247416,0.924760,-0.700000,1.120000,-0.140000
24.890032,0.059048,0.233752,1.011624,1.540000,-2.660000,-0.560000
24.898119,-0.046360,0.263032,1.102392,2.240000,2.100000,-1.540000
24.906206,-0.064416,0.246928,0.890112,1.400000,2.240000,-0.140000
24.914293,-0.014152,0.275232,0.900848,2.240000,-1.120000,-1.120000
24.922381,-0.005856,0.284504,0.980880,1.260000,-0.560000,-0.140000
24.930468,0.000000,0.277184,1.043344,0.140000,0.700000,-1.120000
24.938555,-0.098576,0.205448,0.971120,-0.840000,3.500000,-1.400000
24.946642,0.010736,0.216184,0.906704,3.640000,-1.820000,0.000000
24.954729,0.020496,0.330376,1.049200,3.360000,-0.980000,-1.260000
24.962816,-0.057096,0.251808,1.019432,0.840000,2.660000,-0.280000
24.970903,-0.069784,0.235704,0.924272,1.680000,1.680000,-1.680000
24.978990,-0.025864,0.257176,0.865712,2.660000,-0.700000,0.000000
24.987077,0.036600,0.306952,1.057984,2.800000,-1.120000,-0.980000
24.995164,-0.065880,0.273280,1.053104,0.700000,1.400000,-0.840000
25.003251,-0.064904,0.190808,0.904752,0.560000,2.660000,-0.840000
25.011338,0.032696,0.275232,0.878888,1.820000,-0.980000,-0.840000
25.019425,-0.031232,0.269376,1.040416,2.520000,-0.280000,-0.140000
25.027512,-0.023912,0.300608,1.074088,1.540000,1.400000,-1.120000
25.035600,-0.073688,0.229360,0.916464,1.400000,2.100000,-1.260000
25.043687,-0.026840,0.226432,0.871080,3.080000,-0.420000,0.280000
25.051774,0.043432,0.305976,0.996984,2.940000,-1.820000,-0.980000
25.059861,-0.039528,0.311832,1.030656,-0.420000,2.380000,-1.260000
25.067948,-0.076616,0.219600,0.956480,-1.260000,2.660000,-0.980000
25.076035,-0.017080,0.215208,0.945256,2.660000,-1.400000,-0.280000
25.084122,0.000976,0.334280,1.011136,2.380000,-0.560000,-0.700000
25.092209,-0.033672,0.228384,1.047248,0.140000,2.520000,-0.980000
25.100296,-0.037576,0.226920,0.896944,2.660000,0.700000,-0.980000
25.108383,-0.052216,0.286944,0.903776,2.520000,0.000000,-0.700000
25.116470,0.024400,0.275720,1.016992,1.400000,-1.400000,0.140000
25.124557,-0.023424,0.267912,1.109712,1.120000,1.400000,-1.680000
25.132644,-0.067344,0.229360,0.867664,1.820000,2.800000,-0.840000
25.140732,-0.015616,0.265472,0.861320,3.080000,-0.980000,-0.560000
25.148819,-0.000488,0.298168,1.062376,0.280000,-1.260000,-0.140000
25.156906,-0.012200,0.254736,1.062376,0.840000,1.820000,-1.120000
25.164993,-0.073688,0.263032,0.890600,1.260000,2.940000,-1.540000
25.173080,-0.033184,0.231312,0.810568,1.120000,-0.980000,-0.140000
25.181167,0.045384,0.306464,1.074576,0.420000,-1.820000,-0.560000
25.189254,-0.007808,0.294752,1.038952,-1.960000,2.240000,-1.820000
25.197341,-0.096136,0.222040,0.908656,-0.140000,3.080000,-0.700000
25.205428,-0.019032,0.294264,0.981856,1.260000,-2.800000,-0.140000
25.213515,-0.015616,0.257664,1.123376,-0.700000,1.540000,-1.120000
25.221602,-0.035624,0.222040,0.872544,0.420000,2.380000,-0.700000
25.229689,-0.049288,0.236680,0.901824,2.240000,0.140000,-0.980000
25.237776,0.021960,0.279624,1.007232,1.820000,-0.980000,0.000000
25.245863,-0.000976,0.301096,1.018944,0.560000,1.120000,-1.680000
25.253951,-0.132736,0.241072,0.940376,0.000000,3.360000,-0.700000
25.262038,0.019032,0.234728,0.890112,2.520000,-2.380000,-0.560000
25.270125,-0.006344,0.284992,1.098000,0.700000,-0.280000,-0.280000
25.278212,0.005368,0.275232,1.009184,0.560000,2.100000,-1.400000
25.286299,-0.106384,0.246440,0.847656,0.280000,2.380000,-1.120000
25.294386,-0.017080,0.239608,0.914024,1.260000,-1.680000,0.140000
25.302473,0.058560,0.304512,1.111664,1.260000,-1.680000,-0.840000
25.310560,-0.069296,0.231800,1.030656,0.980000,3.780000,-1.400000
25.318647,-0.056120,0.270352,0.821304,1.540000,1.260000,-0.840000
25.326734,-0.029280,0.277672,0.918904,0.000000,-1.540000,-0.420000
25.334821,0.036600,0.299144,1.053104,-1.120000,-1.680000,-0.140000
25.342908,-0.044408,0.257664,1.050176,-2.100000,3.220000,-2.240000
25.350995,-0.095648,0.183976,0.894016,0.700000,2.240000,-0.280000
25.359082,0.045384,0.280112,0.947208,2.800000,-2.940000,-0.420000
25.367170,-0.008784,0.290360,1.101416,0.560000,0.840000,-1.120000
25.375257,-0.062952,0.247904,0.981368,0.280000,3.640000,-0.700000
25.383344,-0.063928,0.237656,0.848144,1.960000,0.840000,-1.260000
25.391431,-0.014152,0.267424,0.910120,1.680000,-1.400000,0.140000
25.399518,0.047336,0.307928,1.105808,0.000000,-1.260000,-1.260000
25.407605,-0.059048,0.260104,1.014064,-0.980000,3.220000,-1.260000
25.415692,-0.086376,0.215208,0.865712,0.420000,2.660000,-0.700000
25.423779,0.004880,0.248392,0.960384,2.240000,-2.520000,-0.700000
25.431866,0.031720,0.316712,1.067256,1.820000,-1.120000,0.140000
25.439953,-0.039040,0.280112,0.997472,-1.120000,3.640000,-2.380000
25.448040,-0.091256,0.220088,0.875960,-0.420000,2.380000,-0.560000
25.456127,-0.003416,0.219600,0.955992,2.240000,-2.100000,-0.420000
25.464214,0.029768,0.323544,1.048712,1.820000,-2.100000,0.000000
25.472302,-0.021960,0.284016,1.010648,-0.280000,2.380000,-1.680000
25.480389,-0.110776,0.233752,0.841312,-1.400000,3.780000,-1.120000
25.488476,-0.002928,0.218624,0.942328,0.560000,-1.540000,-0.280000
25.496563,0.023912,0.273768,1.113616,1.820000,-1.260000,-0.700000
25.504650,-0.018056,0.282064,1.016504,1.540000,2.240000,-1.400000
25.512737,-0.122976,0.244488,0.877912,0.700000,3.080000,-0.840000
25.520824,0.000976,0.239120,0.919392,1.680000,-1.260000,-0.560000
25.528911,0.041480,0.290360,1.058472,1.960000,-1.540000,0.000000
25.536998,-0.047824,0.290848,1.006256,0.700000,2.380000,-1.540000
25.545085,-0.079056,0.262056,0.881328,-0.840000,2.800000,-1.260000
25.553172,-0.017568,0.218136,0.902800,-0.140000,-1.680000,0.000000
25.561259,0.042944,0.278160,1.104344,1.400000,-2.240000,-0.700000
25.569346,-0.040504,0.255712,1.081408,1.400000,3.360000,-1.120000
25.577433,-0.098088,0.241072,0.849120,2.520000,2.380000,-1.260000
25.585521,-0.016592,0.258640,0.881328,2.100000,-1.540000,0.140000
25.593608,0.039040,0.286944,1.054080,2.240000,-2.240000,-0.280000
25.601695,-0.045872,0.293776,1.071160,0.980000,2.380000,-1.120000
25.609782,-0.066856,0.244000,0.874984,0.140000,3.360000,-1.960000
25.617869,-0.057584,0.226920,0.861320,0.560000,-0.560000,0.420000
25.625956,0.097600,0.274256,1.121424,1.820000,-3.220000,-0.980000
25.634043,-0.072224,0.267912,1.070672,2.380000,3.360000,-0.840000
25.642130,-0.062464,0.273768,0.839360,2.240000,2.240000,-1.540000
25.650217,-0.023424,0.242048,0.894504,0.280000,-1.260000,0.140000
25.658304,0.037088,0.273768,1.104832,1.960000,-1.400000,-0.280000
25.666391,-0.064904,0.285968,1.000400,1.400000,3.640000,-1.680000
25.674478,-0.096136,0.242536,0.831064,0.000000,1.960000,-0.980000
25.682565,0.030744,0.246928,0.954528,0.280000,-2.380000,-0.140000
25.690652,0.015616,0.274744,1.113128,1.820000,-0.840000,-0.420000
25.698739,-0.045872,0.281088,0.973560,0.420000,4.340000,-2.240000
25.706827,-0.095160,0.226432,0.862784,1.120000,0.980000,-0.140000
25.714914,0.002440,0.283528,1.018456,2.520000,-2.520000,0.140000
25.723001,0.025864,0.278648,1.014064,0.140000,0.560000,-1.260000
25.731088,-0.084424,0.222528,0.939400,0.000000,4.620000,-1.400000
25.739175,-0.030256,0.228384,0.874496,1.120000,-0.420000,-0.700000
25.747262,0.037576,0.311344,1.046272,2.380000,-2.520000,-0.560000
25.755349,-0.037088,0.265960,1.102880,0.980000,2.940000,-1.120000
25.763436,-0.085888,0.221064,0.895480,2.520000,2.520000,-1.260000
25.771523,-0.036112,0.275720,0.861808,2.800000,-1.540000,0.140000
25.779610,0.066856,0.281088,1.002840,1.120000,-2.100000,-0.840000
25.787697,-0.033672,0.294264,1.098976,0.140000,2.100000,-1.120000
25.795784,-0.090768,0.236680,0.896456,0.140000,2.940000,-1.120000
25.803871,-0.051728,0.230336,0.887184,1.820000,-1.540000,-0.140000
25.811958,0.088328,0.324032,1.055056,1.820000,-2.520000,-0.420000
25.820045,-0.058072,0.268888,1.010160,-1.400000,4.480000,-1.960000
25.828133,-0.092720,0.209840,0.902800,0.980000,1.680000,-0.700000
25.836220,0.004880,0.299144,0.990640,2.660000,-2.800000,0.000000
25.844307,0.013176,0.231800,1.049688,0.700000,0.980000,-0.980000
25.852394,-0.083448,0.273768,0.929152,1.260000,3.640000,-1.400000
25.860481,-0.038552,0.250832,0.861320,0.840000,-1.260000,-0.980000
25.868568,0.040992,0.275720,1.027728,1.680000,-1.960000,0.420000
25.876655,-0.024888,0.286944,1.100440,1.400000,2.100000,-1.680000
25.884742,-0.089792,0.254248,0.852048,-0.560000,3.500000,-1.400000
25.892829,-0.019032,0.228384,0.904264,0.700000,-1.260000,-0.280000
25.900916,0.035624,0.286456,1.089216,1.400000,-1.820000,-0.420000
25.909003,-0.041968,0.304024,1.006744,0.280000,2.660000,-1.680000
25.917090,-0.117120,0.214720,0.898896,-0.140000,3.500000,-0.560000
25.925177,0.023424,0.232776,0.945256,2.940000,-3.360000,-0.140000
25.933264,0.011224,0.295240,1.072136,1.680000,-0.420000,-0.980000
25.941351,-0.038064,0.244976,0.980392,1.120000,4.060000,-1.260000
25.949439,-0.082960,0.260104,0.869128,1.680000,1.120000,-0.840000
25.957526,0.011224,0.278648,0.973560,2.100000,-3.080000,0.280000
25.965613,0.020984,0.297680,1.060424,0.980000,0.140000,-0.840000
25.973700,-0.064904,0.249856,0.966728,-0.420000,3.780000,-1.680000
25.981787,-0.068808,0.210816,0.867664,1.260000,0.420000,-0.280000
25.989874,0.041480,0.305976,0.979904,2.380000,-3.500000,-0.140000
25.997961,-0.005856,0.302560,1.059936,0.280000,1.680000,-1.260000
26.006048,-0.091744,0.223992,0.964288,-1.260000,4.760000,-1.680000
26.014135,-0.040016,0.227896,0.866200,1.680000,-1.400000,-0.280000
26.022222,0.051240,0.281088,1.048712,1.960000,-1.960000,-0.280000
26.030309,-0.037576,0.294752,1.060912,1.120000,2.800000,-1.400000
26.038396,-0.084912,0.234240,0.879864,0.420000,2.660000,-1.260000
26.046483,-0.018544,0.240584,0.934032,1.960000,-1.540000,-0.140000
26.054570,0.035136,0.290360,1.074088,2.660000,-1.260000,-0.420000
26.062657,-0.051240,0.299144,0.959408,1.400000,3.220000,-1.400000
26.070745,-0.066856,0.256200,0.876448,-0.700000,1.540000,-1.400000
26.078832,-0.028792,0.246440,0.953064,0.420000,-1.820000,0.560000
26.086919,0.041480,0.272304,1.120936,0.840000,-0.420000,-1.260000
26.095006,-0.086376,0.257664,0.952576,1.120000,3.640000,-1.260000
26.103093,-0.038552,0.190808,0.881328,2.520000,0.700000,-0.700000
26.111180,0.028792,0.299144,1.020408,4.060000,-3.220000,0.280000
26.119267,-0.017568,0.304024,1.019920,2.520000,1.120000,-1.260000
26.127354,-0.067344,0.282064,0.940376,-0.700000,3.640000,-1.120000
26.135441,-0.066856,0.215208,0.865224,0.700000,0.420000,-0.840000
26.143528,0.043432,0.266448,0.965752,1.260000,-2.520000,-0.420000
26.151615,-0.004392,0.303536,1.114104,1.260000,0.560000,-0.980000
26.159702,-0.094184,0.267912,0.947208,-0.140000,3.780000,-1.400000
26.167789,-0.044408,0.223016,0.873032,-0.280000,0.700000,-0.700000
26.175876,0.038552,0.251808,1.015040,2.380000,-2.240000,0.140000
26.183963,-0.006832,0.320616,1.036512,1.260000,0.420000,-1.680000
26.192051,-0.102480,0.252296,0.956968,-0.840000,4.760000,-0.980000
26.200138,-0.008296,0.220576,0.890600,1.680000,-1.960000,-0.280000
26.208225,0.013176,0.301584,0.990152,1.540000,-1.680000,-0.980000
26.216312,-0.010248,0.280112,1.029680,-0.700000,2.380000,-0.420000
26.224399,-0.088328,0.236680,0.941840,-0.140000,2.380000,-1.540000
26.232486,0.022936,0.259616,0.898408,0.000000,-1.120000,-0.560000
26.240573,-0.014640,0.277184,1.083360,2.380000,-0.700000,0.140000
26.248660,-0.056608,0.300608,1.047736,1.400000,1.120000,-1.820000
26.256747,-0.056608,0.224480,0.830088,-0.560000,2.520000,-0.700000
26.264834,0.015616,0.245464,0.913536,0.420000,-0.980000,-0.280000
26.272921,0.005856,0.270352,1.091656,1.400000,-0.980000,-1.260000
26.281008,-0.060024,0.284504,1.009184,1.400000,3.220000,-0.700000
26.289095,-0.051728,0.262056,0.915000,0.700000,0.840000,-1.400000
26.297182,-0.029280,0.226920,0.891088,0.420000,-0.980000,0.280000
26.305269,0.046360,0.314272,1.044808,1.260000,-0.700000,-0.980000
26.313357,-0.082472,0.264496,1.047736,-0.560000,3.360000,-1.400000
26.321444,-0.060512,0.216672,0.905240,1.400000,0.700000,-0.280000
26.329531,0.011224,0.284504,0.918416,2.240000,-1.540000,-1.120000
26.337618,0.001464,0.287920,0.990152,0.700000,0.420000,-0.140000
26.345705,-0.040504,0.253272,1.061888,-0.700000,2.800000,-1.820000
26.353792,-0.080520,0.215696,0.894016,1.680000,0.700000,0.000000
26.361879,0.013664,0.295240,0.908168,2.940000,-1.680000,-0.700000
26.369966,-0.011712,0.282552,0.979416,0.000000,0.280000,-0.700000
26.378053,-0.009760,0.280600,1.108248,-1.120000,0.980000,-1.260000
26.386140,-0.086864,0.212768,0.882792,0.000000,3.080000,-0.560000
26.394227,0.022936,0.253272,0.956480,2.240000,-1.120000,-1.260000
26.402314,-0.034160,0.309392,1.015528,1.540000,-0.560000,0.140000
26.410401,-0.014152,0.288408,0.985760,-1.120000,1.400000,-1.400000
26.418488,-0.045384,0.260592,0.893040,-2.940000,3.080000,-1.540000
26.426575,-0.051240,0.212768,0.920368,-0.420000,-0.560000,0.000000
26.434663,0.001464,0.305000,1.109712,0.560000,-1.400000,-1.260000
26.442750,-0.037576,0.237168,0.984784,-0.700000,2.800000,-0.420000
26.450837,-0.027816,0.227896,0.883768,-0.280000,1.680000,-2.100000
26.458924,-0.059048,0.272792,0.958920,1.400000,-0.980000,0.560000
26.467011,0.035624,0.297680,1.055544,1.260000,-1.400000,-1.120000
26.475098,-0.059048,0.252784,1.017968,-1.540000,3.220000,-1.120000
26.483185,-0.012200,0.223992,0.869616,0.280000,0.980000,-0.980000
26.491272,-0.061488,0.319640,0.955992,0.280000,-0.140000,-0.980000
26.499359,0.013664,0.258640,0.962824,-0.280000,-1.820000,0.000000
26.507446,-0.020984,0.289384,1.066768,-2.100000,2.240000,-1.540000
26.515533,-0.050264,0.195200,0.925248,-1.400000,2.520000,-1.260000
26.523620,-0.046360,0.253760,0.946232,1.540000,-0.280000,-0.280000
26.531707,0.004392,0.279624,1.016504,1.820000,-1.260000,-0.420000
26.539794,-0.006344,0.282552,1.020896,-0.280000,0.980000,-0.840000
26.547881,-0.047824,0.236192,0.930128,-1.680000,2.240000,-1.260000
26.555969,-0.044896,0.265960,0.926712,0.560000,0.980000,-0.980000
26.564056,-0.035136,0.274256,0.927200,0.280000,-1.260000,-0.280000
26.572143,0.028792,0.275720,1.031632,-1.540000,-1.260000,-0.700000
26.580230,-0.040992,0.263520,1.017968,-2.660000,3.640000,-1.680000
26.588317,-0.051728,0.210328,0.900848,-1.680000,2.380000,-1.120000
26.596404,-0.027816,0.227408,0.991616,1.820000,-1.540000,-0.700000
26.604491,0.016592,0.310856,1.062376,2.100000,-0.980000,0.140000
26.612578,-0.028304,0.266448,0.978928,-0.700000,2.520000,-1.820000
26.620665,-0.082960,0.251808,0.913536,-0.700000,2.520000,-0.840000
26.628752,-0.033184,0.223016,0.894992,0.980000,-0.560000,-0.700000
26.636839,0.010736,0.293776,1.040904,1.680000,-2.240000,-0.280000
26.644926,0.009272,0.286944,1.056032,-0.420000,0.840000,-0.840000
26.653013,-0.054656,0.235704,0.911584,-2.240000,3.920000,-1.820000
26.661100,-0.060512,0.236680,0.877424,-0.700000,0.280000,-0.560000
26.669187,-0.001952,0.275720,0.981856,0.000000,-1.820000,-0.420000
26.677275,0.010736,0.275232,1.083360,-0.700000,0.140000,-0.560000
26.685362,-0.043920,0.242048,1.024312,-1.120000,3.220000,-1.540000
26.693449,-0.080520,0.217160,0.901824,1.260000,1.820000,-0.980000
26.701536,-0.021472,0.273768,0.931592,3.640000,-1.820000,-0.280000
26.709623,0.048312,0.289872,0.994056,1.260000,-2.240000,-0.280000
26.717710,-0.019520,0.270352,1.053104,-0.980000,2.380000,-0.980000
26.725797,-0.077592,0.235704,0.955992,-0.140000,3.360000,-1.540000
26.733884,-0.062952,0.243024,0.848144,0.980000,-0.140000,-0.700000
26.741971,0.004880,0.264984,0.971120,0.140000,-1.960000,0.000000
26.750058,0.037088,0.291824,1.099952,0.000000,-0.700000,-1.120000
26.758145,-0.057096,0.259128,1.019432,-1.260000,4.060000,-1.680000
26.766232,-0.069296,0.225944,0.854000,-0.560000,2.380000,-0.840000
26.774319,-0.049776,0.238632,0.921344,0.560000,-1.540000,-0.840000
26.782406,0.030256,0.289872,1.033096,0.560000,-1.260000,0.140000
26.790493,0.007320,0.253760,1.042856,-0.700000,0.840000,-1.820000
26.798580,-0.076128,0.243512,0.967704,-1.540000,3.500000,-1.680000
26.806668,-0.070760,0.241072,0.852536,0.560000,0.140000,-0.700000
26.814755,0.000976,0.289384,0.948672,-0.840000,-2.380000,-0.280000
26.822842,0.043920,0.279136,1.090192,-1.540000,0.140000,-0.980000
26.830929,-0.068320,0.254736,1.021872,-1.960000,3.780000,-1.680000
26.839016,-0.085888,0.202032,0.856440,-1.260000,2.240000,-1.260000
26.847103,0.015616,0.247904,0.976000,0.840000,-2.800000,0.140000
26.855190,-0.000976,0.273768,1.081896,1.680000,-0.700000,-0.280000
26.863277,-0.007808,0.273768,1.008208,0.420000,2.240000,-1.540000
26.871364,-0.083448,0.244000,0.880352,-1.120000,2.800000,-1.120000
26.879451,-0.066856,0.241072,0.919392,0.280000,-0.140000,-0.420000
26.887538,0.035136,0.249368,0.986736,0.560000,-2.380000,-0.420000
26.895625,0.025864,0.267912,1.048712,0.000000,-0.280000,-0.560000
26.903712,-0.045872,0.286944,1.033584,-0.840000,3.640000,-1.960000
26.911799,-0.112240,0.242048,0.875472,-1.120000,2.520000,-0.840000
26.919886,0.000000,0.233264,0.890600,-1.260000,-1.120000,-0.560000
26.927974,0.029280,0.266936,1.042856,-0.280000,-1.960000,-0.280000
26.936061,-0.013176,0.278648,1.062376,-1.120000,1.260000,-1.260000
26.944148,-0.088328,0.244000,0.924760,-2.660000,4.200000,-1.400000
26.952235,-0.039040,0.203496,0.912072,-1.260000,-0.140000,-0.980000
26.960322,0.004392,0.258152,0.982344,0.700000,-1.820000,0.140000
26.968409,0.033184,0.284504,1.040416,-0.280000,-0.280000,-1.120000
26.976496,-0.061488,0.279624,1.013576,-1.820000,2.800000,-0.980000
26.984583,-0.066856,0.226432,0.914024,-1.820000,2.240000,-1.540000
26.992670,-0.038552,0.228384,0.915488,-1.400000,-0.280000,-0.140000
27.000757,0.026840,0.257176,1.001864,0.280000,-1.960000,-0.980000
27.008844,-0.013176,0.279624,1.038952,-0.980000,0.980000,-0.700000
27.016931,-0.052216,0.261568,0.969656,-2.940000,2.800000,-1.540000
27.025018,-0.078080,0.216184,0.924760,-2.240000,1.400000,-0.980000
27.033105,0.002928,0.234728,0.936960,0.000000,-2.240000,0.280000
27.041192,0.016104,0.301584,1.031144,-0.420000,-0.840000,-1.400000
27.049280,-0.036600,0.253760,1.003328,-3.220000,2.940000,-1.260000
27.057367,-0.076616,0.232776,0.955504,-2.660000,2.240000,-1.260000
27.065454,-0.039040,0.215696,0.866688,-2.660000,0.000000,-0.840000
27.073541,0.034160,0.266936,1.021384,-1.260000,-2.100000,0.280000
27.081628,-0.005368,0.293776,1.104832,-2.380000,1.120000,-1.680000
27.089715,-0.084912,0.210328,0.915000,-3.220000,3.640000,-1.120000
27.097802,-0.011224,0.221552,0.917440,-1.400000,0.000000,-1.400000
27.105889,-0.041968,0.265472,0.985760,-0.280000,-1.400000,0.280000
27.113976,0.055632,0.258152,1.017968,-0.980000,-0.700000,-1.120000
27.122063,-0.068320,0.285968,1.029192,-3.360000,3.360000,-1.540000
27.130150,-0.082960,0.192272,0.918416,-2.660000,2.800000,-1.120000
27.138237,-0.015616,0.230336,0.926712,-0.980000,-1.400000,-0.560000
27.146324,0.011712,0.246440,1.029680,0.280000,-1.120000,-0.420000
27.154411,0.004392,0.295728,1.014552,-1.820000,1.120000,-1.260000
27.162498,-0.073200,0.225456,0.972584,-3.360000,3.080000,-1.400000
27.170585,-0.053680,0.203984,0.933056,-0.980000,0.560000,-0.840000
27.178673,-0.008784,0.250344,0.961848,-0.280000,-1.680000,-0.280000
27.186760,0.017080,0.267424,1.034560,-1.540000,-0.280000,-0.980000
27.194847,-0.037088,0.228872,1.067744,-1.120000,2.240000,-1.260000
27.202934,-0.077592,0.206912,0.929152,-0.140000,2.100000,-0.980000
27.211021,-0.028304,0.255712,0.877912,0.000000,-0.420000,-0.980000
27.219108,-0.002440,0.248392,0.979416,0.000000,-0.840000,0.420000
27.227195,0.023424,0.273768,1.046760,-0.980000,-0.420000,-1.400000
27.235282,-0.067344,0.229360,0.975024,-2.240000,3.640000,-0.840000
27.243369,-0.040992,0.239120,0.973072,-1.120000,1.120000,-1.400000
27.251456,-0.066856,0.211304,0.915976,-0.420000,-0.420000,-0.420000
27.259543,0.067344,0.259128,0.982832,-0.140000,-1.260000,-0.280000
27.267630,-0.043920,0.285968,1.068720,-1.260000,0.840000,-1.540000
27.275717,-0.070272,0.215696,0.946232,-2.800000,2.800000,-0.840000
27.283804,-0.002928,0.223504,0.892064,-1.960000,0.840000,-1.400000
27.291891,-0.057096,0.226920,1.023824,-1.120000,-0.700000,0.280000
27.299979,0.023912,0.259616,0.997960,0.420000,-1.260000,-1.260000
27.308066,-0.033672,0.250344,0.981856,-1.400000,2.100000,-0.840000
27.316153,-0.053192,0.243512,1.001864,-2.520000,2.380000,-1.540000
27.324240,-0.049288,0.213744,0.965264,-1.400000,0.840000,-1.120000
27.332327,-0.010248,0.206424,0.918904,0.700000,-1.260000,0.280000
27.340414,0.012688,0.284504,1.007720,0.560000,0.140000,-1.540000
27.348501,-0.038552,0.252296,1.057496,-1.260000,0.980000,-0.280000
27.356588,-0.024888,0.207400,0.975024,-1.260000,2.100000,-1.820000
27.364675,-0.062952,0.245952,0.932568,-0.420000,1.540000,-0.560000
27.372762,-0.029768,0.241560,0.889136,-0.420000,-1.260000,-0.700000
27.380849,-0.008784,0.285480,1.001864,-1.960000,0.280000,-0.840000
27.388936,0.006344,0.213256,1.042856,-2.940000,0.280000,-0.560000
27.397023,-0.054656,0.217648,1.031144,-3.220000,2.800000,-1.960000
27.405110,-0.032208,0.215696,0.900848,-0.700000,0.560000,-0.560000
27.413197,-0.029280,0.243024,0.946720,-0.700000,-0.840000,-0.840000
27.421285,-0.023912,0.261568,1.022848,-0.700000,-0.700000,0.000000
27.429372,0.040504,0.246440,1.001864,-2.100000,0.000000,-1.540000
27.437459,-0.086864,0.249856,1.015528,-3.920000,4.200000,-1.260000
27.445546,-0.053680,0.183976,0.878400,-2.100000,0.420000,-0.700000
27.453633,-0.014640,0.247416,0.915976,-1.680000,-1.260000,-0.840000
27.461720,0.034648,0.267424,1.066280,-3.360000,-0.140000,-0.420000
27.469807,-0.069296,0.238144,1.074088,-3.920000,3.220000,-1.820000
27.477894,-0.068320,0.161040,0.921344,-2.100000,1.820000,-0.700000
27.485981,-0.017568,0.220576,0.912072,0.980000,-0.560000,-0.980000
27.494068,-0.003904,0.281576,1.048224,-0.420000,-1.120000,-0.280000
27.502155,0.006832,0.216184,0.992592,-1.680000,-0.140000,-0.560000
27.510242,-0.032208,0.215208,1.047736,-2.940000,3.080000,-1.680000
27.518329,-0.072224,0.213744,0.944280,-0.140000,1.680000,-0.700000
27.526416,-0.063928,0.235704,0.884744,1.680000,-0.420000,-0.840000
27.534503,0.045872,0.241560,1.029680,0.140000,-1.540000,-0.280000
27.542591,0.000488,0.265960,1.036024,-0.700000,0.560000,-0.980000
27.550678,-0.048312,0.233264,0.973072,-2.940000,2.800000,-1.260000
27.558765,-0.065880,0.205448,0.933544,-1.960000,2.100000,-1.120000
27.566852,-0.047824,0.203496,0.896456,0.140000,-0.980000,-0.560000
27.574939,0.022448,0.238632,1.063352,0.420000,-2.100000,-0.280000
27.583026,0.002928,0.244000,1.073112,-0.560000,0.980000,-1.400000
27.591113,-0.033672,0.223504,0.986736,-1.400000,3.220000,-1.120000
27.599200,-0.100528,0.218624,0.960872,0.700000,1.960000,-1.260000
27.607287,-0.025376,0.207400,0.846680,1.540000,-0.700000,-0.280000
27.615374,0.029768,0.265472,1.037976,0.560000,-2.100000,-0.560000
27.623461,-0.020008,0.246440,1.042368,-1.400000,0.840000,-0.560000
27.631548,0.010736,0.210816,0.978928,-2.380000,2.380000,-1.540000
27.639635,-0.125904,0.242048,0.946232,-1.540000,2.800000,-1.540000
27.647722,-0.025864,0.190808,0.888160,-0.280000,-0.700000,-0.140000
27.655809,0.023424,0.244976,1.036024,0.000000,-1.960000,-0.420000
27.663896,-0.004880,0.258640,1.078480,-1.680000,0.840000,-0.840000
27.671983,-0.022936,0.199592,0.978928,-1.120000,3.220000,-1.680000
27.680071,-0.072224,0.185928,0.916464,-0.420000,1.960000,-0.980000
27.688158,-0.077592,0.249856,0.968680,2.380000,-1.260000,-0.140000
27.696245,0.058072,0.231800,0.997960,0.700000,-1.120000,-0.560000
27.704332,0.000488,0.249368,1.050664,-0.420000,1.120000,-0.700000
27.712419,-0.058072,0.238632,0.956480,-1.820000,2.380000,-1.820000
27.720506,-0.092720,0.216184,0.899872,-1.540000,1.680000,-0.840000
27.728593,-0.025864,0.185440,0.949648,-0.420000,-0.980000,-0.840000
27.736680,0.041480,0.265472,0.993080,-0.140000,-2.100000,0.140000
27.744767,0.001464,0.254248,1.081408,-2.800000,1.820000,-2.100000
27.752854,-0.088328,0.202520,0.998448,-2.520000,3.780000,-0.700000
27.760941,-0.070760,0.175192,0.824720,0.000000,-0.140000,-1.120000
27.769028,0.021472,0.267912,1.014064,-0.280000,-1.960000,-0.420000
27.777115,0.022936,0.234240,1.104832,-0.840000,-0.280000,-0.280000
27.785202,-0.065880,0.204960,1.005768,-2.100000,3.080000,-1.820000
27.793289,-0.038552,0.190320,0.884256,-0.700000,2.520000,-1.260000
27.801376,-0.076616,0.262056,0.967216,0.420000,-0.840000,-0.420000
27.809464,0.037576,0.196664,0.986736,-0.140000,-1.680000,-0.420000
27.817551,0.006832,0.240584,1.095560,-0.140000,0.700000,-0.840000
27.825638,-0.065392,0.223992,0.965264,-1.400000,3.920000,-1.820000
27.833725,-0.089304,0.216184,0.884744,-0.280000,1.400000,-0.980000
27.841812,-0.024888,0.197152,0.916464,0.000000,-1.540000,-0.140000
27.849899,0.057096,0.275720,1.063352,-0.840000,-1.400000,-0.700000
27.857986,-0.040992,0.226432,0.992592,-2.520000,1.680000,-0.980000
27.866073,-0.037576,0.214232,0.959408,-4.620000,2.940000,-1.680000
27.874160,-0.069296,0.187392,0.975512,-0.560000,-0.560000,-1.120000
27.882247,-0.011224,0.226432,0.974536,-0.140000,-1.260000,0.560000
27.890334,0.054168,0.227408,1.070672,-0.280000,-0.420000,-1.680000
27.898421,-0.081008,0.240096,1.035048,-0.840000,3.360000,-0.560000
27.906508,-0.068320,0.160552,0.899872,-0.840000,2.800000,-1.820000
27.914595,-0.047336,0.228384,0.950624,1.120000,-0.980000,-0.280000
27.922682,0.012688,0.214232,0.963800,1.260000,-2.380000,-0.280000
27.930769,0.035624,0.282064,1.043344,-0.700000,0.140000,-0.840000
27.938857,-0.061976,0.241560,0.997960,-2.240000,2.380000,-0.980000
27.946944,-0.064904,0.207400,0.892552,-4.480000,2.940000,-1.680000
27.955031,-0.041480,0.190320,0.945256,-3.080000,-0.140000,-0.700000
27.963118,0.006832,0.214232,0.999424,-1.820000,-1.960000,0.000000
27.971205,0.004880,0.223992,1.095072,-2.100000,0.840000,-1.260000
27.979292,-0.029768,0.203984,1.008696,-1.680000,2.800000,-1.400000
27.987379,-0.106384,0.217160,0.904264,-0.840000,1.680000,-0.980000
27.995466,0.007320,0.215696,0.913048,-1.400000,-1.260000,-0.420000
28.003553,0.030256,0.234728,1.085312,-1.400000,-1.400000,-0.840000
28.011640,-0.046848,0.209352,1.045296,-1.960000,1.960000,-0.700000
28.019727,-0.032208,0.212768,0.896456,-2.100000,3.080000,-1.960000
28.027814,-0.104920,0.224480,0.947208,-2.380000,0.840000,-0.560000
28.035901,0.011224,0.195688,0.981368,-0.560000,-1.960000,-0.140000
28.043988,0.018544,0.236192,1.040904,-1.260000,-0.420000,-1.120000
28.052075,-0.031720,0.228872,1.036512,-2.660000,2.520000,-1.540000
28.060162,-0.068808,0.183488,0.918416,-2.800000,2.240000,-1.260000
28.068249,-0.028792,0.192760,0.905240,-2.380000,-0.280000,-0.280000
28.076337,0.010248,0.237656,1.044320,-0.980000,-1.960000,-0.420000
28.084424,0.002440,0.249856,1.039928,-1.960000,0.980000,-0.980000
28.092511,-0.085888,0.191296,0.954040,-4.200000,4.200000,-1.680000
28.100598,-0.055144,0.191784,0.951112,-2.380000,0.420000,-0.840000
28.108685,-0.036112,0.207400,0.935008,-0.560000,-1.820000,0.000000
28.116772,0.076616,0.222040,1.035536,-1.820000,-0.840000,-1.120000
28.124859,-0.044896,0.244488,1.087752,-2.380000,1.960000,-0.980000
28.132946,-0.099552,0.189832,0.913536,-3.500000,3.500000,-1.820000
28.141033,-0.003904,0.177144,0.903288,-2.800000,-0.280000,-0.420000
28.149120,-0.009760,0.209840,1.035048,-0.700000,-1.680000,-0.280000
28.157207,-0.000976,0.240096,1.073112,-0.980000,0.700000,-1.260000
28.165294,-0.035136,0.214232,0.984296,-2.520000,1.960000,-1.260000
28.173381,-0.105408,0.156160,0.930616,-3.080000,3.360000,-1.120000
28.181468,0.005368,0.189344,0.974048,-0.280000,-1.400000,-0.560000
28.189555,-0.009760,0.220576,1.014552,0.840000,-1.400000,-0.420000
28.197642,-0.005856,0.221552,0.988200,-0.280000,1.400000,-0.840000
28.205730,-0.030256,0.238632,1.039928,-1.260000,1.400000,-1.540000
28.213817,-0.091256,0.182024,0.901824,-2.800000,1.260000,-0.700000
28.221904,0.024400,0.209840,0.941840,-1.260000,0.000000,-1.540000
28.229991,-0.033672,0.219600,0.993080,-1.960000,-0.840000,0.140000
28.238078,-0.003416,0.200080,1.071160,-2.100000,0.280000,-1.400000
28.246165,-0.046848,0.207888,0.987712,-2.100000,2.520000,-1.540000
28.254252,-0.067832,0.196664,0.894992,-3.220000,1.820000,-0.560000
28.262339,0.005856,0.178608,0.978440,-2.520000,-0.980000,-0.840000
28.270426,0.000488,0.232288,1.059936,-1.260000,-0.840000,-0.420000
28.278513,-0.038064,0.228872,1.020896,-2.520000,2.240000,-1.400000
28.286600,-0.058072,0.171776,0.951112,-3.780000,1.680000,-1.400000
28.294687,-0.045872,0.177144,0.930616,-1.120000,0.420000,0.000000
28.302774,0.023424,0.220576,1.024312,-0.840000,-1.260000,-0.980000
28.310861,-0.030744,0.216184,1.024800,-2.100000,0.840000,-0.560000
28.318948,-0.040016,0.191784,1.003816,-2.800000,2.660000,-1.680000
28.327035,-0.072224,0.203984,0.912560,-2.240000,1.260000,-1.120000
28.335123,-0.001952,0.175680,0.958920,-1.680000,-1.120000,0.140000
28.343210,0.017080,0.228872,1.063840,-1.820000,-0.560000,-1.400000
28.351297,-0.047824,0.207888,0.996496,-3.080000,2.520000,-1.120000
28.359384,-0.056120,0.176656,0.952576,-3.220000,1.960000,-1.260000
28.367471,-0.027328,0.188856,0.964288,-1.260000,-0.840000,-0.280000
28.375558,0.035624,0.212280,1.079944,-0.980000,-0.840000,-0.700000
28.383645,-0.046360,0.203984,0.999424,-1.680000,2.100000,-1.400000
28.391732,-0.076128,0.195688,0.961360,-1.400000,1.680000,-0.980000
28.399819,-0.047824,0.148352,0.941352,-0.840000,0.700000,-1.120000
28.407906,0.027328,0.209840,1.015528,0.980000,-1.400000,-0.280000
28.415993,-0.000976,0.209840,1.057984,1.120000,-0.140000,-0.840000
28.424080,-0.051240,0.183976,1.029680,-0.700000,2.940000,-1.260000
28.432167,-0.056120,0.186904,0.932080,0.560000,1.400000,-0.840000
28.440254,-0.066368,0.197152,0.927200,1.120000,-0.280000,-0.560000
28.448341,0.026352,0.214232,0.975024,0.700000,-0.980000,-0.420000
28.456428,0.006344,0.218624,1.019432,-0.980000,-0.420000,-1.120000
28.464515,-0.052216,0.199104,1.031632,-2.240000,2.800000,-0.980000
28.472603,-0.057584,0.166408,0.972096,-1.120000,1.540000,-1.260000
28.480690,-0.041968,0.172264,0.937936,0.700000,-0.140000,-0.420000
28.488777,0.027816,0.240096,1.023336,2.100000,-1.400000,-0.420000
28.496864,-0.038552,0.181048,1.011136,-0.420000,1.120000,-0.980000
28.504951,-0.015616,0.200080,1.018456,-0.840000,1.680000,-1.120000
28.513038,-0.068808,0.179096,0.949648,-0.140000,1.540000,-0.980000
28.521125,-0.027816,0.183000,0.916952,0.980000,-0.140000,-0.420000
28.529212,0.015616,0.210328,1.050176,1.400000,-0.980000,-0.840000
28.537299,-0.069296,0.204472,1.017968,0.560000,1.400000,-0.280000
28.545386,-0.001464,0.185928,1.011136,-0.560000,1.400000,-1.960000
28.553473,-0.058072,0.189832,0.945744,0.140000,1.120000,-0.420000
28.561560,-0.026352,0.178608,0.901824,1.120000,-0.280000,-0.840000
28.569647,0.017568,0.245952,1.044320,0.140000,-0.700000,-0.420000
28.577734,-0.043920,0.161528,1.065304,-0.420000,1.540000,-0.980000
28.585821,-0.025376,0.182512,0.979416,0.140000,1.820000,-1.680000
28.593908,-0.066856,0.206424,0.954528,0.980000,0.420000,-0.140000
28.601996,-0.024888,0.193736,0.943792,1.400000,-0.280000,-0.840000
28.610083,0.037576,0.228872,1.017480,0.840000,-1.120000,-0.560000
28.618170,-0.061000,0.217160,1.035048,-1.120000,1.960000,-0.980000
28.626257,-0.048800,0.162504,0.922320,-2.660000,2.520000,-1.260000
28.634344,-0.021472,0.177632,0.946232,-0.700000,0.000000,-0.840000
28.642431,-0.041968,0.191296,1.010648,0.280000,-0.560000,-0.420000
28.650518,0.020008,0.204960,1.047736,0.280000,0.280000,-0.560000
28.658605,-0.050752,0.203984,1.004792,-1.260000,1.960000,-1.960000
28.666692,-0.073200,0.168360,0.968192,-0.700000,1.680000,-0.560000
28.674779,-0.011712,0.172752,0.938912,1.540000,-0.560000,-0.280000
28.682866,0.010248,0.216184,1.036024,1.400000,-1.120000,-0.840000
28.690953,-0.034648,0.186904,1.068720,0.980000,1.680000,-0.700000
28.699040,-0.039040,0.186904,0.946232,0.700000,1.680000,-1.260000
28.707127,-0.067344,0.188856,0.982344,1.260000,1.120000,-0.840000
28.715214,0.007320,0.199104,0.920856,3.080000,-1.960000,0.140000
28.723301,-0.010248,0.232288,1.024312,1.120000,0.000000,-1.260000
28.731389,-0.011712,0.212280,1.066280,-0.420000,1.540000,-0.560000
28.739476,-0.093208,0.124440,0.935008,-0.420000,3.080000,-1.680000
28.747563,-0.001464,0.189832,0.897920,1.540000,-0.420000,0.000000
28.755650,-0.006832,0.226920,1.053592,1.960000,-1.960000,-0.840000
28.763737,-0.047336,0.211792,1.035536,-0.280000,1.680000,-0.700000
28.771824,0.011712,0.168360,0.963312,-0.280000,1.820000,-1.400000
28.779911,-0.095160,0.199104,0.959408,-0.420000,1.540000,-0.840000
28.787998,0.006832,0.186904,0.960872,1.260000,-1.120000,-0.420000
28.796085,-0.009760,0.204472,1.030168,1.120000,0.000000,-0.980000
28.804172,-0.034648,0.192760,1.043344,-0.840000,1.960000,-1.120000
28.812259,-0.044408,0.172752,0.954528,0.560000,1.680000,-1.260000
28.820346,-0.051240,0.182512,0.925248,1.120000,-0.280000,-0.280000
28.828433,0.025376,0.203496,1.022848,2.240000,-1.540000,-0.560000
28.836520,-0.032208,0.230824,1.055544,1.260000,1.120000,-0.840000
28.844607,-0.030744,0.183976,0.942816,-0.980000,1.960000,-1.120000
28.852695,-0.057584,0.188368,0.977464,-0.280000,0.980000,-0.980000
28.860782,-0.039040,0.177632,0.914024,0.140000,0.560000,-0.560000
28.868869,0.013664,0.222040,0.977952,0.280000,-1.540000,-0.700000
28.876956,-0.027816,0.232288,1.039928,-2.240000,0.560000,-1.120000
28.885043,-0.028792,0.170312,1.015040,-3.780000,2.660000,-0.700000
28.893130,-0.061488,0.152256,0.953064,-1.680000,1.820000,-1.540000
28.901217,-0.038552,0.193248,0.913048,-0.140000,-0.700000,-0.420000
28.909304,0.019520,0.233752,1.012112,-1.260000,-1.260000,-0.700000
28.917391,-0.015616,0.204472,1.093120,-3.500000,1.120000,-1.260000
28.925478,-0.042944,0.149328,0.992104,-3.220000,3.220000,-1.120000
28.933565,-0.067832,0.175680,0.921344,-0.700000,0.700000,-0.980000
28.941652,-0.012688,0.198616,0.955504,-0.980000,-1.400000,-0.560000
28.949739,0.023424,0.200080,1.050176,-0.980000,-0.560000,-0.700000
28.957826,-0.058560,0.191784,1.061400,-2.520000,2.940000,-1.120000
28.965913,-0.038064,0.149816,0.975512,-1.400000,1.680000,-1.400000
28.974000,-0.061000,0.183976,0.914512,0.560000,0.140000,-0.560000
28.982088,-0.017568,0.221064,0.988200,0.000000,-0.840000,-0.560000
28.990175,0.021472,0.192272,0.986248,-2.240000,-0.420000,-0.560000
28.998262,-0.021960,0.201544,1.049688,-3.500000,1.680000,-1.260000
29.006349,-0.070760,0.184952,0.942328,-3.080000,2.520000,-1.260000
29.014436,-0.054168,0.173728,0.874008,-2.380000,-0.140000,-0.700000
29.022523,0.006344,0.221064,1.036512,-2.660000,-0.840000,-0.840000
29.030610,0.012200,0.175680,1.092144,-3.920000,0.000000,-0.840000
29.038697,-0.072712,0.155672,0.956968,-4.060000,3.220000,-1.540000
29.046784,-0.029280,0.185440,0.954040,-2.100000,0.980000,-1.400000
29.054871,-0.053192,0.202520,0.989664,-0.980000,-1.960000,0.000000
29.062958,0.023912,0.151768,1.049200,-2.940000,0.280000,-0.840000
29.071045,0.036112,0.191784,1.028216,-3.080000,1.960000,-1.680000
29.079132,-0.165432,0.201544,0.932080,-2.240000,2.800000,-0.840000
29.087219,-0.011712,0.191296,0.869616,-2.940000,-0.420000,-0.560000
29.095306,0.019032,0.177144,1.014064,-4.340000,-0.840000,-0.700000
29.103393,0.016104,0.175192,1.113128,-4.900000,0.700000,-1.680000
29.111481,-0.079056,0.186904,0.952576,-3.780000,2.660000,-1.540000
29.119568,-0.092720,0.170800,0.855952,-3.500000,0.980000,-0.140000
29.127655,0.071248,0.198128,1.029192,-5.040000,-2.660000,-1.400000
29.135742,-0.022448,0.186416,1.156072,-4.620000,0.980000,-0.140000
29.143829,-0.071248,0.138104,0.981368,-3.220000,4.060000,-2.380000
29.151916,-0.073688,0.179584,0.870104,-2.800000,0.140000,-0.840000
29.160003,0.010248,0.166408,0.943792,-2.660000,-1.540000,0.000000
29.168090,0.037088,0.225456,1.107760,-4.900000,-0.280000,-1.680000
29.176177,-0.067344,0.180072,1.011624,-5.320000,3.080000,-0.700000
29.184264,-0.062464,0.158112,0.918416,-5.320000,2.940000,-2.100000
29.192351,-0.058072,0.153232,0.894504,-5.040000,-0.280000,-0.140000
29.200438,0.020496,0.179096,1.081896,-5.460000,-0.980000,-0.420000
29.208525,0.017080,0.161528,1.124352,-4.900000,1.120000,-2.100000
29.216612,-0.108824,0.131272,0.899384,-3.220000,2.520000,-0.700000
29.224699,-0.030744,0.184464,0.959408,-2.520000,-0.560000,-1.260000
29.232786,0.002928,0.197152,0.973560,-3.220000,-1.960000,0.000000
29.240874,0.013176,0.161040,1.036512,-5.320000,0.980000,-1.260000
29.248961,-0.027816,0.178120,1.016992,-6.580000,4.480000,-2.100000
29.257048,-0.124928,0.128832,0.943304,-3.220000,1.260000,-0.280000
29.265135,0.000976,0.211792,1.016992,-2.940000,-1.540000,-0.840000
29.273222,0.037088,0.156648,1.004304,-5.180000,-0.560000,-0.840000
29.281309,-0.050752,0.163480,1.049688,-6.300000,3.360000,-1.820000
29.289396,-0.064416,0.138104,0.889136,-3.640000,1.400000,-1.540000
29.297483,-0.036112,0.192272,0.933544,-3.360000,-1.680000,0.560000
29.305570,0.049288,0.204960,1.110688,-6.580000,-1.120000,-2.100000
29.313657,-0.069296,0.154208,0.979416,-7.840000,3.220000,-0.980000
29.321744,-0.058560,0.091256,0.918904,-6.020000,2.800000,-1.680000
29.329831,-0.007320,0.139080,1.045296,-3.080000,-2.660000,0.280000
29.337918,0.004880,0.181536,1.144848,-2.940000,0.980000,-1.400000
29.346005,-0.070760,0.145424,0.959896,-3.220000,3.920000,-1.540000
29.354092,-0.090280,0.140056,0.907680,-1.680000,0.700000,-0.980000
29.362179,-0.005856,0.169824,0.971120,-1.960000,-1.400000,-0.420000
29.370267,0.061488,0.148840,1.052128,-2.240000,-1.260000,-0.560000
29.378354,-0.052704,0.188856,1.112640,-2.940000,2.100000,-1.400000
29.386441,-0.080032,0.104432,0.906704,-1.680000,2.800000,-1.400000
29.394528,-0.029768,0.160064,0.930128,-1.260000,-0.560000,-0.700000
29.402615,-0.018056,0.168848,1.052616,-0.840000,-0.980000,-0.280000
29.410702,0.027816,0.147864,1.040904,-0.560000,-0.980000,-0.280000
29.418789,-0.035624,0.152256,1.000888,-2.660000,4.060000,-2.100000
29.426876,-0.091256,0.183976,0.949648,-1.680000,1.400000,-0.560000
29.434963,-0.043920,0.123464,0.880352,-2.800000,-0.420000,-0.840000
29.443050,0.072712,0.199592,1.073600,-3.360000,-1.400000,-0.560000
29.451137,-0.042944,0.148352,1.070184,-3.500000,0.980000,-1.260000
29.459224,-0.105896,0.123952,0.964776,-3.780000,4.340000,-1.680000
29.467311,-0.006344,0.122000,0.934032,-1.540000,-0.840000,-0.420000
29.475398,-0.027328,0.141520,1.067744,0.000000,-1.540000,-0.420000
29.483485,0.017080,0.198128,1.036024,-0.140000,0.840000,-0.700000
29.491572,-0.067832,0.181048,0.967216,-2.800000,2.800000,-1.680000
29.499660,-0.069784,0.101016,0.944768,-3.500000,1.680000,-1.120000
29.507747,0.001952,0.131760,0.957944,0.000000,-2.380000,0.000000
29.515834,0.001952,0.197152,1.029680,-2.520000,-0.280000,-1.120000
29.523921,-0.026840,0.170312,1.055056,-3.500000,2.660000,-1.260000
29.532008,-0.087840,0.100040,0.971608,-3.780000,2.240000,-1.260000
29.540095,-0.023912,0.109312,0.955992,-1.960000,0.140000,-0.420000
29.548182,0.048312,0.183488,1.098000,0.980000,-1.960000,-0.700000
29.556269,-0.098576,0.122000,1.038952,0.560000,2.100000,-0.420000
29.564356,0.007808,0.152256,0.963800,-0.700000,1.540000,-2.100000
29.572443,-0.080032,0.167384,0.972096,0.000000,0.700000,-0.280000
29.580530,-0.015616,0.095160,0.952088,0.420000,-0.280000,-0.420000
29.588617,0.014152,0.173728,1.047736,1.120000,-0.840000,-1.260000
29.596704,-0.026352,0.168848,1.086776,0.560000,1.400000,-0.840000
29.604791,-0.066856,0.123952,0.912560,-0.560000,2.800000,-1.260000
29.612878,-0.036112,0.125904,0.966728,0.700000,-0.280000,-0.700000
29.620965,-0.001464,0.154696,1.055056,3.220000,-1.820000,0.000000
29.629052,-0.021960,0.177632,1.006256,1.820000,0.980000,-1.120000
29.637140,-0.029280,0.120048,1.000400,-0.700000,2.380000,-0.980000
29.645227,-0.074176,0.127856,0.999424,0.700000,1.400000,-1.120000
29.653314,-0.033184,0.134688,0.936472,2.800000,-0.140000,0.140000
29.661401,0.021472,0.155184,1.003328,3.080000,-1.260000,-0.980000
29.669488,-0.043920,0.186416,1.082384,0.980000,0.840000,-0.420000
29.677575,-0.024888,0.119560,0.985760,0.840000,2.240000,-1.400000
29.685662,-0.043920,0.157624,0.974536,1.400000,0.980000,-0.980000
29.693749,-0.054656,0.098576,0.945256,3.220000,-0.420000,-0.140000
29.701836,0.019032,0.200568,1.016504,3.360000,-1.120000,-0.560000
29.709923,-0.030256,0.151280,1.071648,0.560000,1.820000,-0.980000
29.718010,-0.037576,0.122976,0.982344,1.540000,2.100000,-0.980000
29.726097,-0.079544,0.137128,0.966728,2.800000,0.560000,-0.980000
29.734184,0.009272,0.151280,0.944280,4.200000,-1.680000,-0.140000
29.742271,-0.003416,0.192272,1.076528,3.220000,-0.280000,-0.980000
29.750358,-0.051240,0.123464,1.026752,0.700000,2.940000,-0.420000
29.758445,-0.032696,0.111264,0.977952,3.640000,0.980000,-1.400000
29.766533,-0.066368,0.134200,0.933056,4.480000,-0.280000,-0.140000
29.774620,0.025864,0.190320,1.030656,4.900000,-0.700000,-0.560000
29.782707,-0.028304,0.157136,1.054080,2.800000,0.420000,-0.700000
29.790794,-0.052216,0.132248,1.024312,2.660000,2.660000,-0.840000
29.798881,-0.036600,0.161040,0.934032,3.500000,0.840000,-1.260000
29.806968,-0.066856,0.117608,0.908656,4.760000,-0.700000,0.140000
29.815055,0.062464,0.194224,1.052128,3.920000,-1.820000,-0.980000
29.823142,-0.043920,0.174704,1.077016,1.820000,1.680000,-0.280000
29.831229,-0.042944,0.112728,0.988200,1.960000,2.800000,-1.540000
29.839316,-0.076128,0.128832,0.921344,4.340000,0.560000,-0.560000
29.847403,-0.028304,0.177144,0.959408,5.180000,-1.820000,0.280000
29.855490,0.042944,0.176656,1.060912,3.500000,-1.260000,-1.260000
29.863577,-0.026840,0.149816,1.078480,2.520000,2.240000,0.000000
29.871664,-0.069296,0.131272,0.957456,4.060000,2.100000,-2.100000
29.879751,-0.074664,0.164944,0.882792,3.920000,0.840000,-0.140000
29.887838,0.017080,0.161040,1.015040,3.360000,-1.540000,-0.560000
29.895925,0.006832,0.181048,1.083360,2.240000,-0.140000,-0.420000
29.904013,-0.026352,0.122000,1.024312,1.960000,2.660000,-0.980000
29.912100,-0.075640,0.143960,0.915976,3.920000,1.680000,-1.400000
29.920187,-0.060024,0.165432,0.951112,5.740000,-1.260000,0.280000
29.928274,0.046360,0.176656,1.064328,4.340000,-1.820000,-0.140000
29.936361,-0.020008,0.147864,1.098000,3.780000,2.380000,-1.400000
29.944448,-0.081984,0.144936,0.918904,4.200000,2.940000,-1.120000
29.952535,-0.050264,0.135176,0.933056,5.040000,-0.560000,-0.980000
29.960622,0.020984,0.174216,1.030656,6.440000,-2.800000,0.980000
29.968709,0.014152,0.173240,1.077016,5.180000,0.420000,-1.260000
29.976796,-0.054168,0.181536,1.017968,3.640000,3.920000,-1.260000
29.984883,-0.121024,0.115656,0.915000,5.320000,1.400000,-0.420000
29.992970,-0.005368,0.135664,0.923784,6.020000,-0.980000,-0.700000
