Time [s],lsm6dsv16x_acc_x [g],lsm6dsv16x_acc_y [g],lsm6dsv16x_acc_z [g],lsm6dsv16x_gyro_x [dps],lsm6dsv16x_gyro_y [dps],lsm6dsv16x_gyro_z [dps]
3.143772,-0.080520,0.149328,0.926224,11.200000,2.520000,-0.420000
3.151859,-0.014152,0.109800,0.927200,10.780000,-0.560000,-0.420000
3.159946,-0.006832,0.127368,1.047248,12.460000,-2.100000,0.140000
3.168034,-0.004392,0.164944,1.108736,12.740000,0.280000,-0.840000
3.176121,-0.094184,0.101992,0.997960,11.760000,3.500000,-0.560000
3.184208,-0.020496,0.078080,0.925248,14.000000,-0.980000,0.000000
3.192295,0.008784,0.182024,1.009184,15.680000,-1.960000,-0.140000
3.200382,-0.031720,0.181536,0.999424,13.860000,0.140000,0.140000
3.208469,-0.022448,0.151768,1.032120,11.340000,1.540000,-0.560000
3.216557,-0.040504,0.116144,0.984296,11.620000,0.980000,-0.700000
3.224644,-0.044408,0.150304,0.962824,13.580000,-0.140000,-0.280000
3.232731,-0.019032,0.162504,0.986248,12.740000,-1.540000,-0.140000
3.240818,-0.013664,0.139568,1.078968,12.460000,0.980000,-0.140000
3.248905,-0.036112,0.107360,1.025288,13.020000,1.260000,-0.840000
3.256993,-0.071736,0.127368,0.982832,16.799999,0.840000,0.140000
3.265080,-0.023912,0.203008,0.941840,17.219999,-1.680000,0.280000
3.273167,0.009760,0.167872,0.955504,13.160000,-0.420000,-0.280000
3.281254,0.009272,0.160552,1.179496,13.020000,0.280000,-0.280000
3.289341,-0.101992,0.129808,0.941352,15.120000,1.540000,-0.420000
3.297428,-0.013664,0.159576,0.873032,15.120000,1.120000,-0.560000
3.305516,-0.037088,0.176656,1.006744,15.400000,-1.680000,0.280000
3.313603,-0.020496,0.176168,1.048712,14.840000,-0.840000,0.280000
3.321690,0.027328,0.143472,1.052128,14.560000,1.120000,-0.560000
3.329777,-0.093208,0.177144,0.995032,16.100000,2.240000,-1.120000
3.337864,-0.059536,0.159576,0.895968,16.240000,0.700000,0.140000
3.345951,0.003904,0.176656,1.001864,17.080000,-3.500000,0.420000
3.354039,0.011224,0.167384,1.055056,15.680000,-0.420000,0.280000
3.362126,0.010736,0.206912,1.052128,15.680000,1.540000,-0.560000
3.370213,-0.125904,0.172752,0.898408,14.980000,2.520000,-0.980000
3.378300,-0.040016,0.182024,0.898408,14.700000,-0.280000,0.420000
3.386387,0.032696,0.201544,1.051640,15.680000,-3.080000,0.140000
3.394474,-0.015128,0.198616,1.054568,14.140000,0.700000,-0.140000
3.402562,-0.005368,0.176656,1.018456,14.700000,1.820000,-1.400000
3.410649,-0.118096,0.182024,0.940864,15.960000,0.980000,0.420000
3.418736,-0.005368,0.143960,0.939888,16.100000,-1.540000,0.560000
3.426823,0.063440,0.252296,1.064816,17.920000,-3.080000,0.140000
3.434910,-0.071736,0.198128,1.061888,16.379999,2.940000,-0.560000
3.442997,-0.060024,0.190808,0.916464,15.540000,2.520000,-0.840000
3.451085,-0.061976,0.170312,0.912072,16.379999,-0.980000,0.140000
3.459172,0.016592,0.190320,1.020408,17.360001,-1.540000,0.000000
3.467259,0.022936,0.260104,1.044808,17.639999,-1.120000,0.140000
3.475346,-0.080520,0.202032,0.993080,14.840000,2.940000,-0.700000
3.483433,-0.049776,0.191784,0.949648,15.120000,1.540000,-0.840000
3.491520,-0.016104,0.204472,0.927200,16.379999,-0.980000,0.420000
3.499608,-0.040504,0.231312,0.973560,15.540000,-0.420000,0.000000
3.507695,0.040016,0.220088,1.031632,15.820000,-0.840000,-0.280000
3.515782,-0.075152,0.223016,1.048712,15.260000,1.680000,-0.280000
3.523869,-0.043920,0.204472,0.918416,14.980000,1.260000,-0.700000
3.531956,-0.035624,0.239120,0.950136,15.260000,0.140000,0.140000
3.540044,-0.018544,0.216672,0.966728,15.960000,-1.400000,-0.280000
3.548131,-0.007808,0.241072,1.017480,15.260000,-0.560000,0.140000
3.556218,-0.004880,0.232288,1.047248,14.140000,1.120000,-0.840000
3.564305,-0.053192,0.202032,0.932080,14.000000,1.820000,-0.420000
3.572392,-0.043432,0.230824,0.944768,16.520000,-0.980000,0.280000
3.580479,-0.021960,0.265472,0.943304,15.820000,-1.120000,0.140000
3.588567,0.021960,0.255224,1.020896,13.860000,-0.980000,-0.140000
3.596654,-0.037088,0.275232,0.963800,11.200000,2.240000,-0.420000
3.604741,-0.046360,0.215696,0.943304,10.220000,2.380000,-0.840000
3.612828,-0.063928,0.222528,0.928664,11.900000,-0.280000,-0.280000
3.620915,-0.011224,0.246440,0.982832,12.740000,-1.680000,0.280000
3.629002,0.029768,0.280600,1.017968,11.200000,-0.700000,-0.280000
3.637090,-0.029280,0.262544,1.001376,8.400000,2.380000,-0.980000
3.645177,-0.062464,0.245952,0.894992,7.840000,2.520000,-0.980000
3.653264,-0.068808,0.211304,0.866688,9.240000,-0.140000,0.000000
3.661351,0.060512,0.268400,1.049688,9.800000,-2.940000,0.000000
3.669438,-0.031232,0.308904,0.997960,7.700000,0.700000,-0.420000
3.677525,-0.016592,0.327448,0.856928,2.800000,2.660000,-1.120000
3.685613,-0.067344,0.246440,0.940864,-0.980000,1.680000,-1.820000
3.693700,-0.080520,0.165920,0.927688,2.660000,-0.140000,0.560000
3.701787,0.075640,0.314760,1.027728,3.920000,-3.080000,-0.700000
3.709874,-0.045872,0.274744,0.968192,0.000000,2.380000,-0.840000
3.717961,-0.032208,0.252296,0.969656,-1.260000,2.800000,-1.540000
3.726048,-0.085400,0.206912,0.912560,-0.140000,0.980000,-1.120000
3.734136,-0.001464,0.223504,0.990152,2.380000,-2.240000,0.560000
3.742223,0.069296,0.292800,1.118496,2.100000,-0.840000,-1.260000
3.750310,-0.095648,0.249856,0.954528,1.680000,4.200000,-0.980000
3.758397,-0.053192,0.251320,0.880352,1.540000,0.700000,-1.400000
3.766484,-0.036600,0.229848,0.930128,1.540000,-1.540000,0.420000
3.774571,0.054656,0.278160,1.062376,2.240000,-2.100000,-0.840000
3.782659,-0.048800,0.275232,1.013576,0.140000,3.220000,-1.260000
3.790746,-0.061488,0.219112,0.914512,-0.140000,3.080000,-1.400000
3.798833,-0.058072,0.254248,0.921344,0.700000,-0.840000,-0.700000
3.806920,0.022448,0.242536,0.989176,1.120000,-1.820000,0.420000
3.815007,0.019032,0.284504,1.074088,0.140000,0.700000,-1.400000
3.823094,-0.086376,0.231312,0.929640,-0.700000,3.920000,-1.820000
3.831182,-0.074176,0.244488,0.901824,-0.140000,0.000000,-0.140000
3.839269,0.033184,0.239608,0.974536,0.840000,-2.520000,-0.560000
3.847356,0.025376,0.253760,1.093608,0.420000,0.560000,-0.420000
3.855443,-0.071248,0.268400,1.000400,0.420000,3.780000,-1.960000
3.863530,-0.096136,0.203496,0.893528,1.540000,1.120000,-0.420000
3.871617,0.030256,0.277184,0.906704,2.100000,-2.800000,0.140000
3.879705,0.016592,0.282064,1.049688,0.000000,0.000000,-1.120000
3.887792,-0.047336,0.251320,1.033096,-0.980000,2.940000,-0.980000
3.895879,-0.097600,0.230336,0.884256,-0.980000,3.220000,-1.680000
3.903966,-0.010736,0.204960,0.910608,0.700000,-1.960000,-0.140000
3.912053,0.047336,0.298656,1.074088,0.840000,-1.260000,-0.420000
3.920140,-0.044408,0.259128,1.070672,0.420000,1.820000,-0.980000
3.928228,-0.076128,0.219600,0.929640,0.000000,3.080000,-1.680000
3.936315,-0.030744,0.236192,0.876936,1.400000,0.000000,-0.420000
3.944402,0.021960,0.267424,0.984296,1.820000,-2.660000,-0.140000
3.952489,-0.004392,0.270352,1.073112,0.000000,0.420000,-1.120000
3.960576,-0.067344,0.248880,0.971608,-0.420000,3.780000,-0.700000
3.968664,-0.059048,0.219600,0.896944,0.000000,0.700000,-1.680000
3.976751,-0.027816,0.241072,0.970632,1.260000,-1.680000,0.560000
3.984838,0.054656,0.272792,1.055544,1.820000,-1.400000,-1.120000
3.992925,-0.085400,0.277672,0.975024,-0.420000,3.640000,-1.680000
4.001012,-0.045384,0.217648,0.906704,-1.120000,2.240000,-1.120000
4.009099,-0.023912,0.213256,0.922808,0.140000,-1.120000,-0.280000
4.017187,0.044408,0.257664,1.080920,1.400000,-1.400000,-0.420000
4.025274,-0.046360,0.265960,1.090192,2.380000,2.800000,-1.260000
4.033361,-0.094184,0.236680,0.884744,1.820000,2.240000,-0.980000
4.041448,-0.006344,0.248392,0.892064,1.540000,-1.260000,-0.420000
4.049535,0.033184,0.253272,1.014552,1.540000,-0.840000,-0.560000
4.057622,-0.040016,0.289872,1.083360,1.260000,1.120000,-0.840000
4.065710,-0.071736,0.209352,0.920368,0.420000,2.940000,-1.540000
4.073797,-0.031720,0.224968,0.919880,1.260000,0.280000,-0.280000
4.081884,0.021472,0.246440,1.012112,3.780000,-1.680000,-0.420000
4.089971,-0.029768,0.265472,1.073600,3.640000,0.280000,-0.700000
4.098058,-0.039528,0.269376,0.955016,2.380000,2.240000,-0.840000
4.106145,-0.060024,0.231800,0.879376,1.120000,1.120000,-1.120000
4.114233,-0.015616,0.228384,0.955016,2.660000,-1.120000,0.140000
4.122320,0.029768,0.304024,1.019432,2.940000,-1.120000,-0.700000
4.130407,-0.040504,0.259128,0.996496,0.420000,1.960000,-1.260000
4.138494,-0.064904,0.229848,0.922320,-0.700000,2.800000,-0.980000
4.146581,-0.021960,0.245464,0.942328,0.280000,-0.560000,-1.120000
4.154668,0.001464,0.261568,1.031144,1.960000,-1.400000,0.140000
4.162756,-0.017080,0.237656,1.073112,1.820000,1.260000,-1.400000
4.170843,-0.059536,0.248880,0.899384,1.260000,2.240000,-0.840000
4.178930,-0.020496,0.256200,0.921344,1.120000,-0.420000,-0.560000
4.187017,-0.015616,0.265960,0.963800,1.120000,-0.560000,-0.560000
4.195104,-0.001464,0.256688,1.038952,0.420000,0.420000,-0.980000
4.203191,-0.076128,0.231312,1.014552,-0.280000,3.220000,-1.540000
4.211279,-0.020496,0.219112,0.975512,2.940000,-0.700000,-0.140000
4.219366,-0.022936,0.277184,0.915976,3.920000,-0.420000,-0.420000
4.227453,0.012200,0.266448,1.001864,0.840000,0.000000,-1.120000
4.235540,-0.045872,0.234728,1.040416,0.700000,2.940000,-1.260000
4.243627,-0.056120,0.216672,0.912072,2.240000,0.840000,-0.840000
4.251714,-0.022448,0.280600,0.953064,3.920000,-1.540000,0.000000
4.259802,0.009760,0.266448,0.964288,1.820000,-0.280000,-0.560000
4.267889,-0.022448,0.262056,1.058472,0.420000,2.380000,-1.960000
4.275976,-0.061000,0.230336,0.972096,1.540000,0.840000,-0.140000
4.284063,-0.040016,0.228872,0.885232,3.360000,-0.560000,-0.420000
4.292150,0.022448,0.278160,1.012112,3.080000,-0.700000,-0.700000
4.300237,-0.040992,0.264008,1.028704,1.960000,1.540000,-0.840000
4.308325,-0.039528,0.245464,0.958920,1.260000,1.680000,-1.540000
4.316412,-0.035136,0.250344,0.870104,1.540000,0.140000,0.000000
4.324499,-0.012688,0.255224,0.968192,1.820000,-1.400000,-0.560000
4.332586,-0.007808,0.294264,1.071648,-0.420000,0.980000,-0.980000
4.340673,-0.065392,0.220576,0.981856,-0.280000,3.080000,-1.120000
4.348760,-0.026352,0.197152,0.899872,2.100000,-0.140000,-0.560000
4.356848,0.022448,0.291824,1.005280,3.920000,-1.960000,-0.560000
4.364935,-0.028304,0.307928,1.032608,0.560000,1.540000,-1.120000
4.373022,-0.078568,0.210816,0.949648,-1.260000,3.640000,-0.980000
4.381109,0.000976,0.183488,0.913536,2.520000,-0.560000,-0.700000
4.389196,-0.004880,0.313784,0.987712,4.200000,-1.540000,0.140000
4.397283,-0.014640,0.276208,1.092144,1.260000,0.840000,-1.400000
4.405371,-0.085888,0.227408,1.031144,2.100000,2.800000,-0.420000
4.413458,-0.025376,0.221064,0.833504,5.180000,-0.840000,-0.560000
4.421545,0.005856,0.305976,0.889624,2.100000,-0.420000,-0.840000
4.429632,0.002928,0.283528,1.060424,-0.140000,-0.560000,-0.560000
4.437719,-0.062464,0.241560,1.050664,-0.980000,3.360000,-1.400000
4.445806,-0.035624,0.195688,0.923784,2.660000,0.420000,-0.840000
4.453894,-0.014152,0.262056,0.946720,4.620000,-0.980000,-0.280000
4.461981,0.010248,0.301096,1.014064,2.100000,0.140000,-0.980000
4.470068,-0.056120,0.265472,0.982832,0.000000,2.660000,-1.400000
4.478155,-0.044896,0.211304,0.929152,1.680000,1.260000,-0.980000
4.486242,-0.021960,0.268400,0.960384,2.940000,-1.120000,-0.560000
4.494329,-0.013176,0.256200,1.060912,1.680000,0.000000,0.000000
4.502417,-0.004880,0.248880,0.951600,1.820000,2.100000,-1.540000
4.510504,-0.078080,0.267424,0.925736,2.660000,0.980000,-0.840000
4.518591,-0.035624,0.248880,0.943792,2.380000,-1.260000,0.000000
4.526678,0.024400,0.242536,1.106784,2.100000,-0.140000,-1.120000
4.534765,-0.048312,0.219112,0.954528,2.660000,2.800000,-0.420000
4.542852,-0.036600,0.282064,0.877424,3.920000,-0.280000,-1.400000
4.550939,-0.024888,0.287920,0.927200,3.080000,-1.260000,0.420000
4.559027,0.042456,0.284016,1.103856,0.420000,0.140000,-1.540000
4.567114,-0.085888,0.202520,1.030656,1.400000,3.920000,-0.840000
4.575201,-0.037088,0.232288,0.882792,5.320000,-0.420000,-0.840000
4.583288,-0.017080,0.292800,0.959896,3.920000,-1.120000,-0.280000
4.591375,0.016104,0.264496,1.026752,2.240000,0.700000,-0.560000
4.599462,-0.041480,0.251808,1.008208,2.100000,2.660000,-1.820000
4.607550,-0.079544,0.241072,0.853024,3.780000,0.700000,0.000000
4.615637,0.000000,0.301584,0.949160,2.660000,-2.380000,-0.420000
4.623724,0.009760,0.272792,1.068232,0.140000,0.700000,-0.840000
4.631811,-0.034160,0.245952,1.006744,0.420000,2.940000,-1.400000
4.639898,-0.101504,0.202520,0.853512,2.380000,1.820000,-0.700000
4.647985,0.060512,0.295240,0.996008,3.780000,-3.780000,0.000000
4.656073,-0.047824,0.273768,1.114592,1.400000,2.100000,-0.840000
4.664160,-0.058560,0.217648,0.946720,2.660000,3.360000,-1.260000
4.672247,-0.040016,0.252784,0.824232,4.200000,-1.260000,-0.700000
4.680334,0.003904,0.310368,0.984296,2.520000,-1.540000,-0.140000
4.688421,0.027328,0.284992,1.064816,0.280000,0.000000,-0.840000
4.696508,-0.109312,0.231312,0.952576,-0.560000,4.480000,-1.400000
4.704596,-0.014152,0.211792,0.882792,1.260000,0.000000,-0.700000
4.712683,0.017080,0.288896,1.049688,3.640000,-2.940000,0.140000
4.720770,-0.022448,0.288408,1.103856,1.540000,2.240000,-1.260000
4.728857,-0.063440,0.225944,0.880352,2.520000,3.080000,-1.260000
4.736944,-0.050264,0.277184,0.867664,3.780000,-1.960000,-0.280000
4.745031,0.064904,0.282064,1.039928,1.400000,-1.680000,-0.420000
4.753119,-0.020008,0.272304,1.114592,1.680000,2.520000,-0.980000
4.761206,-0.128832,0.195688,0.869616,2.940000,3.080000,-1.260000
4.769293,-0.012688,0.274256,0.906216,3.920000,-1.540000,0.000000
4.777380,0.042456,0.284016,1.059448,3.220000,-1.680000,0.000000
4.785467,-0.041480,0.286456,1.028704,1.680000,2.940000,-1.540000
4.793554,-0.070760,0.252296,0.847168,1.260000,2.520000,-1.540000
4.801641,-0.052216,0.240096,0.901336,1.120000,-0.420000,0.000000
4.809729,0.048800,0.274256,1.125328,2.380000,-2.100000,-0.560000
4.817816,-0.025376,0.267912,1.005768,2.800000,2.380000,-1.400000
4.825903,-0.119072,0.235704,0.900360,2.800000,3.080000,-0.840000
4.833990,0.004392,0.264984,0.929640,3.920000,-2.660000,0.140000
4.842077,0.060024,0.287432,1.010160,2.800000,-1.540000,-0.700000
4.850164,-0.039040,0.304512,1.010648,-0.420000,4.060000,-1.680000
4.858252,-0.105896,0.243512,0.901824,0.140000,1.540000,-0.840000
4.866339,-0.024400,0.226432,0.933056,1.120000,-1.260000,0.000000
4.874426,0.039528,0.260104,1.082384,2.940000,-0.700000,-0.280000
4.882513,-0.033672,0.292800,0.949648,1.820000,2.520000,-1.960000
4.890600,-0.096624,0.244000,0.898896,1.260000,1.540000,-0.840000
4.898687,0.020984,0.271328,0.986248,2.240000,-2.800000,0.280000
4.906775,0.005856,0.291824,1.022360,0.700000,0.140000,-0.840000
4.914862,-0.035624,0.286456,0.964288,-0.700000,3.780000,-1.960000
4.922949,-0.090280,0.192272,0.902800,0.000000,1.820000,-0.280000
4.931036,0.040016,0.281576,1.018456,3.360000,-3.640000,-0.140000
4.939123,-0.013176,0.304512,1.068720,1.960000,1.960000,-1.400000
4.947210,-0.118584,0.225944,0.901824,0.980000,4.200000,-0.840000
4.955298,0.019032,0.262544,0.861320,1.680000,-2.240000,-0.980000
4.963385,0.000976,0.276696,1.034560,1.820000,-1.120000,0.280000
4.971472,-0.002440,0.285480,1.101904,1.820000,1.400000,-1.820000
4.979559,-0.085400,0.244488,0.871080,0.840000,2.520000,-0.980000
4.987646,-0.031720,0.248392,0.905240,2.240000,-0.840000,0.000000
4.995733,0.033184,0.279136,1.096048,1.960000,-1.260000,-0.840000
5.003821,-0.042944,0.270840,0.979904,2.100000,2.380000,-0.840000
5.011908,-0.068808,0.277672,0.898408,0.420000,2.800000,-2.100000
5.019995,-0.020496,0.236192,0.955016,2.100000,-1.680000,0.560000
5.028082,0.029280,0.268400,1.066280,2.660000,-0.980000,-0.840000
5.036169,-0.046848,0.315736,0.934520,0.140000,4.200000,-1.960000
5.044256,-0.070272,0.223504,0.876448,0.840000,1.120000,-0.420000
5.052343,-0.001464,0.248392,1.008696,1.960000,-2.380000,-0.280000
5.060431,0.010248,0.292312,1.062864,2.940000,0.560000,-0.560000
5.068518,-0.078568,0.283528,0.898896,0.280000,3.500000,-2.100000
5.076605,-0.059048,0.239120,0.897432,0.000000,0.140000,0.000000
5.084692,0.070760,0.266448,1.061400,2.520000,-3.780000,-0.560000
5.092779,-0.056608,0.314272,1.019432,0.280000,3.080000,-1.260000
5.100866,-0.064416,0.207400,0.892552,0.140000,2.660000,-1.260000
5.108954,-0.009272,0.294264,0.929152,1.820000,-3.080000,0.140000
5.117041,0.019032,0.285480,1.098976,0.700000,0.140000,-0.840000
5.125128,-0.057096,0.266936,0.963312,0.000000,3.780000,-1.260000
5.133215,-0.073688,0.243024,0.829600,0.000000,1.120000,-0.980000
5.141302,0.034648,0.259128,1.006256,0.420000,-2.240000,0.000000
5.149389,0.001952,0.307440,1.066280,1.120000,0.420000,-1.120000
5.157477,-0.098576,0.250344,0.971120,-0.980000,4.200000,-1.960000
5.165564,-0.043432,0.208376,0.900360,1.820000,-0.560000,0.280000
5.173651,0.070760,0.305488,1.037488,2.660000,-2.660000,-1.400000
5.181738,-0.063928,0.262544,1.010160,0.840000,3.780000,-0.420000
5.189825,-0.052216,0.259128,0.904264,1.400000,0.840000,-1.400000
5.197912,-0.040992,0.283528,0.905240,0.560000,-0.700000,-0.420000
5.206000,0.048800,0.271328,0.996496,0.840000,-1.680000,0.000000
5.214087,-0.059536,0.286944,1.079456,-1.260000,3.500000,-2.100000
5.222174,-0.088328,0.197640,0.888648,0.840000,2.240000,-0.420000
5.230261,0.054168,0.299632,0.933056,2.100000,-2.940000,-0.840000
5.238348,-0.042944,0.272792,1.037976,0.140000,0.980000,-0.280000
5.246435,-0.036112,0.276696,1.047736,0.700000,2.240000,-1.540000
5.254522,-0.075152,0.254248,0.849608,-0.420000,1.820000,-0.700000
5.262610,0.014640,0.247416,0.930616,0.840000,-1.400000,-0.280000
5.270697,-0.003416,0.301584,1.038952,-0.280000,-0.280000,-0.980000
5.278784,-0.055144,0.248392,1.004304,0.000000,2.240000,-1.120000
5.286871,-0.031232,0.284504,0.901824,-0.560000,1.960000,-1.540000
5.294958,-0.041968,0.213256,0.905728,-1.120000,-1.120000,0.000000
5.303045,0.022448,0.301096,1.061888,0.280000,-0.840000,-0.840000
5.311133,-0.046360,0.281576,1.006256,-0.980000,2.380000,-1.260000
5.319220,-0.051728,0.245464,0.921832,-1.540000,1.680000,-0.840000
5.327307,-0.009272,0.231312,0.936472,-0.280000,-1.260000,-0.700000
5.335394,0.010736,0.301096,1.044320,0.420000,-0.980000,-0.700000
5.343481,-0.046360,0.284992,1.008208,-1.400000,3.080000,-1.400000
5.351568,-0.048312,0.237656,0.917440,-1.120000,0.840000,-0.700000
5.359656,-0.025864,0.247416,0.930128,-0.700000,-0.560000,-0.840000
5.367743,0.019520,0.284016,1.006744,-0.140000,-0.560000,-0.700000
5.375830,-0.052216,0.277184,1.040904,-1.540000,3.080000,-1.260000
5.383917,-0.053192,0.215208,0.916952,-0.700000,1.260000,-0.840000
5.392004,-0.020984,0.282064,0.944280,1.400000,-1.120000,-0.420000
5.400091,0.002928,0.274744,0.960872,-0.560000,-0.280000,-0.700000
5.408178,-0.018056,0.274744,1.058960,-1.400000,1.120000,-1.400000
5.416266,-0.068808,0.223016,0.965264,-0.560000,2.380000,-0.840000
5.424353,-0.023912,0.233752,0.905240,0.700000,-0.140000,-0.840000
5.432440,0.003416,0.281576,1.006744,1.960000,-1.680000,-0.280000
5.440527,-0.013664,0.305976,0.992592,-0.140000,1.260000,-0.700000
5.448614,-0.038064,0.268400,0.978928,-2.660000,2.380000,-1.960000
5.456701,-0.074176,0.213744,0.891576,-1.260000,0.560000,-0.140000
5.464789,0.030256,0.281088,0.963312,0.420000,-1.820000,-0.980000
5.472876,-0.021960,0.279624,1.077016,-1.120000,1.400000,-0.700000
5.480963,-0.054168,0.222528,1.032120,-0.140000,2.520000,-1.120000
5.489050,-0.046848,0.252784,0.878400,1.960000,-0.140000,-0.840000
5.497137,0.012688,0.284992,0.914024,1.120000,-1.260000,-0.420000
5.505224,-0.008296,0.302072,1.079456,-0.980000,0.560000,-0.840000
5.513311,-0.043920,0.244000,0.988688,-1.540000,2.520000,-1.400000
5.521399,-0.051240,0.236192,0.902312,-0.980000,1.400000,-0.980000
5.529486,-0.031232,0.232288,0.945744,1.120000,-1.260000,-0.280000
5.537573,0.000000,0.302560,1.045784,0.560000,-0.560000,-0.840000
5.545660,-0.017568,0.255712,1.012112,-1.120000,2.660000,-1.120000
5.553747,-0.050752,0.221064,0.933056,0.140000,1.540000,-0.980000
5.561834,-0.056120,0.217160,0.931104,2.100000,-0.280000,-0.420000
5.569922,0.032696,0.302072,1.042856,3.360000,-1.960000,-0.280000
5.578009,-0.022448,0.292800,1.002352,0.840000,1.680000,-1.120000
5.586096,-0.047824,0.244976,0.964288,-0.980000,2.800000,-0.980000
5.594183,-0.048800,0.231800,0.958920,1.260000,0.420000,-1.120000
5.602270,-0.063440,0.253272,0.894504,2.940000,-0.420000,0.000000
5.610357,0.082960,0.300120,1.013088,1.680000,-1.960000,-0.980000
5.618444,-0.054656,0.285968,1.057008,-1.260000,2.380000,-1.120000
5.626532,-0.066856,0.224480,0.951112,-0.140000,2.240000,-0.840000
5.634619,-0.036112,0.239608,0.852048,0.700000,0.840000,-1.540000
5.642706,-0.014152,0.270840,1.001864,0.560000,-1.260000,0.140000
5.650793,0.027328,0.294264,1.040416,0.000000,-0.560000,-0.980000
5.658880,-0.059536,0.242048,0.959408,-2.240000,3.360000,-1.120000
5.666967,-0.040016,0.245464,0.927200,-0.140000,1.540000,-1.540000
5.675055,-0.070272,0.257176,0.875472,0.000000,-0.980000,0.000000
5.683142,0.059048,0.280112,1.036024,-0.840000,-2.380000,-0.700000
5.691229,-0.026352,0.300608,1.081408,-2.660000,2.660000,-1.540000
5.699316,-0.081984,0.191784,0.936960,-2.520000,3.640000,-1.120000
5.707403,-0.033184,0.215208,0.918904,0.840000,-0.840000,-0.980000
5.715490,0.002440,0.284504,1.026752,2.940000,-1.820000,0.700000
5.723577,0.023424,0.301096,1.056032,0.560000,1.260000,-1.820000
5.731665,-0.101016,0.238144,0.915976,-0.840000,3.640000,-0.980000
5.739752,-0.048312,0.203496,0.891576,0.560000,0.420000,-0.840000
5.747839,0.026840,0.302560,0.990640,1.960000,-3.500000,-0.280000
5.755926,0.007808,0.269376,1.069696,0.840000,0.840000,-0.280000
5.764013,-0.044896,0.271816,0.997472,-1.260000,3.780000,-2.240000
5.772100,-0.099552,0.217648,0.874984,-0.280000,1.960000,-0.840000
5.780188,0.003904,0.257176,0.916952,1.260000,-2.800000,0.000000
5.788275,0.036600,0.286456,1.057496,0.420000,-0.980000,-0.560000
5.796362,-0.008296,0.257176,1.082384,-0.560000,2.660000,-0.980000
5.804449,-0.108336,0.208864,0.904752,1.820000,2.800000,-1.540000
5.812536,-0.047824,0.269376,0.872544,1.960000,-0.840000,0.000000
5.820623,0.050264,0.274256,1.032608,1.400000,-1.820000,-0.280000
5.828711,-0.017080,0.255224,1.101416,1.260000,0.840000,-0.840000
5.836798,-0.049288,0.248880,0.929152,0.700000,3.360000,-1.540000
5.844885,-0.095648,0.262544,0.899384,1.540000,1.260000,-0.980000
5.852972,-0.007320,0.224968,0.926224,1.400000,-1.820000,-0.140000
5.861059,0.042456,0.282064,1.056032,2.240000,-1.820000,-0.420000
5.869146,-0.028304,0.270840,1.067744,1.400000,2.380000,-1.120000
5.877233,-0.087352,0.245952,0.886696,0.560000,3.080000,-1.400000
5.885321,-0.041968,0.212280,0.901824,1.680000,-0.280000,-0.560000
5.893408,0.035136,0.291336,1.004304,2.380000,-2.380000,-0.140000
5.901495,-0.004880,0.289384,1.038952,1.820000,0.140000,-0.700000
5.909582,-0.051728,0.266448,0.988688,-1.260000,3.780000,-1.820000
5.917669,-0.092720,0.223992,0.873520,0.560000,1.960000,-0.700000
5.925756,0.006344,0.247416,0.917440,0.840000,-2.520000,-0.280000
5.933844,0.033672,0.290360,1.062864,0.700000,-0.840000,-0.420000
5.941931,-0.045872,0.263520,1.061888,-0.700000,3.640000,-1.680000
5.950018,-0.113216,0.194224,0.926712,0.700000,2.380000,-1.400000
5.958105,0.004880,0.237656,0.885232,3.500000,-2.380000,0.980000
5.966192,0.050264,0.319640,1.038464,2.800000,-1.540000,-1.400000
5.974279,-0.051728,0.274256,1.020896,0.140000,2.520000,-0.280000
5.982366,-0.050752,0.236680,0.938912,0.000000,2.800000,-1.820000
5.990454,-0.075640,0.235704,0.906216,0.560000,0.560000,-0.560000
5.998541,0.043920,0.273768,0.993568,2.240000,-3.080000,0.000000
6.006628,-0.022448,0.286456,1.035536,0.420000,1.120000,-1.400000
6.014715,-0.014640,0.245952,0.964288,-0.700000,2.520000,-1.260000
6.022802,-0.112240,0.248392,0.909144,0.000000,2.240000,-0.980000
6.030889,0.025864,0.212768,0.999424,1.540000,-2.100000,0.280000
6.038977,0.021960,0.287432,1.071160,3.500000,-0.980000,-0.700000
6.047064,-0.063928,0.278160,0.947696,0.840000,3.780000,-2.240000
6.055151,-0.052216,0.244976,0.919392,-0.140000,1.400000,-0.280000
6.063238,-0.040504,0.222040,0.913048,1.400000,-1.120000,-0.700000
6.071325,0.051240,0.296704,1.035536,1.260000,-1.820000,0.000000
6.079412,-0.025864,0.278648,1.040904,0.980000,1.680000,-1.400000
6.087499,-0.109800,0.245952,0.931592,-0.840000,3.640000,-1.400000
6.095587,0.014152,0.208376,0.903776,1.120000,-0.980000,-0.280000
6.103674,-0.002440,0.250344,1.023336,3.080000,-1.540000,-0.280000
6.111761,0.011224,0.309880,1.051152,2.240000,0.000000,-0.840000
6.119848,-0.081008,0.286456,0.915976,0.000000,3.640000,-1.680000
6.127935,-0.062464,0.227896,0.883280,-1.680000,1.260000,-0.560000
6.136022,0.030744,0.224968,0.984296,0.140000,-1.960000,-0.420000
6.144110,-0.024888,0.301096,1.114104,2.100000,-0.280000,-0.980000
6.152197,-0.076128,0.256200,0.938424,0.000000,4.060000,-0.980000
6.160284,-0.028304,0.213256,0.889136,-0.420000,0.840000,-1.260000
6.168371,-0.024400,0.237168,0.979416,2.520000,-0.840000,0.000000
6.176458,0.044408,0.310856,1.038464,2.660000,-1.400000,-0.840000
6.184545,-0.091744,0.274744,0.969656,0.000000,2.380000,-0.980000
6.192633,-0.014640,0.221552,0.973560,-0.980000,2.100000,-1.260000
6.200720,-0.044896,0.258152,0.914512,0.560000,-0.420000,-0.420000
6.208807,-0.015128,0.267424,0.984296,2.100000,-1.400000,-0.280000
6.216894,0.025376,0.290360,0.994544,-0.280000,0.560000,-1.400000
6.224981,-0.068808,0.243512,1.011624,-1.960000,3.220000,-0.980000
6.233068,-0.039040,0.222528,0.954040,0.000000,0.420000,-1.120000
6.241155,-0.012688,0.255712,0.920368,2.520000,-0.980000,0.280000
6.249243,0.004392,0.292800,1.014064,1.400000,-0.420000,-1.120000
6.257330,-0.040504,0.268888,1.061400,-0.560000,1.960000,-1.120000
6.265417,-0.060512,0.197640,0.938912,1.260000,1.960000,-0.840000
6.273504,-0.017080,0.240584,0.906704,2.660000,-0.280000,-0.980000
6.281591,-0.009760,0.288408,1.003328,3.220000,-0.840000,0.000000
6.289678,-0.033672,0.278648,1.029192,1.260000,0.840000,-1.120000
6.297765,-0.007320,0.233752,0.970144,0.140000,1.960000,-1.400000
6.305853,-0.051240,0.266936,0.899384,1.260000,0.840000,-0.560000
6.313940,-0.035624,0.272792,0.906704,0.560000,-0.700000,-0.840000
6.322027,0.007808,0.282064,1.057496,-0.420000,-0.840000,-0.420000
6.330114,-0.055144,0.248880,1.016016,-1.260000,3.080000,-1.540000
6.338201,-0.016592,0.205448,0.919392,-0.420000,0.700000,-0.980000
6.346288,-0.031232,0.276696,0.969656,2.100000,-1.540000,-0.140000
6.354376,0.001464,0.275232,0.969656,0.280000,0.000000,-0.980000
6.362463,-0.008784,0.250832,1.059448,-0.980000,1.820000,-1.260000
6.370550,-0.105896,0.238632,0.937936,1.120000,2.240000,-0.560000
6.378637,0.017080,0.249368,0.882792,1.540000,-1.540000,-0.560000
6.386724,0.000976,0.289872,1.038952,1.400000,-1.120000,-0.420000
6.394811,-0.045384,0.266936,1.049200,0.560000,2.100000,-1.120000
6.402898,-0.055144,0.242048,0.908168,-0.560000,2.240000,-1.260000
6.410986,-0.028304,0.232288,0.936472,0.560000,0.000000,-0.420000
6.419073,-0.013176,0.277672,0.987224,1.400000,-0.700000,-0.420000
6.427160,-0.009760,0.246928,1.019432,1.120000,-0.140000,-1.120000
6.435247,-0.010248,0.259616,0.996984,-0.560000,2.520000,-1.820000
6.443334,-0.078080,0.267424,0.894992,0.000000,1.120000,-0.560000
6.451421,-0.027816,0.237168,0.918904,-0.280000,-0.840000,-0.280000
6.459508,0.019520,0.272304,1.050664,0.140000,-0.840000,-1.260000
6.467596,-0.029768,0.278160,1.026752,-0.700000,2.240000,-0.980000
6.475683,-0.067344,0.200080,0.953064,-0.980000,2.800000,-1.260000
6.483770,-0.021960,0.239120,0.957456,2.660000,-0.980000,-0.560000
6.491857,-0.009760,0.266936,0.967216,3.360000,-0.840000,-0.140000
6.499944,0.004880,0.299144,0.984296,1.260000,0.140000,-0.980000
6.508031,-0.045384,0.262056,1.018944,-1.540000,2.380000,-0.980000
6.516119,-0.063928,0.224480,0.941840,-0.280000,1.820000,-1.120000
6.524206,-0.009760,0.246928,0.899384,1.120000,-1.260000,-0.560000
6.532293,0.002440,0.279136,0.992592,0.560000,-0.700000,-0.420000
6.540380,-0.005856,0.286944,1.069696,-0.980000,0.700000,-1.540000
6.548467,-0.072712,0.237656,0.948672,-1.540000,3.500000,-0.840000
6.556554,-0.029768,0.207400,0.889136,0.280000,0.000000,-1.260000
6.564641,-0.020984,0.293288,0.985272,0.980000,-1.540000,-0.280000
6.572729,0.003904,0.263520,1.018456,-0.280000,0.140000,-0.560000
6.580816,-0.031720,0.259128,1.013576,-1.820000,2.100000,-1.540000
6.588903,-0.042456,0.218624,0.930616,-0.560000,1.680000,-0.840000
6.596990,-0.047824,0.257664,0.945256,1.400000,-0.560000,-0.560000
6.605077,0.015616,0.272792,0.978440,1.260000,-1.120000,-0.560000
6.613164,-0.031232,0.267912,1.050664,-0.980000,1.680000,-0.980000
6.621252,-0.042456,0.253760,0.946720,-1.960000,2.100000,-1.120000
6.629339,-0.037576,0.220088,0.922808,-0.420000,1.120000,-1.120000
6.637426,-0.017568,0.258152,0.976000,1.820000,-1.120000,-0.280000
6.645513,-0.010736,0.264008,1.042856,0.700000,-0.420000,-0.840000
6.653600,-0.009272,0.248392,1.005280,-0.700000,2.100000,-0.840000
6.661687,-0.061488,0.236680,0.937448,0.560000,1.820000,-1.540000
6.669774,-0.044896,0.227408,0.921832,1.820000,-0.420000,-0.280000
6.677862,0.001952,0.292312,0.991128,2.240000,-0.840000,-0.560000
6.685949,-0.009760,0.261568,1.015040,-0.280000,0.280000,-0.840000
6.694036,-0.021960,0.234240,1.023824,-0.840000,2.800000,-1.260000
6.702123,-0.065880,0.259616,0.931104,1.400000,1.260000,-1.120000
6.710210,-0.035624,0.241560,0.890112,2.380000,-0.980000,-0.280000
6.718297,0.031232,0.272792,1.043832,0.560000,-1.400000,-0.560000
6.726384,-0.036600,0.239608,1.056032,0.700000,2.380000,-0.980000
6.734472,-0.059536,0.225456,0.947208,1.120000,2.100000,-0.980000
6.742559,-0.049776,0.242048,0.944768,2.940000,0.280000,-1.120000
6.750646,-0.014640,0.275720,0.918904,3.780000,-1.680000,0.560000
6.758733,0.021960,0.266936,1.027240,1.120000,0.000000,-1.540000
6.766820,-0.051240,0.253760,1.066768,0.560000,2.240000,-0.420000
6.774907,-0.032208,0.229360,0.883280,1.400000,1.400000,-1.400000
6.782995,-0.061000,0.249856,0.919392,1.680000,0.280000,-0.840000
6.791082,0.008784,0.292312,0.957944,2.520000,-2.380000,0.140000
6.799169,0.007808,0.275232,1.065304,-0.980000,1.120000,-1.540000
6.807256,-0.051728,0.225456,1.019432,-0.700000,3.640000,-0.700000
6.815343,-0.077592,0.243024,0.870104,1.400000,1.120000,-1.260000
6.823430,-0.013664,0.249368,0.899384,0.840000,-1.260000,-0.280000
6.831517,0.057584,0.284016,1.102880,0.700000,-1.820000,-0.280000
6.839605,-0.076128,0.266936,1.053104,-0.980000,3.500000,-1.680000
6.847692,-0.037576,0.212768,0.834968,0.420000,1.680000,-0.700000
6.855779,-0.039528,0.266448,0.929640,0.560000,-0.280000,-0.980000
6.863866,0.013664,0.274256,1.037976,0.840000,-2.240000,0.000000
6.871953,-0.003416,0.264496,1.053592,0.140000,1.680000,-1.120000
6.880040,-0.060512,0.232776,0.912560,-1.680000,3.220000,-1.540000
6.888127,-0.072224,0.239120,0.918416,0.140000,0.560000,-0.700000
6.896215,-0.008784,0.265472,0.957456,1.120000,-1.820000,-0.280000
6.904302,0.027816,0.250832,1.067256,-1.120000,0.140000,-1.120000
6.912389,-0.026352,0.245952,1.008696,-0.980000,3.360000,-0.980000
6.920476,-0.101504,0.234728,0.912560,1.260000,1.680000,-1.680000
6.928563,-0.020008,0.275232,0.915976,1.400000,-1.540000,0.280000
6.936650,0.036112,0.254736,1.013576,0.700000,-1.260000,-0.840000
6.944738,-0.027816,0.269376,1.083360,-0.980000,2.380000,-1.120000
6.952825,-0.065392,0.215696,0.915976,0.700000,1.540000,-0.840000
6.960912,-0.048800,0.253272,0.894016,0.840000,0.420000,-0.980000
6.968999,0.009760,0.269864,1.000888,1.120000,-1.820000,0.000000
6.977086,-0.001952,0.264008,1.062376,-0.280000,0.420000,-1.260000
6.985173,-0.030256,0.229848,0.969168,-1.260000,2.660000,-0.840000
6.993260,-0.082472,0.244976,0.928176,1.540000,1.120000,-0.980000
7.001348,-0.019520,0.252296,0.907192,1.680000,-1.540000,-0.560000
7.009435,0.035136,0.278160,1.050664,0.420000,-0.700000,-0.420000
7.017522,-0.036600,0.253272,1.046272,-1.400000,2.660000,-1.400000
7.025609,-0.061000,0.221064,0.931592,0.000000,2.380000,-1.120000
7.033696,-0.046360,0.242048,0.879864,1.960000,-0.560000,-0.700000
7.041783,0.031232,0.281576,0.993080,1.820000,-2.240000,-0.420000
7.049870,-0.016104,0.282064,1.067744,-0.840000,1.120000,-0.560000
7.057958,-0.052216,0.231800,0.983320,-1.400000,3.220000,-1.960000
7.066045,-0.062952,0.221552,0.905240,0.700000,0.840000,-0.420000
7.074132,-0.005368,0.233752,0.917440,1.400000,-1.540000,-0.560000
7.082219,0.012688,0.295728,1.099952,0.560000,-0.420000,-0.700000
7.090306,-0.051728,0.239608,1.041392,0.140000,3.220000,-1.120000
7.098393,-0.068808,0.215208,0.879864,1.400000,1.540000,-0.840000
7.106481,0.015128,0.246440,0.930128,3.360000,-1.540000,-0.560000
7.114568,-0.015616,0.286944,1.070184,2.380000,-0.700000,-0.420000
7.122655,-0.027816,0.233752,1.058472,1.680000,2.100000,-0.840000
7.130742,-0.055632,0.224968,0.907680,2.380000,2.240000,-1.680000
7.138829,-0.029768,0.244000,0.874008,3.360000,-0.140000,-0.280000
7.146916,-0.019520,0.306464,1.024312,3.220000,-1.540000,-0.560000
7.155003,-0.014640,0.245952,1.063840,2.100000,0.000000,0.140000
7.163091,0.000976,0.215696,0.948672,1.680000,2.940000,-2.100000
7.171178,-0.084912,0.257664,0.916464,2.240000,1.120000,-0.420000
7.179265,-0.020984,0.251808,0.913048,3.360000,-1.400000,-0.560000
7.187352,0.029280,0.297192,1.037000,1.820000,-0.840000,-0.140000
7.195439,-0.027816,0.262544,1.047736,0.000000,2.100000,-1.680000
7.203526,-0.084424,0.231312,0.935008,0.420000,3.220000,-1.120000
7.211613,-0.016104,0.195688,0.869616,2.940000,-1.120000,-0.560000
7.219701,-0.005368,0.273280,1.084824,2.660000,-0.700000,-0.280000
7.227788,0.018056,0.263032,1.057984,3.360000,0.280000,-0.700000
7.235875,-0.077592,0.270840,0.911584,2.520000,3.080000,-1.680000
7.243962,-0.069784,0.241560,0.842288,1.960000,0.420000,-0.140000
7.252049,0.030744,0.264008,1.022360,2.240000,-2.660000,-0.560000
7.260136,0.005368,0.285968,1.082872,0.980000,0.700000,-0.280000
7.268223,-0.046848,0.213256,1.009672,1.260000,2.800000,-1.960000
7.276311,-0.081008,0.218624,0.872056,3.500000,1.820000,-0.140000
7.284398,-0.009760,0.281088,0.898408,4.620000,-2.380000,0.000000
7.292485,0.030744,0.301584,1.092144,1.260000,-0.980000,-1.260000
7.300572,-0.049776,0.261080,0.994056,-0.140000,3.360000,-0.700000
7.308659,-0.082960,0.208864,0.885232,1.540000,2.240000,-1.680000
7.316746,0.006832,0.238144,0.973560,3.500000,-3.080000,0.280000
7.324833,0.032696,0.294264,1.096048,3.780000,-0.840000,-0.280000
7.332921,-0.068320,0.283040,0.947696,1.680000,3.640000,-1.960000
7.341008,-0.060512,0.213744,0.843752,0.420000,1.960000,-0.560000
7.349095,-0.032696,0.254736,0.969656,2.520000,-1.820000,-0.420000
7.357182,0.029768,0.267424,1.136064,2.380000,-1.540000,-0.140000
7.365269,-0.031720,0.253272,1.018456,3.500000,2.940000,-0.980000
7.373356,-0.071736,0.263032,0.789584,2.520000,2.660000,-1.820000
7.381443,-0.023912,0.254248,0.908168,0.840000,-0.840000,0.000000
7.389531,0.026352,0.270352,1.096536,1.540000,-1.960000,-0.420000
7.397618,-0.034160,0.275232,1.081408,1.820000,2.520000,-1.400000
7.405705,-0.111752,0.220576,0.858392,2.100000,3.640000,-0.980000
7.413792,0.017568,0.266936,0.857904,1.120000,-2.520000,-0.560000
7.421879,0.028304,0.274744,1.045784,1.120000,-1.400000,0.000000
7.429966,-0.019520,0.290848,1.080920,0.140000,1.960000,-1.680000
7.438054,-0.113216,0.228872,0.882792,-0.420000,3.780000,-1.260000
7.446141,-0.009272,0.201056,0.940864,1.260000,-1.540000,-0.140000
7.454228,0.039040,0.296216,1.052616,3.780000,-1.960000,-0.280000
7.462315,-0.039528,0.294752,0.983808,0.280000,3.080000,-1.680000
7.470402,-0.091256,0.251808,0.929640,-0.980000,2.940000,-0.840000
7.478489,-0.009760,0.204960,0.916952,1.540000,-1.960000,-0.420000
7.486576,0.036600,0.270840,1.066280,2.240000,-1.400000,0.000000
7.494664,-0.028304,0.284504,1.007720,1.960000,2.100000,-1.540000
7.502751,-0.091256,0.272792,0.891088,-0.140000,3.220000,-1.400000
7.510838,-0.039040,0.234240,0.933056,-0.140000,-0.700000,0.140000
7.518925,0.040992,0.241560,1.016016,1.820000,-2.380000,-0.700000
7.527012,-0.002928,0.287432,1.055544,1.120000,2.100000,-1.540000
7.535099,-0.094184,0.248392,0.934520,-0.280000,3.500000,-1.260000
7.543186,-0.052216,0.243512,0.907192,1.400000,-1.120000,0.000000
7.551274,0.054168,0.282552,0.964288,1.120000,-2.240000,-0.420000
7.559361,-0.026840,0.264496,1.027728,-0.700000,1.960000,-1.260000
7.567448,-0.068808,0.236192,1.002840,-0.700000,3.780000,-1.960000
7.575535,-0.061488,0.217648,0.936960,2.660000,-1.400000,0.420000
7.583622,0.053192,0.311832,0.965752,3.080000,-1.820000,-0.700000
7.591709,-0.012688,0.294264,0.984296,-1.400000,1.820000,-1.400000
7.599796,-0.089792,0.245464,0.989664,-1.820000,3.640000,-0.840000
7.607884,-0.023424,0.204472,0.918416,-0.140000,-0.560000,-1.260000
7.615971,-0.007320,0.254248,1.003328,2.520000,-1.540000,0.840000
7.624058,-0.004392,0.280112,1.030656,1.680000,1.260000,-1.820000
7.632145,-0.054656,0.272304,0.948672,-0.420000,1.960000,-1.400000
7.640232,-0.062952,0.243024,0.919392,0.000000,0.980000,-0.140000
7.648319,0.011712,0.237168,0.935496,-0.140000,-1.260000,-0.840000
7.656406,0.003416,0.284992,1.038464,0.700000,-0.840000,-0.700000
7.664494,-0.061488,0.293776,1.022848,-1.680000,3.500000,-1.540000
7.672581,-0.045384,0.197640,0.912560,-1.680000,1.540000,-0.700000
7.680668,-0.015616,0.239120,0.943792,0.980000,-1.540000,-0.420000
7.688755,0.022448,0.289384,1.037000,1.680000,-0.980000,-0.700000
7.696842,-0.042944,0.272304,1.028704,0.700000,1.960000,-1.260000
7.704929,-0.071736,0.239120,0.916464,-0.420000,2.660000,-0.840000
7.713016,0.003416,0.238632,0.935984,0.140000,-0.700000,-1.120000
7.721104,-0.055632,0.281576,0.971608,1.400000,-0.280000,0.140000
7.729191,0.024400,0.272304,1.012600,-0.560000,0.000000,-1.680000
7.737278,-0.041480,0.257664,0.986248,-2.100000,2.660000,-1.120000
7.745365,-0.082472,0.225944,0.946720,-0.420000,1.260000,-0.560000
7.753452,0.017568,0.230824,1.004792,1.960000,-1.540000,-0.700000
7.761539,-0.011712,0.277672,1.014552,3.360000,-0.140000,0.000000
7.769626,-0.024888,0.275232,0.947208,-0.560000,1.960000,-2.100000
7.777714,-0.060512,0.242536,0.962336,-0.980000,1.680000,-0.280000
7.785801,-0.020496,0.212280,0.910120,1.680000,-0.980000,-0.700000
7.793888,0.002928,0.324032,0.975512,1.120000,-1.120000,-0.420000
7.801975,-0.000976,0.260104,1.048224,-0.980000,0.840000,-0.980000
7.810062,-0.076616,0.240096,0.981368,-1.260000,3.080000,-1.400000
7.818149,-0.030744,0.216672,0.891576,0.420000,0.560000,-0.560000
7.826236,0.002928,0.248880,0.996984,1.820000,-1.540000,-0.560000
7.834324,-0.022936,0.287432,1.063840,1.120000,0.280000,-0.840000
7.842411,-0.024400,0.259616,0.989664,-0.280000,2.660000,-1.120000
7.850498,-0.057584,0.227896,0.905728,0.280000,1.400000,-0.980000
7.858585,-0.025864,0.230336,0.952088,2.100000,-0.980000,-0.420000
7.866672,-0.004392,0.316224,0.986248,1.960000,-0.840000,-0.420000
7.874759,-0.030744,0.269376,0.986736,-1.960000,2.940000,-1.540000
7.882846,-0.027816,0.217160,0.951112,-1.680000,1.120000,-0.700000
7.890934,-0.050752,0.232776,0.942328,1.260000,-0.280000,-0.840000
7.899021,0.024400,0.305000,1.009672,0.700000,-1.120000,-0.280000
7.907108,-0.027816,0.245952,1.053592,-0.840000,1.820000,-1.400000
7.915195,-0.062952,0.239608,0.966728,-0.140000,2.800000,-1.260000
7.923282,-0.032208,0.214720,0.858880,1.400000,-0.560000,-0.420000
7.931369,0.002440,0.280600,1.030656,1.820000,-0.700000,-0.560000
7.939456,-0.020496,0.258152,1.067256,0.980000,0.560000,-0.420000
7.947544,-0.051728,0.225944,0.947208,0.700000,2.100000,-1.540000
7.955631,-0.043920,0.270840,0.921344,1.680000,0.980000,-0.700000
7.963718,-0.022936,0.261568,0.913048,2.100000,-1.680000,-0.140000
7.971805,0.005856,0.267424,1.057984,0.980000,-0.700000,-0.840000
7.979892,-0.002928,0.276208,1.040904,-0.700000,1.540000,-0.840000
7.987979,-0.065880,0.212280,0.876448,-0.420000,2.800000,-1.540000
7.996066,-0.049776,0.275232,0.914512,0.420000,0.420000,-0.700000
8.004154,0.002440,0.249368,1.002840,0.420000,-1.960000,-0.560000
8.012241,-0.014152,0.273280,1.039928,-0.840000,0.560000,-0.560000
8.020328,-0.009760,0.236192,0.999424,-1.680000,2.660000,-1.820000
8.028415,-0.094184,0.244488,0.913048,0.560000,1.680000,-0.700000
8.036502,0.000000,0.234240,0.898896,0.560000,-1.400000,-0.560000
8.044589,0.008296,0.310856,1.049200,-0.840000,-1.260000,-0.280000
8.052676,-0.006832,0.247416,1.069208,-1.400000,2.660000,-1.400000
8.060764,-0.095160,0.201544,0.925248,-0.280000,3.080000,-1.260000
8.068851,-0.043920,0.218136,0.890112,2.380000,-0.560000,-0.280000
8.076938,0.039528,0.304024,1.032120,2.660000,-2.520000,-0.560000
8.085025,-0.020496,0.272304,1.043344,-0.420000,1.120000,-0.700000
8.093112,-0.033672,0.234240,0.986248,-1.120000,2.940000,-1.400000
8.101199,-0.087352,0.210328,0.881816,0.840000,2.100000,-1.260000
8.109286,-0.017080,0.279624,0.961360,2.240000,-2.380000,0.280000
8.117374,0.025864,0.280600,0.997960,0.420000,-1.120000,-0.840000
8.125461,0.003904,0.271816,1.038952,-1.120000,1.960000,-0.700000
8.133548,-0.072712,0.221064,0.979904,-0.420000,3.080000,-2.240000
8.141635,-0.087352,0.219600,0.850096,1.260000,0.140000,0.280000
8.149722,0.053680,0.287920,0.998448,1.400000,-2.940000,-0.840000
8.157809,-0.006344,0.289384,1.057984,-0.700000,0.840000,-0.560000
8.165896,-0.046848,0.232288,0.983808,-2.100000,3.920000,-1.820000
8.173984,-0.076128,0.204472,0.901336,-0.280000,1.820000,-1.260000
8.182071,-0.020984,0.261568,0.964288,2.240000,-3.080000,0.420000
8.190158,0.023424,0.289384,1.076528,0.280000,-0.280000,-1.120000
8.198245,0.001464,0.241072,1.003328,-0.420000,2.240000,-0.980000
8.206332,-0.118584,0.197640,0.869616,0.980000,3.640000,-1.540000
8.214419,-0.012200,0.267424,0.971608,2.940000,-2.940000,0.000000
8.222506,0.031720,0.298168,1.017480,0.980000,-1.540000,-0.420000
8.230594,-0.018544,0.252296,1.054080,-1.680000,3.640000,-1.680000
8.238681,-0.076128,0.222040,0.905728,0.000000,2.660000,-1.260000
8.246768,-0.073200,0.218136,0.917928,1.680000,-0.980000,-0.280000
8.254855,0.068320,0.264496,1.082384,2.380000,-1.680000,-0.420000
8.262942,-0.031720,0.244488,1.036512,2.800000,2.100000,-0.840000
8.271029,-0.090768,0.254736,0.895968,1.540000,3.220000,-1.820000
8.279116,-0.034160,0.248392,0.920856,2.940000,-0.980000,-0.140000
8.287203,0.011224,0.252296,0.994056,3.220000,-1.960000,-0.140000
8.295291,0.037088,0.274744,1.095072,1.540000,0.560000,-1.260000
8.303378,-0.085400,0.235216,0.946720,2.800000,3.920000,-0.980000
8.311465,-0.081984,0.227408,0.915488,2.380000,0.840000,-1.120000
8.319552,-0.001952,0.238144,0.970632,4.620000,-2.100000,0.560000
8.327639,0.040504,0.269864,1.031632,4.340000,-0.980000,-0.560000
8.335726,-0.032208,0.294752,0.996008,2.520000,3.500000,-1.820000
8.343813,-0.094184,0.234240,0.937448,2.520000,1.540000,-0.700000
8.351901,-0.020496,0.234240,0.884256,3.500000,-1.120000,-0.280000
8.359988,0.045872,0.276208,1.034560,3.500000,-1.820000,-0.560000
8.368075,-0.030744,0.280600,1.039440,1.820000,1.680000,-0.840000
8.376162,-0.069784,0.234728,0.937448,1.400000,3.080000,-1.400000
8.384249,-0.050752,0.246440,0.921832,2.520000,0.140000,-0.700000
8.392336,-0.005856,0.244488,0.959408,3.360000,-1.400000,0.140000
8.400423,0.022936,0.293776,1.053104,3.220000,-0.700000,-0.840000
8.408511,-0.052704,0.289384,0.973072,0.000000,2.660000,-1.820000
8.416598,-0.073688,0.190808,0.912072,0.000000,2.240000,-0.280000
8.424685,0.011712,0.229848,1.003328,3.640000,-2.100000,-0.420000
8.432772,-0.008784,0.290360,1.026752,4.340000,-0.420000,-0.140000
8.440859,-0.026352,0.295728,0.960872,1.960000,2.660000,-1.820000
8.448946,-0.093208,0.246928,0.884256,-0.140000,2.100000,-0.840000
8.457033,0.016104,0.208376,0.976488,0.980000,-1.400000,-0.420000
8.465121,0.003416,0.292312,1.065792,3.360000,-1.400000,-0.980000
8.473208,-0.071248,0.290848,1.002840,1.400000,2.800000,-0.980000
8.481295,-0.049776,0.207400,0.902800,-0.140000,2.520000,-0.980000
8.489382,-0.005856,0.200568,0.889136,3.920000,-1.260000,-0.280000
8.497469,0.033184,0.338184,1.055056,2.940000,-1.680000,-0.840000
8.505556,-0.051728,0.258152,1.028704,1.260000,2.240000,-0.700000
8.513643,-0.058072,0.239120,0.949160,1.540000,1.820000,-1.120000
8.521731,-0.023912,0.212280,0.914512,2.660000,0.000000,-0.700000
8.529818,0.001952,0.286944,0.975024,4.760000,-1.680000,0.140000
8.537905,0.000000,0.314760,1.036512,0.980000,0.700000,-1.680000
8.545992,-0.076128,0.244000,0.939400,-0.700000,3.220000,-0.700000
8.554079,-0.030256,0.205448,0.912072,0.980000,0.420000,-0.840000
8.562166,0.015128,0.284504,1.005768,2.660000,-2.380000,-0.420000
8.570253,-0.039528,0.274256,1.069208,1.540000,2.100000,-0.980000
8.578341,-0.050752,0.246928,0.926224,1.540000,2.240000,-0.980000
8.586428,-0.043432,0.241560,0.876936,1.820000,-0.280000,-0.980000
8.594515,0.032696,0.283040,0.990640,2.100000,-1.540000,0.140000
8.602602,-0.031232,0.283528,1.094096,0.420000,1.260000,-1.540000
8.610689,-0.088816,0.219600,0.945256,0.560000,3.640000,-0.420000
8.618776,-0.007808,0.237168,0.905728,3.920000,-1.540000,-0.560000
8.626863,0.009760,0.316224,0.935984,1.820000,-0.980000,-0.980000
8.634951,-0.015128,0.285968,1.040904,-0.420000,1.260000,-0.700000
8.643038,-0.052704,0.237656,1.005768,-1.400000,2.380000,-1.680000
8.651125,-0.049776,0.181536,0.926712,2.380000,0.700000,0.280000
8.659212,0.037576,0.311832,0.957944,3.780000,-1.820000,-1.260000
8.667299,-0.077592,0.292312,1.013576,-0.420000,1.820000,-0.280000
8.675386,-0.009272,0.233264,0.977464,-0.560000,2.100000,-1.540000
8.683473,-0.057096,0.248392,0.895968,1.400000,-0.140000,-0.700000
8.691560,-0.004392,0.266936,0.960872,1.120000,-1.260000,-0.140000
8.699648,0.008296,0.291824,1.074576,-1.120000,1.260000,-1.540000
8.707735,-0.064904,0.200568,0.947208,0.420000,2.800000,-0.560000
8.715822,-0.028792,0.288896,0.913048,1.960000,-0.840000,-1.120000
8.723909,-0.017080,0.272304,0.985272,0.140000,-0.980000,-0.280000
8.731996,-0.014152,0.268888,1.063352,-0.700000,1.540000,-0.840000
8.740083,-0.076128,0.209352,0.957944,0.560000,3.220000,-1.540000
8.748170,-0.001464,0.274744,0.857416,1.540000,-1.120000,-0.700000
8.756258,-0.001464,0.281088,1.040416,0.840000,-0.980000,-0.420000
8.764345,-0.015616,0.251808,1.126792,0.560000,1.260000,-0.700000
8.772432,-0.071248,0.240096,0.874984,1.540000,1.960000,-1.540000
8.780519,-0.040504,0.262056,0.837896,1.260000,0.700000,-0.420000
8.788606,0.036112,0.286456,1.037488,0.840000,-1.820000,-0.700000
8.796693,-0.051240,0.276208,1.109224,-0.280000,0.560000,-0.420000
8.804780,-0.034160,0.193736,0.926712,0.840000,2.940000,-1.540000
8.812868,-0.027328,0.253760,0.847168,2.940000,-0.280000,-0.280000
8.820955,0.002440,0.312320,1.007720,1.680000,-1.820000,-0.420000
8.829042,-0.001464,0.288896,1.074088,-1.400000,0.980000,-0.840000
8.837129,-0.067344,0.209840,0.925248,-0.280000,3.220000,-1.260000
8.845216,-0.042456,0.226920,0.917928,1.260000,1.400000,-1.120000
8.853303,0.009760,0.291824,1.021384,3.360000,-3.220000,0.280000
8.861390,-0.008296,0.304024,1.025776,0.840000,0.840000,-1.260000
8.869478,-0.053192,0.252296,0.899384,-1.960000,4.200000,-1.400000
8.877565,-0.065392,0.231800,0.886696,-0.980000,-0.280000,-0.980000
8.885652,-0.016592,0.256688,1.020896,0.560000,-1.820000,0.000000
8.893739,0.031720,0.275232,1.123864,0.700000,0.140000,-0.700000
8.901826,-0.078080,0.246440,0.906704,0.560000,3.220000,-1.960000
8.909913,-0.056120,0.238632,0.859856,0.280000,0.700000,-0.700000
8.918000,0.032696,0.278648,1.004304,0.700000,-2.800000,-0.140000
8.926088,-0.022448,0.284016,1.107272,-0.280000,0.700000,-0.560000
8.934175,-0.036600,0.234728,0.918904,-0.140000,3.920000,-1.820000
8.942262,-0.080032,0.236192,0.827160,-0.560000,1.120000,-0.560000
8.950349,0.045384,0.257176,1.029192,0.980000,-3.360000,-0.420000
8.958436,0.008296,0.296704,1.131672,0.280000,1.120000,-0.420000
8.966523,-0.085400,0.243512,0.936960,0.000000,3.780000,-1.960000
8.974610,-0.074664,0.232288,0.853512,0.000000,0.980000,-0.700000
8.982698,0.027328,0.249856,0.983320,1.960000,-3.080000,0.000000
8.990785,0.022448,0.297192,1.099464,0.420000,-0.140000,-0.980000
8.998872,-0.064904,0.245952,0.992592,-0.140000,3.640000,-1.120000
9.006959,-0.083936,0.239120,0.867176,1.400000,1.820000,-1.260000
9.015046,-0.000976,0.258152,0.901336,0.700000,-2.380000,0.140000
9.023133,0.024888,0.293288,1.066280,0.000000,-0.980000,-0.700000
9.031220,-0.039528,0.259616,1.043344,-1.120000,3.220000,-1.680000
9.039308,-0.082472,0.203984,0.898896,0.000000,2.660000,-0.980000
9.047395,-0.015616,0.230824,0.938424,2.100000,-2.100000,0.000000
9.055482,0.047824,0.331352,1.064816,2.380000,-1.680000,-0.420000
9.063569,-0.067832,0.265960,0.956480,-1.820000,3.360000,-1.540000
9.071656,-0.043432,0.227896,0.889136,-0.980000,2.240000,-1.400000
9.079743,-0.042456,0.249856,0.980880,0.560000,-1.260000,-0.140000
9.087830,0.011224,0.254248,1.098488,1.540000,-1.680000,-0.280000
9.095917,-0.018544,0.260592,1.038952,2.100000,2.240000,-1.400000
9.104005,-0.060512,0.246440,0.789096,0.000000,3.500000,-1.540000
9.112092,-0.053192,0.269376,0.945256,0.000000,-1.120000,-0.140000
9.120179,0.029280,0.265472,1.007720,0.000000,-1.820000,-0.420000
9.128266,-0.024888,0.270352,1.086288,0.000000,1.680000,-0.980000
9.136353,-0.054656,0.215696,0.916464,-0.980000,3.640000,-1.680000
9.144440,-0.051728,0.222528,0.920368,1.960000,-0.700000,-0.280000
9.152527,0.037088,0.312320,1.062376,3.220000,-2.940000,-0.140000
9.160615,-0.029280,0.272304,0.978440,0.000000,1.540000,-1.260000
9.168702,-0.065392,0.234728,0.936472,-0.700000,3.640000,-1.260000
9.176789,-0.040992,0.239120,0.903776,0.700000,-0.280000,-0.980000
9.184876,0.016592,0.260592,1.014064,1.820000,-2.380000,0.140000
9.192963,0.008784,0.274744,1.071160,0.840000,0.980000,-1.120000
9.201050,-0.082960,0.229360,0.942328,0.280000,4.340000,-1.820000
9.209137,-0.050264,0.247416,0.911096,1.960000,-0.700000,0.140000
9.217224,0.005856,0.282064,0.999424,2.800000,-2.100000,-0.560000
9.225312,0.018056,0.279624,1.008696,0.420000,0.700000,-0.840000
9.233399,-0.054656,0.236680,0.982344,-0.140000,3.080000,-1.260000
9.241486,-0.082960,0.225456,0.907192,0.840000,0.840000,-1.400000
9.249573,0.023424,0.275232,0.944280,2.520000,-2.520000,0.560000
9.257660,0.017080,0.286456,1.067744,0.840000,-0.140000,-1.120000
9.265747,-0.065392,0.279624,1.017480,-0.420000,3.780000,-1.680000
9.273834,-0.082960,0.204960,0.880352,0.280000,2.520000,-0.700000
9.281922,-0.000976,0.215208,0.935984,1.820000,-2.100000,-0.280000
9.290009,0.035624,0.280112,1.070672,3.360000,-1.540000,0.280000
9.298096,-0.022448,0.301096,1.017480,1.820000,2.100000,-1.960000
9.306183,-0.113704,0.244976,0.883768,0.420000,2.800000,-0.700000
9.314270,0.002928,0.223016,0.903776,0.700000,-0.700000,-0.980000
9.322357,-0.005368,0.301096,1.038952,1.540000,-0.840000,0.000000
9.330444,-0.004392,0.267424,1.029680,0.420000,0.280000,-0.980000
9.338531,-0.048800,0.238144,0.906704,-1.400000,3.220000,-1.680000
9.346619,-0.063928,0.250344,0.932568,0.000000,0.280000,-0.280000
9.354706,0.004880,0.251320,1.033096,1.680000,-1.960000,-0.700000
9.362793,0.000000,0.253760,1.064816,1.540000,0.840000,-0.140000
9.370880,-0.029280,0.266448,0.889624,0.980000,2.940000,-1.960000
9.378967,-0.101992,0.257664,0.932568,-0.140000,0.980000,-0.840000
9.387054,0.032208,0.240096,0.958920,0.980000,-2.380000,0.140000
9.395141,0.007808,0.285480,1.047736,0.560000,-0.420000,-1.120000
9.403229,-0.030256,0.256688,0.978928,-0.700000,3.360000,-1.400000
9.411316,-0.096624,0.244000,0.942328,1.120000,1.540000,-0.840000
9.419403,-0.017568,0.215696,0.950136,2.240000,-1.820000,0.280000
9.427490,0.045384,0.288408,1.066280,2.800000,-0.840000,-1.120000
9.435577,-0.054168,0.266936,0.964776,0.840000,3.780000,-1.260000
9.443664,-0.076616,0.226920,0.931104,1.960000,0.420000,-0.980000
9.451751,-0.014152,0.263520,0.901824,2.380000,-1.120000,0.140000
9.459838,0.042944,0.265960,1.008696,1.400000,-1.260000,-0.840000
9.467926,-0.038552,0.285480,1.074576,-0.140000,2.520000,-1.400000
9.476013,-0.107848,0.233264,0.894992,0.420000,2.660000,-0.840000
9.484100,-0.001464,0.244000,0.875472,0.560000,-0.280000,-0.980000
9.492187,0.032696,0.269376,1.052128,0.840000,-1.820000,0.140000
9.500274,-0.025864,0.269864,1.114104,1.540000,1.400000,-1.400000
9.508361,-0.096136,0.263032,0.898408,0.420000,3.220000,-1.260000
9.516448,-0.028304,0.222040,0.854976,0.560000,-0.280000,-0.420000
9.524536,0.033672,0.266936,1.003816,0.980000,-1.820000,-0.280000
9.532623,-0.018544,0.259616,1.095560,1.120000,0.560000,-1.120000
9.540710,-0.068808,0.278648,0.928176,0.560000,3.220000,-1.120000
9.548797,-0.051240,0.222528,0.921832,0.560000,0.140000,-0.560000
9.556884,0.016104,0.244488,0.992104,2.380000,-1.400000,-0.280000
9.564971,0.026352,0.307928,1.000400,1.400000,-0.980000,-1.260000
9.573058,-0.094672,0.268400,0.997960,-1.680000,4.620000,-0.980000
9.581145,-0.022448,0.200568,0.954528,0.560000,0.420000,-0.980000
9.589233,-0.035136,0.225944,0.996008,4.340000,-1.680000,0.280000
9.597320,0.012688,0.320616,0.962824,2.660000,0.560000,-1.260000
9.605407,-0.028304,0.271816,0.970144,-0.840000,2.240000,-1.260000
9.613494,-0.071736,0.233752,0.954528,-0.420000,1.680000,-0.840000
9.621581,-0.007320,0.247904,0.899384,0.840000,-1.260000,-0.560000
9.629668,-0.013664,0.277672,1.056032,0.280000,-0.420000,-0.420000
9.637755,-0.038064,0.247416,1.045296,-0.140000,2.100000,-1.260000
9.645843,-0.036600,0.216184,0.887672,1.820000,0.980000,-0.980000
9.653930,-0.018544,0.251320,0.958432,2.660000,-0.560000,-0.560000
9.662017,0.001464,0.293288,1.057008,2.940000,-0.980000,-0.280000
9.670104,-0.028792,0.271328,0.974536,1.260000,1.960000,-1.120000
9.678191,-0.047824,0.255712,0.944768,-0.280000,2.240000,-0.980000
9.686278,-0.038552,0.224968,0.904264,1.820000,-0.840000,-0.560000
9.694365,0.001464,0.299632,0.980392,1.120000,-0.840000,-0.280000
9.702452,-0.008296,0.258152,1.064328,-0.140000,1.820000,-1.120000
9.710540,-0.065880,0.222040,0.987712,1.120000,1.960000,-0.700000
9.718627,-0.035624,0.262056,0.885232,3.500000,-0.140000,-1.120000
9.726714,0.000976,0.267912,0.932568,1.820000,-1.120000,0.000000
9.734801,0.027328,0.270352,1.056032,0.000000,-0.140000,-1.120000
9.742888,-0.058072,0.240584,1.028704,-0.700000,3.500000,-1.400000
9.750975,-0.077104,0.245952,0.878888,4.060000,-0.140000,0.420000
9.759062,-0.012688,0.287432,0.984784,2.240000,-1.540000,-1.540000
9.767150,0.020984,0.247904,1.077016,1.400000,0.280000,0.420000
9.775237,-0.058072,0.231312,0.990640,1.960000,3.220000,-2.240000
9.783324,-0.058072,0.258152,0.835944,2.660000,1.120000,-0.560000
9.791411,-0.004392,0.278648,0.944768,2.380000,-2.100000,-0.700000
9.799498,-0.013176,0.302072,1.065304,0.280000,-0.420000,-0.140000
9.807585,-0.003904,0.235704,0.990152,0.000000,1.680000,-1.400000
9.815672,-0.078568,0.239608,0.890112,-0.280000,3.500000,-1.400000
9.823759,-0.033184,0.228384,0.948672,2.800000,-1.960000,0.000000
9.831847,0.027328,0.306952,1.073112,2.100000,-2.100000,-0.420000
9.839934,-0.002440,0.273280,0.987712,0.280000,3.360000,-1.540000
9.848021,-0.100040,0.246440,0.892552,-0.700000,3.500000,-1.400000
9.856108,-0.044896,0.192272,0.931104,0.840000,-1.820000,0.000000
9.864195,0.050264,0.314760,1.088728,3.080000,-1.820000,0.140000
9.872282,-0.036112,0.266448,1.013576,1.120000,3.220000,-2.240000
9.880369,-0.099552,0.236680,0.861808,0.280000,2.940000,-0.840000
9.888456,0.000488,0.259128,0.931592,1.400000,-1.680000,-0.560000
9.896544,0.013664,0.245464,1.074088,1.540000,-1.680000,-0.140000
9.904631,0.015616,0.281088,1.076040,2.660000,1.120000,-1.120000
9.912718,-0.121024,0.260104,0.823256,0.420000,3.640000,-1.260000
9.920805,-0.011712,0.252296,0.899384,0.280000,-0.980000,-0.560000
9.928892,0.011712,0.282064,1.030656,1.120000,-1.820000,-0.140000
9.936979,-0.008784,0.274744,1.074088,0.280000,1.680000,-0.840000
9.945066,-0.075152,0.223504,0.974536,0.700000,3.220000,-1.820000
9.953154,-0.057096,0.242048,0.818864,1.540000,-0.700000,-0.140000
9.961241,0.062464,0.265960,1.019432,0.980000,-2.520000,-0.420000
9.969328,-0.017568,0.303048,1.105808,0.980000,1.540000,-0.700000
9.977415,-0.111264,0.244976,0.894016,0.700000,4.060000,-1.820000
9.985502,-0.031232,0.245952,0.869616,-0.420000,0.000000,-0.560000
9.993589,0.044408,0.235704,1.008208,0.420000,-2.380000,0.000000
10.001676,-0.005856,0.288896,1.124840,1.260000,0.980000,-1.400000
10.009763,-0.092720,0.270840,0.930616,1.400000,3.220000,-1.120000
10.017851,-0.031720,0.218136,0.881816,0.000000,0.140000,-0.980000
10.025938,0.020008,0.250344,0.996496,1.400000,-0.980000,0.140000
10.034025,-0.009272,0.277672,1.074088,2.940000,-0.420000,-1.120000
10.042112,-0.081008,0.291336,0.951600,0.560000,3.920000,-1.120000
10.050199,-0.032696,0.226920,0.882792,0.420000,0.280000,-0.700000
10.058286,-0.023912,0.259616,0.937936,0.420000,-0.980000,-0.420000
10.066373,0.033184,0.275232,1.022848,0.980000,-1.260000,-0.700000
10.074461,-0.079544,0.289384,1.063840,-0.140000,3.360000,-1.260000
10.082548,-0.055144,0.187392,0.904752,-0.420000,1.960000,-0.700000
10.090635,0.017080,0.279136,0.929640,2.240000,-2.240000,-0.700000
10.098722,-0.017080,0.262056,0.998448,1.260000,0.280000,-0.420000
10.106809,-0.016104,0.284016,1.119472,1.260000,0.980000,-1.540000
10.114896,-0.087352,0.210328,0.918416,2.100000,2.520000,-0.420000
10.122983,-0.001952,0.261568,0.827160,2.240000,-0.280000,-1.260000
10.131070,-0.011712,0.308904,0.975512,0.560000,-0.280000,-0.140000
10.139158,-0.015128,0.270840,1.049688,-1.400000,-0.280000,-1.260000
10.147245,-0.060024,0.233264,1.028704,-2.100000,3.640000,-1.120000
10.155332,-0.034160,0.188368,0.941840,2.520000,0.140000,-0.420000
10.163419,-0.005368,0.311832,0.930616,3.780000,-1.540000,-0.980000
10.171506,-0.009760,0.267912,1.000888,1.120000,0.420000,-0.280000
10.179593,0.006832,0.282064,1.053104,-0.280000,1.400000,-1.680000
10.187680,-0.086376,0.219112,0.897920,0.140000,2.100000,-0.560000
10.195767,-0.013176,0.250344,0.909632,2.520000,-0.840000,-0.700000
10.203855,-0.027328,0.303048,1.016992,1.260000,-0.700000,-0.420000
10.211942,0.004880,0.249856,1.045296,0.280000,0.700000,-0.700000
10.220029,-0.044408,0.241072,0.991128,0.560000,3.220000,-1.820000
10.228116,-0.064904,0.223016,0.894016,2.660000,0.280000,0.140000
10.236203,-0.003416,0.288896,0.943792,3.640000,-2.520000,-0.280000
10.244290,0.033672,0.297192,1.018944,0.560000,0.140000,-1.120000
10.252377,-0.059536,0.279624,1.020896,-0.840000,3.360000,-1.260000
10.260465,-0.076128,0.197640,0.887184,-0.140000,1.680000,-1.260000
10.268552,0.002440,0.253760,0.943304,2.520000,-1.820000,0.000000
10.276639,0.032208,0.281088,1.063352,0.980000,-0.560000,-0.560000
10.284726,-0.053680,0.280112,0.995520,0.000000,3.220000,-1.400000
10.292813,-0.089792,0.257664,0.919880,0.700000,1.540000,-0.980000
10.300900,-0.029280,0.234240,0.879376,1.120000,-1.400000,-0.420000
10.308987,0.047336,0.256688,1.079944,0.420000,-1.120000,-0.420000
10.317074,-0.030256,0.261080,1.051640,1.120000,2.800000,-1.260000
10.325162,-0.073200,0.262056,0.888160,0.980000,2.380000,-1.820000
10.333249,-0.061000,0.254248,0.917440,1.680000,-1.260000,0.700000
10.341336,0.050752,0.265472,1.074088,1.680000,-1.960000,-0.840000
10.349423,-0.020984,0.291336,0.999912,-0.280000,2.660000,-1.260000
10.357510,-0.078568,0.244976,0.854488,-0.560000,3.220000,-1.120000
10.365597,-0.052704,0.247416,0.934520,-0.140000,-1.400000,-0.840000
10.373684,0.059048,0.255224,1.083848,0.840000,-2.240000,0.280000
10.381771,-0.030744,0.288408,1.041392,0.840000,3.220000,-1.820000
10.389859,-0.108824,0.200568,0.868640,0.000000,2.660000,-1.120000
10.397946,0.001952,0.250344,0.939400,2.940000,-2.800000,0.560000
10.406033,0.064416,0.314760,1.073600,1.540000,-1.960000,-1.120000
10.414120,-0.087352,0.297192,0.955992,-1.260000,4.760000,-1.120000
10.422207,-0.068320,0.196664,0.881816,-0.980000,1.960000,-1.540000
10.430294,-0.010736,0.217648,0.967216,0.700000,-1.820000,0.000000
10.438381,0.061488,0.298656,1.084336,2.800000,-1.820000,-0.140000
10.446469,-0.083936,0.307440,1.015040,0.420000,4.200000,-2.380000
10.454556,-0.081008,0.228384,0.831552,-0.980000,1.960000,-0.140000
10.462643,0.011224,0.219600,0.957456,0.280000,-2.520000,-0.840000
10.470730,0.037088,0.281088,1.119960,1.960000,-1.120000,0.000000
10.478817,-0.049776,0.293288,0.970144,1.680000,2.940000,-1.820000
10.486904,-0.118096,0.253760,0.889136,-0.840000,2.940000,-1.400000
10.494991,0.013176,0.209840,0.915976,0.980000,-2.100000,0.420000
10.503078,0.011224,0.285480,1.058960,0.560000,-0.700000,-1.120000
10.511166,-0.008296,0.239608,1.065304,0.840000,1.960000,-0.980000
10.519253,-0.106384,0.264496,0.911096,2.240000,2.800000,-1.120000
10.527340,-0.029280,0.228872,0.867664,1.680000,-0.980000,-0.560000
10.535427,0.065392,0.300608,1.023824,2.100000,-2.520000,-0.280000
10.543514,-0.048800,0.296704,1.017480,-0.420000,2.100000,-0.980000
10.551601,-0.032696,0.253272,0.950624,-2.380000,2.940000,-1.820000
10.559688,-0.072224,0.221064,0.921832,-0.280000,0.980000,-0.560000
10.567775,-0.025864,0.253760,0.977952,1.120000,-1.400000,-0.140000
10.575863,0.052216,0.273768,1.054080,0.560000,-1.540000,-0.700000
10.583950,-0.054656,0.224480,1.005768,0.560000,3.920000,-1.820000
10.592037,-0.082960,0.279136,0.918416,1.960000,1.120000,-0.700000
10.600124,-0.000488,0.245952,0.881328,1.260000,-2.100000,-0.280000
10.608211,0.010248,0.301096,1.056032,0.560000,-0.980000,-0.140000
10.616298,-0.025864,0.279136,1.035048,-0.980000,2.660000,-1.960000
10.624385,-0.098576,0.217160,0.874008,-1.260000,3.360000,-0.980000
10.632472,0.016104,0.232288,0.912072,0.420000,-1.820000,-0.280000
10.640560,-0.014640,0.298168,1.071160,0.700000,-0.980000,-0.700000
10.648647,-0.004880,0.269864,1.018456,-0.980000,2.100000,-0.980000
10.656734,-0.077104,0.218624,0.892552,-0.980000,3.640000,-1.960000
10.664821,-0.047336,0.220088,0.948184,1.540000,-0.980000,0.000000
10.672908,0.048800,0.316712,1.082872,2.520000,-3.080000,0.140000
10.680995,-0.046848,0.273280,0.966240,-0.140000,2.660000,-1.540000
10.689082,-0.028792,0.223504,0.895968,-1.400000,3.500000,-1.400000
10.697170,-0.065880,0.249856,0.968192,0.700000,-0.840000,-0.840000
10.705257,-0.022448,0.277184,1.008208,1.120000,-0.840000,0.420000
10.713344,0.050264,0.244976,1.035536,1.120000,-0.560000,-1.540000
10.721431,-0.095160,0.243512,0.979416,0.280000,4.200000,-0.980000
10.729518,-0.034648,0.223504,0.941840,1.960000,1.120000,-1.260000
10.737605,-0.041968,0.280600,0.927688,3.500000,-1.960000,0.420000
10.745692,0.044408,0.259128,0.998448,2.240000,-0.560000,-0.980000
10.753779,-0.020008,0.299144,1.045784,0.840000,1.260000,-0.840000
10.761867,-0.086376,0.239608,0.946720,0.420000,2.380000,-1.260000
10.769954,-0.033672,0.257176,0.888648,0.420000,0.560000,-0.700000
10.778041,-0.004392,0.249856,0.938424,0.840000,-1.680000,-0.420000
10.786128,0.000488,0.294752,1.028216,0.280000,-0.420000,-0.560000
10.794215,-0.014152,0.297192,0.991128,-1.820000,1.960000,-1.680000
10.802302,-0.093208,0.186904,0.951112,-3.220000,3.360000,-0.700000
10.810389,0.023424,0.189344,0.966728,2.380000,-1.960000,-0.280000
10.818476,0.002928,0.339160,1.055056,3.360000,-0.840000,-1.120000
10.826564,-0.076616,0.244000,1.010648,0.980000,2.800000,-0.840000
10.834651,-0.022448,0.262056,0.925736,0.280000,1.540000,-1.260000
10.842738,-0.055632,0.215208,0.922320,1.260000,0.000000,-0.280000
10.850825,0.024400,0.287432,1.001376,2.520000,-0.980000,-0.700000
10.858912,-0.054656,0.279624,1.020896,1.680000,0.700000,-0.700000
10.866999,-0.007320,0.253760,0.938424,-0.840000,1.820000,-1.400000
10.875086,-0.034648,0.249856,0.955016,-0.980000,1.820000,-1.400000
10.883174,-0.066856,0.232776,0.938424,1.820000,-0.560000,0.280000
10.891261,0.036112,0.291824,0.990152,1.680000,-1.680000,-1.260000
10.899348,-0.016592,0.284016,0.993568,-0.980000,1.400000,-0.420000
10.907435,-0.047336,0.232288,1.013576,-1.540000,3.080000,-1.680000
10.915522,-0.061488,0.179584,0.942328,1.820000,0.140000,-0.700000
10.923609,0.008784,0.306952,0.978440,4.340000,-2.660000,0.280000
10.931696,0.000000,0.300608,1.004304,0.560000,1.260000,-1.680000
10.939783,-0.038552,0.249368,0.982344,-1.540000,2.940000,-0.700000
10.947871,-0.075640,0.213744,0.956968,0.560000,1.540000,-1.540000
10.955958,-0.062952,0.242536,0.895968,2.800000,-0.840000,-0.140000
10.964045,0.077592,0.287432,1.005768,1.400000,-2.520000,-0.420000
10.972132,-0.053192,0.272304,1.082384,-1.260000,2.800000,-1.400000
10.980219,-0.031232,0.230824,0.940376,0.280000,2.240000,-0.980000
10.988306,-0.079056,0.247904,0.834968,0.700000,0.980000,-1.260000
10.996393,0.004392,0.278160,0.986736,0.980000,-2.100000,-0.560000
11.004480,0.014152,0.291336,1.064816,0.140000,-0.280000,-0.420000
11.012568,-0.033184,0.226432,1.022360,-1.540000,3.500000,-1.960000
11.020655,-0.078080,0.226920,0.908656,0.840000,1.820000,-0.700000
11.028742,-0.052216,0.259128,0.923784,3.360000,-2.100000,-0.280000
11.036829,0.067344,0.314272,0.989664,0.560000,-1.540000,-0.700000
11.044916,-0.007808,0.256200,1.062376,-2.940000,2.520000,-1.120000
11.053003,-0.115656,0.198616,0.958920,0.140000,3.080000,-1.820000
11.061090,-0.044896,0.252784,0.882792,1.540000,-0.280000,-0.280000
11.069177,0.045384,0.256200,0.957456,0.980000,-2.380000,0.000000
11.077265,0.004392,0.284504,1.131184,0.700000,0.420000,-1.260000
11.085352,-0.050752,0.241560,1.018456,1.120000,3.500000,-1.400000
11.093439,-0.118096,0.224480,0.845704,2.100000,1.820000,-0.560000
11.101526,0.014152,0.244488,0.915000,2.240000,-2.380000,-0.280000
11.109613,0.051728,0.300608,1.040416,2.100000,-1.680000,-0.280000
11.117700,-0.047824,0.283528,1.053104,0.140000,2.660000,-1.400000
11.125787,-0.061488,0.250344,0.898896,-0.980000,3.220000,-1.540000
11.133874,-0.061976,0.213744,0.899384,0.140000,0.700000,-0.560000
11.141962,0.033184,0.266936,1.024312,1.540000,-3.360000,-0.140000
11.150049,-0.012200,0.293776,1.052616,1.120000,0.700000,-0.980000
11.158136,-0.039040,0.259616,0.952088,-1.400000,4.200000,-1.680000
11.166223,-0.101016,0.211792,0.903288,0.280000,0.840000,-0.700000
11.174310,0.009760,0.219112,1.009672,2.800000,-3.080000,0.280000
11.182397,0.041480,0.301584,1.068232,3.780000,-0.560000,-0.420000
11.190484,-0.053192,0.277184,0.924272,0.280000,3.500000,-2.100000
11.198571,-0.088328,0.240096,0.949648,-0.420000,2.520000,-0.700000
11.206659,-0.009272,0.198128,0.916952,2.100000,-1.400000,-0.280000
11.214746,0.032696,0.307928,1.010648,2.380000,-1.820000,-0.560000
11.222833,-0.019520,0.279624,1.037000,0.700000,1.960000,-1.260000
11.230920,-0.107360,0.246928,0.954040,-0.140000,3.500000,-1.540000
11.239007,-0.021472,0.206912,0.902800,0.840000,-0.700000,-0.280000
11.247094,0.026352,0.264984,1.007720,3.360000,-2.380000,-0.280000
11.255181,-0.006344,0.290360,1.053592,2.240000,0.700000,-0.700000
11.263268,-0.063928,0.273768,0.972584,0.560000,3.080000,-1.540000
11.271356,-0.063440,0.219600,0.874008,0.280000,1.540000,-0.840000
11.279443,0.013664,0.232776,0.981368,2.240000,-2.100000,-0.280000
11.287530,0.010736,0.283528,1.051640,3.360000,-1.120000,-0.560000
11.295617,-0.050264,0.278160,1.012112,1.400000,3.220000,-1.260000
11.303704,-0.076128,0.232776,0.917440,0.840000,1.820000,-1.120000
11.311791,-0.037088,0.241072,0.923296,2.240000,-0.280000,-0.280000
11.319878,0.035624,0.259616,0.971608,2.660000,-1.680000,-0.280000
11.327965,-0.017080,0.288408,1.050664,1.680000,0.420000,-0.840000
11.336053,-0.061976,0.272304,0.961848,0.420000,3.220000,-1.540000
11.344140,-0.053192,0.214232,0.918904,0.980000,1.120000,-0.980000
11.352227,-0.006832,0.251808,0.966240,2.800000,-1.540000,-0.140000
11.360314,0.017568,0.288408,1.013088,2.520000,-0.980000,-0.280000
11.368401,-0.027328,0.272304,1.007232,0.280000,2.100000,-1.400000
11.376488,-0.091744,0.250832,0.938424,0.420000,3.080000,-0.980000
11.384575,-0.026840,0.215208,0.903776,1.400000,-0.560000,-0.560000
11.392662,0.020008,0.262056,1.002352,2.520000,-1.960000,-0.280000
11.400750,-0.002928,0.301096,1.062376,1.540000,0.840000,-0.980000
11.408837,-0.067832,0.266936,0.955016,0.140000,3.080000,-1.120000
11.416924,-0.079056,0.231312,0.869128,0.420000,0.840000,-0.980000
11.425011,0.032208,0.261080,0.975024,0.840000,-1.260000,-0.560000
11.433098,-0.001952,0.254248,1.058960,0.700000,0.000000,-0.420000
11.441185,-0.069296,0.270352,1.009672,1.260000,2.240000,-1.540000
11.449272,-0.024400,0.262056,0.895968,-0.140000,1.400000,-0.980000
11.457359,-0.029768,0.235216,0.932568,0.280000,-0.560000,-0.140000
11.465447,0.026840,0.275720,1.062864,1.260000,-1.540000,-0.840000
11.473534,-0.051728,0.257664,1.005768,1.260000,2.520000,-0.840000
11.481621,-0.052704,0.248880,0.873520,0.000000,1.680000,-1.260000
11.489708,-0.008784,0.255224,0.942328,0.000000,-0.980000,-0.280000
11.497795,0.015128,0.272304,1.029192,1.400000,-1.120000,-0.700000
11.505882,-0.061488,0.268400,1.041880,-0.140000,2.380000,-1.400000
11.513969,-0.022448,0.223504,0.904752,-0.700000,1.540000,-0.840000
11.522056,-0.040016,0.254736,0.937936,0.840000,0.140000,-0.840000
11.530144,0.007808,0.313296,1.014064,1.680000,-2.100000,-0.280000
11.538231,-0.052704,0.255712,1.007232,-1.540000,2.240000,-0.980000
11.546318,-0.025864,0.196176,0.988200,-0.980000,2.940000,-1.260000
11.554405,-0.039040,0.235216,0.866200,2.520000,-0.560000,-0.420000
11.562492,0.011224,0.307928,1.029192,2.240000,-1.260000,-0.840000
11.570579,-0.038552,0.304512,1.025288,-0.420000,1.120000,-0.560000
11.578666,-0.055144,0.214232,0.988688,-1.120000,2.100000,-1.540000
11.586753,-0.030744,0.201056,0.913536,1.260000,1.400000,-0.140000
11.594841,0.027328,0.271816,0.988200,4.200000,-2.940000,-0.560000
11.602928,-0.043920,0.310856,1.016016,1.960000,1.260000,-0.980000
11.611015,-0.022448,0.263032,0.958432,-0.700000,2.520000,-0.840000
11.619102,-0.071736,0.209840,0.926712,0.000000,0.980000,-1.260000
11.627189,0.008784,0.246440,1.005280,3.220000,-1.540000,0.000000
11.635276,-0.001952,0.294752,1.057984,2.520000,0.140000,-1.120000
11.643363,-0.071248,0.230824,0.943304,0.560000,3.080000,-0.840000
11.651450,-0.013664,0.256200,0.955016,3.080000,0.700000,-1.120000
11.659538,-0.051728,0.245952,0.928664,4.060000,-1.120000,-0.140000
11.667625,0.022448,0.292800,0.986736,3.080000,-0.840000,-0.420000
11.675712,-0.014640,0.272792,1.054568,0.560000,1.960000,-1.120000
11.683799,-0.065880,0.224968,0.939888,1.260000,2.100000,-0.980000
11.691886,-0.039040,0.263032,0.896456,2.380000,0.140000,-0.980000
11.699973,0.000000,0.277184,0.939400,1.680000,-1.120000,-0.140000
11.708060,-0.005856,0.290848,1.050664,-0.420000,0.700000,-1.400000
11.716147,-0.058560,0.252296,0.982832,-1.540000,2.800000,-0.560000
11.724235,-0.040992,0.210816,0.868152,0.560000,0.700000,-1.260000
11.732322,-0.006832,0.280112,0.965264,0.840000,-1.260000,0.000000
11.740409,0.002928,0.276208,1.081408,0.420000,0.000000,-1.260000
11.748496,-0.081984,0.259128,1.012112,-0.560000,2.520000,-0.700000
11.756583,-0.010248,0.232288,0.876936,0.840000,0.280000,-1.260000
11.764670,-0.030744,0.251808,0.905728,0.700000,-0.420000,-0.140000
11.772757,0.032696,0.284992,1.077016,0.420000,-1.680000,-0.840000
11.780845,-0.051728,0.271816,1.071160,-0.280000,2.520000,-0.980000
11.788932,-0.059048,0.234240,0.871080,0.560000,2.520000,-1.120000
11.797019,-0.040992,0.256688,0.856928,0.420000,-0.560000,-0.980000
11.805106,0.004392,0.280600,1.048224,-0.560000,-1.400000,0.000000
11.813193,0.025864,0.273768,1.105808,-1.400000,1.400000,-1.680000
11.821280,-0.109312,0.204960,0.916952,-0.700000,3.500000,-0.700000
11.829367,-0.009760,0.221064,0.888648,2.240000,-0.560000,-1.120000
11.837454,0.006344,0.304024,1.019432,2.240000,-1.820000,0.140000
11.845542,-0.013176,0.287920,1.063352,0.980000,0.560000,-0.980000
11.853629,-0.026352,0.257664,0.938912,-1.960000,3.220000,-1.680000
11.861716,-0.081984,0.211304,0.885720,0.140000,1.680000,-0.840000
11.869803,-0.019520,0.286456,0.972584,1.540000,-2.100000,-0.560000
11.877890,0.005368,0.286944,1.003816,0.420000,-0.700000,0.140000
11.885977,0.007808,0.264008,1.011136,-2.100000,1.960000,-1.960000
11.894064,-0.097112,0.226432,0.922808,-1.960000,3.360000,-1.120000
11.902151,-0.035624,0.248880,0.912072,0.700000,-0.980000,-0.560000
11.910239,0.015128,0.263032,1.014552,-0.140000,-1.820000,-0.280000
11.918326,0.021472,0.276208,1.098976,-1.120000,1.260000,-1.120000
11.926413,-0.104920,0.239120,0.940376,-0.560000,3.920000,-1.400000
11.934500,-0.055144,0.215696,0.881816,1.260000,-0.280000,-0.560000
11.942587,0.035136,0.250832,1.001376,1.960000,-1.960000,-0.700000
11.950674,0.015616,0.302560,1.089704,1.120000,0.280000,-0.280000
11.958761,-0.058072,0.248880,1.002352,-0.280000,3.080000,-1.960000
11.966848,-0.081008,0.214232,0.875472,2.100000,1.680000,-0.560000
11.974936,-0.009272,0.266936,0.928664,2.800000,-1.540000,-0.560000
11.983023,0.000488,0.278648,1.032608,1.260000,-1.120000,0.000000
11.991110,0.009272,0.268400,1.023336,0.280000,2.240000,-1.540000
11.999197,-0.080520,0.240096,0.891088,-0.420000,3.080000,-1.260000
12.007284,-0.052704,0.266936,0.877424,-0.140000,-0.700000,-0.560000
12.015371,0.032696,0.249856,1.038464,0.000000,-2.800000,-0.280000
12.023458,0.020008,0.286456,1.082872,-0.840000,0.840000,-0.840000
12.031545,-0.096136,0.249368,0.958920,-1.400000,4.620000,-2.100000
12.039633,-0.064416,0.203008,0.855952,0.000000,0.140000,0.000000
12.047720,0.016592,0.271328,0.974536,1.820000,-2.520000,-0.700000
12.055807,0.014640,0.278160,1.094584,0.000000,0.140000,-0.700000
12.063894,-0.058072,0.255712,1.011136,-0.420000,3.220000,-1.680000
12.071981,-0.083936,0.222040,0.848144,-0.140000,1.820000,-0.980000
12.080068,0.004392,0.248880,0.919392,1.120000,-2.380000,0.280000
12.088155,0.006832,0.290848,1.066768,0.700000,-0.840000,-0.560000
12.096242,0.002440,0.256688,1.059448,-0.980000,2.660000,-1.680000
12.104329,-0.093208,0.222040,0.911096,0.420000,3.220000,-1.400000
12.112417,-0.044896,0.245464,0.898408,1.540000,-0.700000,-0.420000
12.120504,0.036600,0.265472,1.039440,1.820000,-2.380000,-0.560000
12.128591,-0.012200,0.283040,1.070184,0.700000,1.120000,-0.420000
12.136678,-0.059536,0.240584,0.969656,0.280000,3.780000,-2.100000
12.144765,-0.058560,0.226432,0.880352,1.540000,0.840000,-0.700000
12.152852,-0.034160,0.249856,0.947208,3.500000,-2.100000,-0.280000
12.160939,0.051240,0.284992,1.046760,1.400000,-0.840000,-0.420000
12.169026,-0.030256,0.221552,1.041880,1.120000,1.680000,-1.120000
12.177114,-0.075640,0.258640,0.932080,1.680000,3.220000,-1.260000
12.185201,-0.043920,0.265472,0.905728,2.240000,0.000000,-0.840000
12.193288,-0.020496,0.250344,0.939400,2.380000,-1.540000,0.140000
12.201375,0.053192,0.295728,1.083848,1.120000,-0.840000,-0.840000
12.209462,-0.057096,0.260104,1.015040,0.000000,3.640000,-1.400000
12.217549,-0.085888,0.207888,0.884256,0.560000,2.800000,-1.260000
12.225636,-0.013664,0.259616,0.913048,1.960000,-2.100000,-0.280000
12.233723,0.023424,0.264496,0.993080,1.680000,-1.960000,-0.140000
12.241811,0.026840,0.302072,1.085800,-0.140000,1.680000,-1.400000
12.249898,-0.099064,0.238632,0.955504,-0.280000,3.640000,-1.120000
12.257985,-0.078080,0.233264,0.885232,1.680000,0.280000,-0.980000
12.266072,0.032696,0.245952,0.937448,1.680000,-2.380000,0.280000
12.274159,0.022936,0.291336,1.071160,0.700000,-0.420000,-0.840000
12.282246,-0.049288,0.269376,1.031632,-0.420000,2.940000,-1.400000
12.290333,-0.104920,0.214720,0.879376,-0.280000,3.780000,-1.120000
12.298420,-0.025376,0.221064,0.912560,1.120000,-1.820000,-0.700000
12.306507,0.044408,0.286944,1.058960,1.820000,-2.100000,-0.140000
12.314595,-0.028792,0.274256,1.019432,0.560000,2.100000,-1.260000
12.322682,-0.043432,0.237656,0.934520,-0.840000,3.080000,-1.400000
12.330769,-0.079544,0.244000,0.946720,1.400000,0.560000,-0.840000
12.338856,0.001952,0.248392,0.961360,2.520000,-2.100000,0.140000
12.346943,0.020984,0.285480,0.984296,0.840000,-0.700000,-0.700000
12.355030,-0.028792,0.283528,1.057008,0.000000,2.100000,-1.260000
12.363117,-0.069784,0.236192,0.909144,-1.260000,2.800000,-1.540000
12.371204,-0.033672,0.223992,0.882304,-0.700000,-0.420000,-0.280000
12.379292,0.020984,0.252784,1.059936,1.540000,-2.380000,0.000000
12.387379,-0.006832,0.265960,1.126792,1.540000,1.120000,-1.680000
12.395466,-0.053192,0.237656,0.913536,1.540000,3.920000,-0.980000
12.403553,-0.080032,0.248392,0.899384,2.660000,0.700000,-0.980000
12.411640,0.001952,0.255224,0.975512,2.800000,-1.820000,0.140000
12.419727,0.034648,0.285480,1.010160,3.360000,-0.980000,-0.560000
12.427814,-0.058072,0.280112,0.982832,0.560000,2.660000,-1.400000
12.435901,-0.029768,0.243024,0.973560,-0.140000,1.680000,-1.120000
12.443989,-0.073200,0.219600,0.920368,1.260000,0.980000,-0.840000
12.452076,0.015128,0.253760,0.937936,1.960000,-1.680000,-0.280000
12.460163,0.004392,0.307928,1.036024,1.680000,-0.560000,-0.840000
12.468250,-0.065880,0.262544,1.003328,-0.980000,3.360000,-1.540000
12.476337,-0.045384,0.214232,0.910608,-0.560000,1.820000,-0.840000
12.484424,-0.024400,0.249856,0.938424,0.700000,-1.120000,-0.700000
12.492511,0.021960,0.267912,1.024800,1.400000,-0.980000,-0.420000
12.500598,-0.050264,0.257176,1.054568,1.400000,1.820000,-0.980000
12.508685,-0.045872,0.240584,0.960384,0.420000,2.380000,-1.680000
12.516773,-0.035136,0.254248,0.920856,2.100000,0.420000,0.140000
12.524860,-0.009272,0.242048,0.937448,1.820000,-1.120000,-0.840000
12.532947,0.016592,0.276696,1.070184,2.240000,-0.420000,-0.420000
12.541034,-0.039040,0.272792,1.005768,2.100000,2.380000,-1.120000
12.549121,-0.093208,0.248392,0.895480,0.420000,1.960000,-1.260000
12.557208,0.011712,0.214720,0.910120,1.540000,-0.980000,-0.140000
12.565295,-0.004392,0.287920,1.040904,2.940000,-1.120000,-0.700000
12.573382,-0.034648,0.270840,1.015528,1.260000,1.120000,-0.980000
12.581470,-0.017568,0.259128,0.933056,-0.280000,1.680000,-0.980000
12.589557,-0.063440,0.231312,0.953064,0.420000,0.980000,-0.840000
12.597644,0.013664,0.252784,0.964288,2.100000,-1.960000,-0.560000
12.605731,-0.011224,0.300608,1.012112,1.960000,0.280000,-0.420000
12.613818,-0.045872,0.275720,1.006256,-0.420000,2.240000,-1.400000
12.621905,-0.055144,0.225456,0.881328,-1.120000,2.100000,-0.980000
12.629992,-0.006832,0.227408,0.916464,-0.140000,-0.980000,-0.280000
12.638079,0.003416,0.284504,1.067256,1.540000,-1.400000,-0.840000
12.646167,-0.042456,0.276696,1.061400,0.140000,2.800000,-1.540000
12.654254,-0.061000,0.216672,0.888160,-1.260000,2.660000,-0.560000
12.662341,-0.022448,0.203984,0.938912,1.680000,-0.560000,-0.980000
12.670428,0.009272,0.313296,1.045296,3.500000,-1.400000,0.280000
12.678515,-0.022936,0.272792,0.994544,1.260000,1.400000,-1.540000
12.686602,-0.059536,0.244488,0.954528,-0.980000,2.940000,-0.840000
12.694689,-0.034160,0.215208,0.943304,2.100000,0.140000,-0.840000
12.702776,-0.023912,0.279136,0.964776,2.940000,-0.700000,-0.560000
12.710864,0.015616,0.283040,0.977952,1.680000,-0.700000,-0.560000
12.718951,-0.045872,0.270840,1.038464,-0.700000,2.520000,-1.120000
12.727038,-0.051240,0.226432,0.946232,0.980000,1.260000,-0.840000
12.735125,-0.029768,0.258640,0.877424,1.260000,-0.140000,-0.560000
12.743212,0.017080,0.257176,0.997472,0.980000,-0.280000,-0.420000
12.751299,-0.032208,0.277184,1.099464,0.420000,0.700000,-1.260000
12.759386,-0.073688,0.219600,0.914512,0.140000,1.960000,-0.700000
12.767473,-0.000488,0.254736,0.911096,1.680000,-0.280000,-1.260000
12.775560,-0.022448,0.271328,0.993080,2.380000,-1.400000,0.000000
12.783648,0.009272,0.283528,1.005280,0.280000,0.280000,-1.120000
12.791735,-0.051240,0.259616,0.993080,-1.960000,2.660000,-0.980000
12.799822,-0.067344,0.217648,0.949160,0.700000,1.680000,-1.120000
12.807909,0.001952,0.270840,0.950624,2.100000,-1.120000,-0.700000
12.815996,0.015128,0.256200,1.013088,1.400000,-0.840000,-0.140000
12.824083,-0.046360,0.259128,1.074576,0.560000,2.800000,-1.820000
12.832170,-0.057584,0.235216,0.938424,2.800000,1.540000,-0.560000
12.840257,-0.051240,0.258640,0.847656,2.660000,-0.140000,-0.420000
12.848345,0.025376,0.260104,1.008696,1.820000,-1.260000,-0.560000
12.856432,-0.015616,0.287920,1.083360,1.680000,0.840000,-0.840000
12.864519,-0.063440,0.227896,0.912072,0.420000,2.660000,-1.400000
12.872606,-0.017568,0.243024,0.921832,1.400000,0.700000,-0.560000
12.880693,-0.037088,0.265960,0.964288,3.360000,-1.680000,-0.420000
12.888780,0.005856,0.263520,1.067744,1.680000,-0.140000,-0.560000
12.896867,-0.013176,0.258640,1.007232,0.840000,2.380000,-1.400000
12.904954,-0.084912,0.247416,0.889136,1.120000,2.100000,-0.700000
12.913042,-0.015616,0.236192,0.931592,2.380000,-1.120000,-0.840000
12.921129,-0.003416,0.298168,0.996008,2.940000,-0.700000,-0.140000
12.929216,0.020984,0.286456,1.039440,0.280000,0.560000,-1.260000
12.937303,-0.073200,0.241560,0.970144,-0.980000,2.520000,-0.980000
12.945390,-0.055144,0.231800,0.874984,0.560000,0.700000,-0.280000
12.953477,0.014152,0.257664,0.968192,1.540000,-1.260000,-1.120000
12.961564,-0.026352,0.281088,1.102392,1.680000,0.000000,-0.420000
12.969651,-0.044408,0.228384,1.017968,0.840000,3.220000,-1.260000
12.977738,-0.058072,0.248392,0.833992,2.660000,0.140000,-0.560000
12.985826,0.011712,0.288408,0.913048,1.400000,-1.120000,-0.700000
12.993913,-0.008784,0.289872,1.055056,-0.140000,-0.140000,-0.560000
13.002000,-0.035624,0.243024,1.030656,-1.260000,2.380000,-1.400000
13.010087,-0.051240,0.203984,0.943792,1.260000,2.100000,-0.980000
13.018174,-0.022936,0.263032,0.907192,3.640000,-1.540000,-0.280000
13.026261,0.010248,0.313784,1.022360,1.260000,-0.560000,-0.700000
13.034348,-0.032696,0.252296,1.042856,-0.560000,1.960000,-0.980000
13.042435,-0.064904,0.226432,0.906216,0.140000,2.380000,-1.400000
13.050523,-0.012200,0.239608,0.898896,1.960000,-1.400000,-0.420000
13.058610,0.008296,0.289384,1.065304,1.260000,-1.400000,-0.560000
13.066697,-0.048312,0.271816,1.072136,0.280000,2.240000,-0.700000
13.074784,-0.040992,0.224480,0.890600,0.700000,2.240000,-1.400000
13.082871,-0.058560,0.240096,0.888160,2.800000,-0.140000,-0.140000
13.090958,0.035624,0.300608,1.032608,2.660000,-2.800000,-0.700000
13.099045,-0.029280,0.267424,1.018944,-0.140000,2.520000,-0.980000
13.107132,-0.026840,0.243024,0.895968,-0.280000,2.240000,-1.400000
13.115219,-0.065880,0.264008,0.928664,-0.700000,-0.560000,-0.560000
13.123307,0.013176,0.251320,1.031632,0.560000,-0.700000,-0.280000
13.131394,-0.040992,0.257664,1.099464,0.000000,2.660000,-1.540000
13.139481,-0.060512,0.212280,0.844240,1.820000,1.400000,-0.560000
13.147568,-0.015128,0.299632,0.938424,2.520000,-0.840000,-0.840000
13.155655,0.001464,0.275232,1.021872,0.700000,-1.260000,0.000000
13.163742,-0.007320,0.259616,1.057984,-0.560000,1.960000,-1.820000
13.171829,-0.065392,0.224968,0.926224,0.420000,3.360000,-0.560000
13.179916,-0.035136,0.227408,0.969168,3.780000,-1.120000,-0.980000
13.188004,-0.016592,0.290360,0.986248,3.640000,-1.120000,0.420000
13.196091,0.025864,0.288408,1.002840,1.820000,0.700000,-1.540000
13.204178,-0.076128,0.257176,0.941840,-1.120000,3.780000,-1.120000
13.212265,-0.063440,0.213256,0.920368,1.120000,0.840000,-0.840000
13.220352,-0.014640,0.287432,0.934520,1.820000,-2.100000,-0.420000
13.228439,0.026352,0.259128,1.057008,0.700000,-0.700000,-0.700000
13.236526,-0.019520,0.257664,1.016504,-1.400000,3.080000,-1.260000
13.244613,-0.090280,0.215208,0.912560,1.540000,1.400000,-0.980000
13.252700,-0.018544,0.279136,0.939888,4.200000,-2.520000,0.140000
13.260788,0.046360,0.300608,0.975512,0.420000,-0.840000,-0.700000
13.268875,-0.018056,0.289384,1.038952,-1.820000,2.240000,-1.680000
13.276962,-0.101016,0.232776,0.902800,-1.400000,2.800000,-1.120000
13.285049,-0.031232,0.219112,0.939400,0.000000,-0.840000,-0.280000
13.293136,0.017080,0.263032,1.078480,1.260000,-1.120000,-0.280000
13.301223,0.015616,0.256200,1.003328,0.700000,2.800000,-1.960000
13.309310,-0.121024,0.242536,0.948184,1.820000,2.800000,-0.560000
13.317397,-0.037576,0.255712,0.935984,4.200000,-2.100000,-0.280000
13.325484,0.044408,0.287432,0.992104,2.520000,-1.260000,-0.420000
13.333572,0.007320,0.277672,1.012600,0.140000,1.400000,-1.120000
13.341659,-0.110288,0.259128,0.961848,-0.840000,3.640000,-1.540000
13.349746,-0.043920,0.223992,0.840336,1.400000,-0.280000,-0.560000
13.357833,0.034160,0.261080,0.971608,0.420000,-2.100000,-0.140000
13.365920,0.019520,0.292800,1.141432,0.140000,0.000000,-1.260000
13.374007,-0.104920,0.258640,0.980392,0.280000,4.200000,-0.840000
13.382094,-0.061488,0.200568,0.875472,1.260000,0.980000,-1.400000
13.390181,0.023912,0.256688,0.941352,2.800000,-2.520000,0.560000
13.398269,0.043432,0.304512,1.062376,1.400000,-0.700000,-1.260000
13.406356,-0.077592,0.289872,1.010160,-0.560000,3.640000,-1.540000
13.414443,-0.098088,0.212768,0.884744,0.840000,1.820000,-0.560000
13.422530,-0.005856,0.238144,0.900848,0.700000,-0.980000,-0.560000
13.430617,0.056120,0.258640,1.075552,2.100000,-2.240000,-0.280000
13.438704,-0.043920,0.281576,1.083848,2.100000,3.080000,-1.820000
13.446791,-0.092232,0.243024,0.879864,1.540000,2.660000,-0.700000
13.454878,-0.017568,0.255712,0.864248,1.400000,-1.400000,-0.560000
13.462965,0.018544,0.267912,0.994056,1.120000,-1.260000,-0.140000
13.471053,-0.012688,0.304512,1.072624,0.280000,0.420000,-0.980000
13.479140,-0.064416,0.262056,0.907192,-1.960000,3.780000,-1.820000
13.487227,-0.049288,0.211792,0.900360,-0.840000,0.840000,-0.700000
13.495314,0.020008,0.251808,1.056520,1.680000,-2.520000,0.140000
13.503401,0.016592,0.303536,1.067256,0.840000,0.280000,-1.260000
13.511488,-0.116144,0.226920,0.933056,-0.840000,5.040000,-1.400000
13.519575,-0.038552,0.207400,0.889136,1.400000,-0.280000,-0.700000
13.527662,0.042944,0.289872,0.987712,2.240000,-2.940000,0.000000
13.535750,-0.026352,0.314760,1.046760,0.980000,1.680000,-1.120000
13.543837,-0.067832,0.254736,0.924272,-2.520000,3.500000,-1.680000
13.551924,-0.077104,0.204472,0.894992,-1.820000,1.120000,-0.560000
13.560011,0.044408,0.227408,1.028704,1.540000,-2.660000,-0.140000
13.568098,0.000488,0.287432,1.080920,2.940000,-0.140000,-0.840000
13.576185,-0.058072,0.306464,0.935008,0.700000,2.660000,-1.260000
13.584272,-0.045384,0.219112,0.882304,-1.120000,1.120000,-0.840000
13.592359,0.000976,0.246928,0.984784,1.260000,-1.820000,-0.140000
13.600446,0.009272,0.300608,1.057984,1.680000,-0.980000,-0.840000
13.608534,-0.081496,0.245952,1.033584,0.560000,3.360000,-0.980000
13.616621,-0.012688,0.231312,0.872056,1.260000,1.120000,-1.120000
13.624708,-0.042456,0.256688,0.911584,0.840000,-0.140000,-0.840000
13.632795,0.015616,0.289872,1.010160,0.420000,-1.400000,-0.280000
13.640882,-0.031720,0.279136,1.037000,-0.140000,1.540000,-1.260000
13.648969,-0.073200,0.237656,0.902312,-2.380000,3.220000,-1.120000
13.657056,-0.019032,0.228872,0.970144,-0.280000,-0.700000,-0.420000
13.665143,0.005856,0.236192,1.031632,1.260000,-1.120000,-0.560000
13.673230,-0.031720,0.307928,1.020896,1.400000,1.680000,-0.980000
13.681318,-0.048312,0.226920,0.926712,-1.120000,2.240000,-1.680000
13.689405,-0.016104,0.230336,0.946232,1.260000,-0.560000,0.420000
13.697492,0.005856,0.272304,1.063840,3.640000,-1.400000,-1.400000
13.705579,-0.069296,0.284016,1.017480,1.960000,2.100000,0.000000
13.713666,0.005856,0.225456,0.844728,0.420000,1.960000,-2.100000
13.721753,-0.064904,0.276208,0.971608,0.700000,0.280000,-0.140000
13.729840,0.002440,0.244000,1.008696,2.940000,-1.400000,-0.280000
13.737927,-0.038064,0.291336,1.022848,1.680000,0.700000,-1.260000
13.746015,-0.024400,0.223016,0.915976,-0.280000,2.520000,-0.840000
13.754102,-0.042456,0.269376,0.954040,0.000000,0.980000,-1.260000
13.762189,-0.020008,0.245952,0.983320,2.940000,-1.820000,0.140000
13.770276,0.003904,0.270352,1.009672,1.400000,0.000000,-1.260000
13.778363,-0.039528,0.260592,0.998936,-0.420000,2.940000,-0.980000
13.786450,-0.064904,0.224968,0.917440,0.980000,0.980000,-0.560000
13.794537,0.004392,0.237168,0.955992,2.380000,-1.820000,-0.840000
13.802624,0.017568,0.313296,1.017968,3.080000,-0.700000,0.000000
13.810711,-0.068320,0.272792,1.029680,0.420000,2.800000,-1.540000
13.818799,-0.053192,0.231800,0.907192,0.140000,2.100000,-0.840000
13.826886,0.003904,0.247416,0.916952,1.400000,-0.420000,-0.700000
13.834973,-0.015128,0.274256,0.990640,1.260000,-0.980000,-0.560000
13.843060,-0.024888,0.277184,1.042856,0.840000,1.120000,-0.700000
13.851147,-0.057584,0.220576,0.949648,-0.840000,3.360000,-1.540000
13.859234,-0.022448,0.225456,0.928176,2.800000,-0.700000,-0.140000
13.867321,0.000488,0.310856,1.025776,3.500000,-2.100000,-0.560000
13.875408,-0.037088,0.269376,0.981368,-0.140000,1.540000,-0.980000
13.883496,-0.022936,0.237168,0.956968,-0.700000,2.660000,-1.120000
13.891583,-0.062952,0.241072,0.955504,0.980000,0.420000,-0.700000
13.899670,-0.004880,0.258640,1.012600,3.500000,-1.260000,-0.420000
13.907757,-0.010248,0.273768,0.968192,1.820000,0.700000,-0.700000
13.915844,-0.030744,0.250344,1.027728,0.280000,1.960000,-1.400000
13.923931,-0.040992,0.242536,0.937448,2.240000,0.840000,-0.560000
13.932018,-0.036600,0.254248,0.881816,3.080000,-0.700000,0.000000
13.940105,0.033184,0.305976,1.000888,2.240000,-1.120000,-1.400000
13.948192,-0.062952,0.287432,1.030656,-0.560000,2.240000,-0.420000
13.956280,-0.052216,0.203008,0.944768,-1.540000,2.940000,-1.540000
13.964367,-0.012688,0.236680,0.905240,1.540000,-1.260000,-0.420000
13.972454,-0.000976,0.267424,1.051152,3.220000,-0.980000,-0.420000
13.980541,-0.015616,0.300120,1.043832,1.540000,1.820000,-1.540000
13.988628,-0.076616,0.241072,0.915000,0.420000,1.680000,-0.700000
13.996715,-0.009272,0.235704,0.873520,0.140000,0.140000,-0.840000
14.004802,0.016592,0.281088,1.005768,1.400000,-1.400000,-0.420000
14.012889,-0.044408,0.289872,1.081408,0.420000,1.120000,-0.980000
14.020976,-0.060512,0.229360,1.014552,0.000000,2.940000,-1.260000
14.029064,-0.040504,0.214720,0.857904,3.640000,0.140000,-0.140000
14.037151,0.036600,0.293288,0.942328,2.940000,-1.680000,-1.260000
14.045238,-0.038064,0.297192,1.038952,0.420000,0.280000,-0.140000
14.053325,-0.027816,0.247416,1.026752,-0.280000,2.240000,-1.680000
14.061412,-0.092232,0.198616,0.887672,1.680000,2.240000,0.000000
14.069499,0.019520,0.268888,0.925248,4.200000,-1.960000,-0.980000
14.077586,0.008296,0.323056,1.040416,0.420000,-0.980000,-0.560000
14.085673,-0.038552,0.256688,1.028216,-0.560000,3.080000,-1.260000
14.093760,-0.061000,0.234240,0.917928,-0.980000,2.660000,-1.400000
14.101848,-0.030744,0.203984,0.906216,2.240000,-1.820000,0.140000
14.109935,0.015616,0.335256,1.054080,2.520000,-1.540000,-0.840000
14.118022,-0.024400,0.277184,0.978928,-1.260000,2.940000,-1.120000
14.126109,-0.080032,0.234240,0.914024,-1.680000,2.380000,-1.540000
14.134196,-0.020984,0.215208,0.920856,0.980000,-1.260000,-0.140000
14.142283,0.028792,0.285480,1.125816,1.260000,-0.980000,-0.700000
14.150370,-0.054168,0.262056,1.001864,0.420000,2.380000,-0.700000
14.158457,-0.058560,0.260104,0.849608,0.700000,1.820000,-1.260000
14.166544,-0.030744,0.253272,0.882304,0.140000,-0.840000,-0.420000
14.174632,0.045384,0.275232,1.081408,-0.140000,-2.100000,-0.560000
14.182719,-0.051240,0.272304,1.114592,-0.420000,3.080000,-1.120000
14.190806,-0.047336,0.199592,0.869128,1.120000,2.100000,-1.120000
14.198893,-0.040016,0.281576,0.864736,2.100000,-0.700000,-0.420000
14.206980,0.027328,0.303536,1.014552,0.560000,-2.240000,-0.560000
14.215067,-0.030256,0.269864,1.093608,-1.400000,1.820000,-0.980000
14.223154,-0.055632,0.228384,0.913048,-1.960000,2.940000,-1.260000
14.231241,-0.049776,0.226920,0.874496,0.140000,0.560000,-0.980000
14.239328,0.020008,0.272304,1.028216,0.840000,-2.660000,-0.280000
14.247416,-0.005856,0.291336,1.118496,0.420000,1.120000,-0.560000
14.255503,-0.056120,0.223504,0.924272,0.280000,3.360000,-1.680000
14.263590,-0.062464,0.251808,0.852536,0.560000,0.280000,-0.840000
14.271677,-0.020008,0.263520,0.944768,0.560000,-1.680000,-0.140000
14.279764,0.038552,0.308416,1.062376,-0.840000,-0.840000,-0.560000
14.287851,-0.046848,0.247416,1.018944,-2.660000,3.920000,-1.820000
14.295938,-0.085888,0.200080,0.884256,-0.560000,2.380000,-1.120000
14.304025,0.004880,0.239120,0.985760,2.800000,-2.800000,-0.140000
14.312112,0.017568,0.313296,1.088728,1.820000,-1.120000,-0.280000
14.320200,-0.022448,0.258640,0.944768,-0.560000,3.640000,-1.820000
14.328287,-0.100040,0.236192,0.916464,-0.420000,2.380000,-1.120000
14.336374,-0.040016,0.216672,0.932080,1.680000,-1.680000,-0.140000
14.344461,0.052704,0.305000,1.044808,1.820000,-1.820000,-0.420000
14.352548,-0.016104,0.261568,1.011136,-0.840000,2.240000,-1.400000
14.360635,-0.094672,0.215696,0.993568,0.140000,3.220000,-1.680000
14.368722,-0.046848,0.254736,0.879376,3.080000,0.000000,-0.280000
14.376809,0.010736,0.272304,0.921344,1.540000,-1.820000,-0.140000
14.384896,0.018056,0.284504,1.088728,-0.280000,-0.280000,-0.420000
14.392984,-0.040992,0.244000,1.033096,-0.140000,2.380000,-1.540000
14.401071,-0.077592,0.242536,0.839848,0.980000,2.800000,-1.260000
14.409158,-0.030256,0.269864,0.927688,0.700000,-1.400000,-0.560000
14.417245,0.011712,0.252296,1.011624,0.560000,-1.680000,-0.140000
14.425332,0.024888,0.289384,1.041392,-0.560000,1.120000,-1.400000
14.433419,-0.083936,0.257176,0.962824,-1.960000,3.640000,-1.540000
14.441506,-0.084424,0.226920,0.873032,-1.540000,0.700000,-0.560000
14.449593,0.025864,0.245952,0.959408,-0.560000,-2.520000,-0.840000
14.457680,0.037576,0.316224,1.053104,-1.680000,-0.700000,0.140000
14.465768,-0.058560,0.245952,1.016992,-3.220000,3.780000,-2.380000
14.473855,-0.060512,0.226920,0.890600,-2.100000,2.380000,-0.840000
14.481942,-0.056120,0.247904,0.912072,-1.260000,-1.820000,-0.280000
14.490029,0.039040,0.290360,1.035536,-1.680000,-1.400000,-0.560000
14.498116,0.025864,0.266448,1.036024,-3.360000,1.820000,-1.120000
14.506203,-0.124440,0.226920,0.943792,-4.340000,4.200000,-2.240000
14.514290,-0.042456,0.232288,0.934520,-0.980000,-0.420000,0.000000
14.522377,0.007320,0.256688,0.989664,-0.420000,-2.380000,-0.280000
14.530464,0.025864,0.264984,1.008696,-2.800000,1.120000,-1.680000
14.538552,-0.075640,0.254736,1.012112,-3.360000,3.500000,-1.260000
14.546639,-0.101016,0.181536,0.905728,-0.980000,1.680000,-0.980000
14.554726,0.052704,0.280600,0.975024,1.260000,-3.780000,-0.140000
14.562813,0.018544,0.264496,1.048712,-0.840000,0.560000,-0.700000
14.570900,-0.044896,0.261080,1.046272,-1.680000,3.360000,-1.540000
14.578987,-0.088328,0.215208,0.880840,-1.260000,2.100000,-1.540000
14.587074,-0.029280,0.235704,0.936960,0.000000,-0.560000,-0.140000
14.595161,0.020984,0.267912,1.011136,0.840000,-1.400000,-0.700000
14.603248,0.002440,0.261568,1.034560,-0.280000,0.000000,-0.560000
14.611336,-0.049776,0.257176,0.977952,-1.540000,3.640000,-1.820000
14.619423,-0.075152,0.224968,0.909144,-1.260000,1.540000,-0.700000
14.627510,-0.040016,0.232776,0.936472,-0.140000,-0.700000,-0.700000
14.635597,0.020008,0.255712,0.998936,0.840000,-1.540000,-0.280000
14.643684,0.028792,0.281088,1.018944,-0.140000,-0.140000,-0.700000
14.651771,-0.075152,0.275720,0.967704,-2.660000,2.520000,-1.680000
14.659858,-0.036600,0.227408,0.979416,-3.500000,2.100000,-1.120000
14.667945,-0.061000,0.210816,0.918904,-1.820000,0.980000,-0.700000
14.676032,0.003904,0.234728,0.959896,-0.140000,-1.820000,-0.560000
14.684120,0.010736,0.288896,1.042368,-0.420000,-0.420000,-0.420000
14.692207,-0.034648,0.280112,0.975512,-2.240000,1.960000,-1.260000
14.700294,-0.051728,0.232776,0.944280,-5.040000,1.960000,-1.540000
14.708381,-0.035624,0.217160,0.959896,-3.220000,1.120000,-0.840000
14.716468,-0.030256,0.219600,0.979904,-0.700000,-0.280000,-0.280000
14.724555,0.017080,0.283040,0.991128,-1.120000,-1.540000,-0.980000
14.732642,-0.024888,0.263520,0.996496,-2.520000,1.680000,-0.700000
14.740729,-0.042456,0.244000,0.969656,-4.200000,2.240000,-1.820000
14.748816,-0.062952,0.244488,0.880352,-5.600000,1.260000,-0.700000
14.756904,-0.005368,0.222040,0.963800,-3.920000,-0.700000,-0.700000
14.764991,-0.000976,0.255712,1.061888,-3.920000,-0.560000,-0.840000
14.773078,-0.029768,0.247416,1.022848,-3.640000,1.820000,-1.400000
14.781165,-0.055144,0.240584,0.952088,-5.040000,2.380000,-1.400000
14.789252,-0.044408,0.202520,0.941352,-4.200000,0.840000,-0.840000
14.797339,-0.012200,0.226432,0.976000,-0.980000,-1.120000,-0.560000
14.805426,0.013176,0.261568,1.011136,-1.680000,-0.280000,-0.980000
14.813513,-0.045384,0.248392,1.027240,-2.940000,1.680000,-1.120000
14.821600,-0.018056,0.230336,0.940864,-4.060000,1.680000,-1.540000
14.829688,-0.065392,0.259616,0.960872,-4.340000,1.400000,-0.980000
14.837775,-0.009272,0.195688,0.916464,-3.500000,-0.140000,-0.840000
14.845862,0.003416,0.259616,1.057984,-2.380000,-0.840000,-0.700000
14.853949,-0.038064,0.230336,0.994544,-3.360000,1.400000,-0.980000
14.862036,-0.032208,0.245464,0.978928,-4.620000,1.820000,-1.540000
14.870123,-0.045872,0.226920,0.935496,-4.900000,0.980000,-1.120000
14.878210,-0.029768,0.212768,0.929152,-4.620000,0.560000,-0.840000
14.886297,-0.024400,0.249368,1.008696,-2.940000,-1.540000,-0.700000
14.894384,0.008784,0.267424,0.983320,-4.480000,0.280000,-0.560000
14.902472,-0.026840,0.247904,1.027240,-7.000000,2.800000,-2.100000
14.910559,-0.096624,0.162504,0.961848,-6.160000,2.660000,-0.700000
14.918646,-0.007808,0.190320,0.940376,-2.660000,-0.700000,-0.840000
14.926733,-0.004392,0.253272,1.000888,-1.540000,-0.980000,-0.560000
14.934820,-0.005368,0.261568,0.970632,-3.360000,0.140000,-0.700000
14.942907,-0.020496,0.252784,1.030168,-6.580000,1.400000,-1.960000
14.950994,-0.067344,0.184952,0.963800,-5.740000,2.660000,-0.840000
14.959081,-0.020984,0.219600,0.937936,-3.780000,-0.140000,-1.260000
14.967168,-0.032696,0.264496,0.970632,-3.640000,-0.840000,-0.280000
14.975256,0.046360,0.251320,0.970632,-5.600000,-0.140000,-1.260000
14.983343,-0.087352,0.259128,1.065792,-8.400000,3.780000,-1.540000
14.991430,-0.045384,0.155672,0.862784,-8.120000,1.680000,-1.540000
14.999517,0.003904,0.215208,0.955992,-6.860000,-0.840000,-0.700000
15.007604,-0.013664,0.244488,1.072624,-5.740000,-0.420000,-0.700000
15.015691,-0.041480,0.220576,1.049200,-5.600000,1.680000,-1.680000
15.023778,-0.033672,0.184952,0.920856,-7.700000,2.800000,-1.120000
15.031865,-0.043432,0.219112,0.978440,-6.020000,0.560000,-1.120000
15.039952,-0.020984,0.211304,0.918416,-5.320000,-0.980000,-0.560000
15.048040,0.032696,0.238144,1.020896,-5.880000,0.280000,-0.980000
15.056127,-0.056608,0.239120,1.070672,-7.560000,1.820000,-1.820000
15.064214,-0.073688,0.172264,0.933056,-7.420000,2.100000,-0.840000
15.072301,0.009272,0.182024,0.944768,-5.460000,-0.560000,-1.120000
15.080388,-0.037088,0.242048,1.028704,-3.500000,-1.260000,-0.280000
15.088475,-0.012688,0.204960,1.030656,-5.460000,1.960000,-1.400000
15.096562,-0.018544,0.217648,1.005280,-6.020000,1.680000,-1.260000
15.104649,-0.101504,0.151768,0.965264,-4.620000,1.820000,-0.980000
15.112736,0.022936,0.222528,0.920368,-2.940000,-1.120000,-0.840000
15.120823,-0.009760,0.252784,0.976000,-4.760000,-0.420000,-0.700000
15.128911,-0.044408,0.229360,1.003328,-6.720000,1.120000,-1.120000
15.136998,0.010736,0.194224,1.024800,-8.680000,1.540000,-1.680000
15.145085,-0.114680,0.161528,0.976000,-6.720000,2.520000,-1.120000
15.153172,0.005856,0.204472,0.915488,-3.500000,-1.400000,-0.420000
15.161259,0.002440,0.222040,0.967704,-5.460000,-0.280000,-0.980000
15.169346,-0.011224,0.232288,1.114592,-7.700000,1.260000,-1.400000
15.177433,-0.076128,0.134200,0.991128,-6.160000,2.940000,-1.400000
15.185520,-0.023912,0.189344,0.908656,-4.200000,0.560000,-0.980000
15.193607,-0.018056,0.224480,1.004792,-3.920000,-0.420000,-0.700000
15.201695,-0.026352,0.176656,1.014552,-4.060000,0.000000,-0.280000
15.209782,0.013664,0.211792,1.064816,-4.900000,1.820000,-1.960000
15.217869,-0.085400,0.173728,0.957944,-4.340000,2.240000,-0.840000
15.225956,-0.024888,0.194712,0.907680,-3.220000,0.140000,-1.120000
15.234043,-0.061976,0.252296,0.992104,-3.360000,-0.140000,-0.560000
15.242130,0.041480,0.170800,0.950624,-6.300000,-0.980000,-0.840000
15.250217,-0.020984,0.214720,1.086288,-7.420000,2.380000,-1.820000
15.258304,-0.085888,0.152744,0.957456,-6.020000,2.100000,-0.840000
15.266391,-0.012200,0.179584,0.919880,-4.060000,-1.120000,-1.260000
15.274478,0.003904,0.256688,0.996008,-4.760000,-0.700000,-0.420000
15.282566,0.007320,0.186904,1.053592,-7.280000,0.420000,-1.260000
15.290653,-0.093696,0.181048,0.996008,-8.120000,4.620000,-1.680000
15.298740,-0.007320,0.120536,0.916952,-5.460000,0.000000,-0.700000
15.306827,-0.039040,0.171288,1.064328,-2.660000,-1.120000,-0.700000
15.314914,-0.001952,0.210328,1.080432,-3.360000,0.980000,-0.980000
15.323001,-0.055144,0.176168,0.981368,-2.800000,2.800000,-1.540000
15.331088,-0.071248,0.164456,0.952088,-2.940000,0.700000,-0.980000
15.339175,0.016104,0.148352,1.009672,0.280000,-1.540000,-0.420000
15.347262,-0.019032,0.196176,1.124840,1.400000,-0.140000,-0.700000
15.355350,-0.022448,0.184952,0.964776,0.140000,1.960000,-1.260000
15.363437,-0.048312,0.194712,0.927688,0.280000,1.400000,-1.400000
15.371524,-0.080520,0.174704,0.944280,0.980000,0.280000,0.140000
15.379611,0.029280,0.194224,1.058472,0.840000,-1.540000,-1.120000
15.387698,-0.041968,0.165432,0.992104,-0.700000,2.380000,-1.120000
15.395785,-0.038552,0.186416,0.994056,-0.280000,2.100000,-1.120000
15.403872,-0.056608,0.176656,0.935984,0.560000,-0.140000,-0.420000
15.411959,0.020008,0.169336,1.005768,1.540000,-1.120000,-0.560000
15.420046,-0.015128,0.227408,1.067256,0.980000,0.840000,-1.120000
15.428134,-0.051728,0.163968,0.975512,-0.280000,2.660000,-1.120000
15.436221,-0.035624,0.176656,0.922808,0.700000,0.560000,-0.840000
15.444308,-0.034648,0.181048,0.964776,1.400000,-0.980000,-0.420000
15.452395,0.009272,0.214232,1.029192,-0.140000,-0.700000,-0.140000
15.460482,-0.009760,0.177632,1.090680,-0.840000,2.100000,-2.240000
15.468569,-0.080520,0.143960,0.955992,1.260000,1.400000,0.140000
15.476656,-0.029768,0.157624,0.945256,3.920000,-0.420000,-1.260000
15.484743,-0.022448,0.221552,1.038952,3.780000,-0.700000,0.280000
15.492830,0.035136,0.183488,1.006256,2.520000,-0.420000,-0.840000
15.500917,-0.073200,0.186416,1.079944,1.680000,3.360000,-1.400000
15.509005,-0.050752,0.150792,0.905728,3.640000,0.980000,-0.700000
15.517092,-0.057584,0.184464,0.893040,4.480000,-0.700000,-0.560000
15.525179,0.042944,0.218136,1.044808,3.220000,-1.400000,-0.140000
15.533266,-0.010248,0.201056,1.106784,1.540000,0.700000,-0.980000
15.541353,-0.086376,0.113704,0.953064,1.680000,3.780000,-1.260000
15.549440,-0.029768,0.191296,0.923296,5.320000,0.140000,-0.700000
15.557527,-0.048312,0.222040,1.007232,5.460000,-1.260000,-0.280000
15.565614,0.039528,0.198128,0.970632,3.500000,-0.840000,-0.280000
15.573701,0.004392,0.213256,1.085800,1.120000,1.120000,-1.400000
15.581789,-0.099552,0.162504,0.961848,2.380000,2.800000,-0.700000
15.589876,-0.029280,0.166408,0.869616,2.380000,0.840000,-1.680000
15.597963,-0.044896,0.211792,1.016504,3.780000,-1.680000,0.700000
15.606050,0.026840,0.186904,1.073112,3.640000,-0.840000,-0.700000
15.614137,-0.004392,0.193736,1.025288,1.540000,2.380000,-1.680000
15.622224,-0.086376,0.167872,0.944768,2.940000,2.380000,-0.560000
15.630311,-0.057584,0.202520,0.893040,3.080000,0.140000,-1.260000
15.638398,0.003904,0.183976,1.010160,3.220000,-1.540000,0.700000
15.646485,0.011224,0.196664,1.076040,3.360000,-0.840000,-0.840000
15.654573,-0.028304,0.190320,1.022848,1.820000,3.500000,-1.680000
15.662660,-0.090280,0.165432,0.912072,3.500000,1.820000,-0.560000
15.670747,-0.066368,0.189344,0.951600,3.780000,-0.560000,-0.840000
15.678834,0.069784,0.203008,1.046760,3.920000,-2.240000,0.280000
15.686921,-0.021472,0.187392,1.039928,3.500000,0.700000,-0.980000
15.695008,-0.047336,0.206424,1.023824,1.820000,3.220000,-1.120000
15.703095,-0.077104,0.169336,0.896456,4.060000,1.120000,-0.840000
15.711182,-0.032696,0.184952,0.918904,3.360000,-1.120000,-0.420000
15.719269,0.022448,0.227408,1.074088,4.200000,-1.400000,0.000000
15.727356,-0.005368,0.200568,0.991616,1.960000,0.560000,-0.980000
15.735444,-0.031720,0.205448,1.000400,1.120000,2.660000,-1.400000
15.743531,-0.097112,0.184952,0.942328,0.840000,2.240000,-1.120000
15.751618,-0.014640,0.146400,0.908656,1.680000,-1.260000,-0.280000
15.759705,0.033184,0.256200,1.067256,3.500000,-2.100000,0.000000
15.767792,-0.033184,0.196664,1.049200,1.400000,1.400000,-1.260000
15.775879,-0.030744,0.176168,0.959408,0.140000,3.500000,-1.400000
15.783966,-0.068808,0.212280,0.926224,1.680000,0.280000,-1.120000
15.792053,-0.041480,0.186904,0.942328,1.400000,-0.700000,0.140000
15.800140,0.050752,0.187880,1.065304,1.260000,-1.540000,-0.840000
15.808228,-0.058072,0.212280,1.053104,1.540000,3.080000,-1.400000
15.816315,-0.078568,0.161040,0.895968,1.260000,1.960000,-0.840000
15.824402,-0.021960,0.169824,0.954040,1.680000,-0.980000,-0.560000
15.832489,0.029280,0.214720,1.062376,3.220000,-1.540000,-0.140000
15.840576,-0.030256,0.211304,1.058960,2.520000,1.680000,-1.260000
15.848663,-0.063928,0.196176,0.964288,1.540000,2.660000,-1.120000
15.856750,-0.072712,0.175680,0.920856,2.240000,1.120000,-0.840000
15.864837,-0.010736,0.184952,0.934032,2.800000,-1.680000,-0.280000
15.872924,0.029768,0.203496,1.048712,2.800000,-0.280000,-0.420000
15.881011,-0.009272,0.231800,1.041392,2.520000,0.840000,-1.260000
15.889099,-0.092232,0.200080,0.985760,0.560000,2.380000,-0.840000
15.897186,-0.028792,0.160552,0.885232,0.560000,0.700000,-0.700000
15.905273,0.009760,0.195688,0.991128,2.800000,-2.240000,0.000000
15.913360,-0.015128,0.240584,1.065304,2.520000,-0.420000,-0.560000
15.921447,-0.022936,0.204472,0.978440,-0.280000,2.240000,-1.540000
15.929534,-0.080032,0.163480,0.984296,-0.560000,2.940000,-0.700000
15.937621,-0.026840,0.168848,0.974536,1.680000,-0.700000,-0.980000
15.945708,-0.015128,0.235704,0.986248,3.220000,-0.700000,0.140000
15.953795,0.008296,0.189832,1.023336,1.120000,0.700000,-1.260000
15.961883,-0.045872,0.212768,1.032608,0.700000,1.680000,-1.260000
15.969970,-0.071736,0.170312,0.909144,1.960000,1.120000,-0.420000
15.978057,0.004392,0.181536,0.927200,2.100000,-0.700000,-0.700000
15.986144,-0.001952,0.221064,1.053592,2.520000,-1.120000,-0.420000
15.994231,-0.030256,0.215208,1.030656,0.700000,1.680000,-1.120000
16.002318,-0.043432,0.190808,0.951112,-0.560000,2.800000,-1.260000
16.010405,-0.061000,0.162504,0.981368,1.260000,0.140000,-0.700000
16.018492,-0.015128,0.193248,0.976488,3.080000,-1.120000,-0.140000
16.026579,0.023912,0.221064,1.026752,2.380000,-0.280000,-0.840000
16.034666,-0.064416,0.195688,1.044320,0.980000,2.380000,-1.120000
16.042754,-0.059048,0.166896,0.935008,0.700000,2.380000,-0.700000
16.050841,-0.009760,0.179096,0.914024,3.780000,-1.400000,-0.560000
16.058928,-0.000488,0.233752,1.043344,2.660000,-0.840000,0.000000
16.067015,-0.019032,0.216672,1.049688,2.100000,0.560000,-1.260000
16.075102,-0.035136,0.191296,0.958920,1.260000,1.820000,-0.840000
16.083189,-0.040992,0.191784,0.958432,1.400000,1.400000,-1.120000
16.091276,-0.043432,0.184952,0.951112,3.220000,-1.120000,-0.140000
16.099363,0.009760,0.209840,1.030168,2.800000,-0.560000,-0.840000
16.107450,-0.016592,0.222528,1.034072,1.120000,1.820000,-0.840000
16.115538,-0.068320,0.177144,0.964288,0.280000,2.380000,-1.260000
16.123625,-0.044408,0.177632,0.933056,1.260000,0.980000,-0.980000
16.131712,-0.003416,0.217160,0.982344,3.220000,-1.960000,0.000000
16.139799,-0.023424,0.208376,1.027240,1.260000,0.280000,-0.700000
16.147886,-0.001464,0.185928,1.028216,0.560000,1.960000,-1.260000
16.155973,-0.069296,0.193736,0.971120,1.540000,1.540000,-1.120000
16.164060,-0.042944,0.189344,0.923784,2.240000,-0.420000,-0.420000
16.172147,0.001952,0.225944,1.015040,3.640000,-0.840000,-0.420000
16.180234,-0.016104,0.205936,1.039928,1.540000,0.000000,-0.840000
16.188321,-0.043920,0.185928,1.013088,0.140000,2.940000,-1.120000
16.196409,-0.050264,0.166408,0.951112,2.800000,1.260000,-0.980000
16.204496,-0.057584,0.181536,0.911096,4.340000,-0.280000,0.280000
16.212583,0.035624,0.227408,1.038952,3.640000,-1.260000,-0.980000
16.220670,-0.020984,0.209352,1.091168,3.500000,0.560000,-0.280000
16.228757,-0.033184,0.184464,0.946720,2.520000,1.960000,-1.260000
16.236844,-0.061000,0.208864,0.985760,3.500000,1.820000,-1.120000
16.244931,-0.057584,0.188368,0.884256,4.620000,-1.260000,0.000000
16.253018,0.023424,0.239608,1.042856,3.780000,-0.980000,-0.700000
16.261105,0.007808,0.219112,1.021872,2.100000,0.280000,-0.560000
16.269193,-0.049776,0.191784,0.993080,0.420000,3.080000,-1.540000
16.277280,-0.060024,0.186904,0.968680,2.380000,1.400000,-1.120000
16.285367,-0.058072,0.165432,0.903776,4.620000,-0.840000,-0.140000
16.293454,0.022936,0.263032,1.044320,3.500000,-1.540000,-0.420000
16.301541,0.005856,0.197640,1.021872,1.540000,0.560000,-0.560000
16.309628,-0.057584,0.196664,0.977464,0.280000,3.780000,-1.540000
16.317715,-0.092720,0.204472,0.908168,1.960000,1.120000,-0.980000
16.325802,-0.008296,0.225944,0.910120,1.960000,-2.940000,0.140000
16.333889,0.060024,0.218624,1.064816,-0.420000,-1.120000,-0.700000
16.341976,-0.024400,0.206912,1.084336,-1.400000,3.360000,-1.400000
16.350064,-0.097600,0.147376,0.917928,1.260000,2.940000,-1.260000
16.358151,-0.050264,0.234240,0.954040,3.920000,-2.380000,-0.140000
16.366238,0.048312,0.219600,0.999912,1.680000,-1.400000,-0.280000
16.374325,0.000488,0.208376,1.073112,-0.280000,1.680000,-1.400000
16.382412,-0.102480,0.200080,0.978440,0.280000,3.500000,-1.400000
16.390499,-0.081496,0.184464,0.838872,1.400000,1.260000,-0.420000
16.398586,0.021960,0.203496,0.985760,1.540000,-2.800000,-0.560000
16.406673,0.038064,0.209840,1.123864,0.560000,-0.700000,-0.420000
16.414760,-0.053192,0.183000,1.048224,1.680000,3.920000,-1.680000
16.422848,-0.108824,0.199104,0.885720,2.800000,1.960000,-0.560000
16.430935,-0.007320,0.178608,0.919880,2.940000,-1.680000,-0.420000
16.439022,0.040992,0.251808,1.061888,2.940000,-1.260000,-0.140000
16.447109,-0.021472,0.191784,1.104832,2.240000,1.400000,-1.400000
16.455196,-0.076128,0.202032,0.905240,2.100000,2.800000,-1.120000
16.463283,-0.054656,0.184464,0.922320,3.500000,0.560000,-0.840000
16.471370,-0.001952,0.255712,0.979416,3.360000,-1.680000,-0.140000
16.479457,0.020984,0.194224,0.985760,1.120000,-0.420000,-0.420000
16.487544,-0.032696,0.240584,1.073600,0.420000,2.520000,-1.540000
16.495631,-0.087840,0.157136,0.940864,0.840000,2.520000,-0.980000
16.503719,-0.029768,0.192760,0.925736,2.660000,-1.260000,-0.140000
16.511806,0.018056,0.244488,1.011624,2.940000,-1.680000,-0.700000
16.519893,-0.000488,0.232776,1.021384,1.260000,0.840000,-0.560000
16.527980,-0.064904,0.210328,0.999424,0.000000,2.940000,-1.400000
16.536067,-0.051240,0.169336,0.950624,-0.140000,0.980000,-0.980000
16.544154,-0.021960,0.176656,0.954040,1.540000,-0.280000,-0.140000
16.552241,0.014152,0.235704,0.998936,2.520000,-1.120000,-0.840000
16.560328,-0.025864,0.240584,1.055544,1.820000,0.700000,-0.700000
16.568415,-0.050752,0.180072,0.991616,0.140000,2.660000,-1.540000
16.576503,-0.063440,0.178120,0.968680,2.100000,0.700000,-0.280000
16.584590,-0.016592,0.192760,0.951112,4.340000,-0.840000,-0.420000
16.592677,0.020496,0.222040,1.006256,3.500000,-0.420000,-0.700000
16.600764,-0.050264,0.208376,1.072136,3.360000,1.120000,-0.560000
16.608851,-0.024400,0.206912,0.991128,2.800000,1.400000,-1.540000
16.616938,-0.063440,0.186904,0.972096,3.360000,0.980000,-0.280000
16.625025,-0.017568,0.203984,0.907192,5.600000,-0.280000,-0.560000
16.633112,-0.015128,0.250344,0.994056,3.920000,-0.980000,-0.420000
16.641199,-0.001464,0.217648,0.987224,2.380000,0.140000,-0.280000
16.649286,-0.016592,0.193248,1.056520,0.700000,2.380000,-2.100000
16.657374,-0.101016,0.165920,0.961848,3.640000,2.100000,0.140000
16.665461,-0.001464,0.208376,0.927200,5.600000,-1.540000,-1.260000
16.673548,-0.015616,0.243024,0.982344,4.480000,-0.700000,0.420000
16.681635,-0.000976,0.246440,1.025288,3.640000,-0.140000,-1.400000
16.689722,-0.041480,0.251808,0.963312,-0.840000,2.520000,-0.980000
16.697809,-0.044896,0.154208,0.965264,-0.280000,1.820000,-0.560000
16.705896,-0.062464,0.186416,0.957456,2.660000,-0.280000,-0.980000
16.713983,0.035624,0.234240,0.983808,3.080000,-1.680000,0.140000
16.722070,-0.022448,0.251320,1.069208,1.120000,1.260000,-1.540000
16.730158,-0.052704,0.191784,0.958432,0.560000,2.940000,-0.980000
16.738245,-0.047336,0.184464,0.932568,1.820000,0.840000,-0.840000
16.746332,-0.031720,0.229360,0.994544,3.360000,-1.120000,-0.420000
16.754419,0.013664,0.213744,0.983320,1.260000,0.560000,-0.420000
16.762506,-0.015616,0.233264,1.043832,-0.140000,1.120000,-1.820000
16.770593,-0.094672,0.176168,0.972584,1.680000,1.400000,0.000000
16.778680,0.004392,0.200080,0.907680,3.640000,-0.840000,-1.260000
16.786767,-0.011712,0.264008,1.035536,2.940000,-0.700000,0.140000
16.794854,-0.029280,0.201544,1.038952,0.980000,1.260000,-1.400000
16.802941,-0.036600,0.199104,0.959896,1.400000,2.380000,-1.400000
16.811029,-0.051240,0.191296,0.914024,1.960000,0.140000,0.140000
16.819116,0.012688,0.213744,1.017480,2.520000,-1.540000,-0.980000
16.827203,-0.026840,0.257176,1.037976,3.220000,0.560000,-0.140000
16.835290,-0.043432,0.214232,0.985760,0.140000,2.800000,-1.540000
16.843377,-0.061488,0.189344,0.960872,1.260000,1.120000,-0.840000
16.851464,-0.017080,0.185928,0.925736,3.640000,-1.400000,0.140000
16.859551,0.020008,0.234728,1.026264,3.080000,-0.840000,-0.980000
16.867638,-0.030256,0.230336,1.056520,1.400000,1.960000,-0.980000
16.875725,-0.066856,0.191784,0.952576,2.520000,2.380000,-0.840000
16.883813,-0.044408,0.179096,0.934520,3.780000,-0.560000,-0.700000
16.891900,0.024888,0.229360,1.030656,5.320000,-0.980000,-0.560000
16.899987,-0.021960,0.259128,1.041392,4.200000,0.420000,-0.560000
16.908074,-0.061976,0.180560,1.000888,2.660000,2.380000,-0.980000
16.916161,-0.021960,0.218136,0.970144,4.620000,0.840000,-0.840000
16.924248,-0.066368,0.206912,0.892552,5.740000,-0.280000,0.000000
16.932335,0.020984,0.252296,0.971120,4.200000,-1.260000,-0.980000
16.940422,-0.013664,0.216184,1.039440,3.080000,0.420000,-0.140000
16.948509,-0.025376,0.217160,1.026264,2.660000,1.820000,-1.260000
16.956596,-0.068808,0.200568,0.969656,3.360000,1.540000,-1.260000
16.964684,-0.011224,0.219600,0.904752,3.920000,-0.140000,-0.140000
16.972771,-0.043432,0.246440,0.969656,3.780000,-0.280000,-0.980000
16.980858,0.030744,0.226920,1.009672,1.960000,-0.980000,0.000000
16.988945,-0.029280,0.205936,1.061400,1.680000,2.100000,-1.260000
16.997032,-0.069296,0.207888,0.953064,2.520000,2.520000,-0.840000
17.005119,-0.033184,0.216672,0.918416,3.640000,-0.560000,-0.700000
17.013206,-0.035136,0.218624,0.979416,4.060000,-0.280000,-0.140000
17.021293,0.039040,0.245464,1.080920,3.640000,-1.120000,-0.840000
17.029380,-0.055144,0.223992,1.012600,2.100000,2.520000,-0.700000
17.037467,-0.040016,0.193736,0.935984,2.100000,2.660000,-1.540000
17.045555,-0.066368,0.233752,0.918416,3.500000,0.140000,-0.560000
17.053642,-0.015616,0.197152,0.941840,4.200000,-2.240000,-0.140000
17.061729,0.031720,0.264984,1.052616,2.660000,-0.280000,-0.700000
17.069816,-0.007808,0.234240,1.064328,1.820000,1.820000,-0.840000
17.077903,-0.093208,0.208376,0.898408,0.840000,2.800000,-1.820000
17.085990,-0.030256,0.221064,0.915000,2.520000,0.560000,-0.420000
17.094077,-0.043920,0.234728,0.976976,3.080000,-1.680000,-0.140000
17.102164,0.019520,0.212280,1.019432,0.840000,-0.420000,-0.140000
17.110251,0.026352,0.231312,1.074576,1.960000,1.120000,-1.400000
17.118339,-0.116144,0.229360,0.939888,0.980000,2.940000,-1.120000
17.126426,-0.023424,0.194224,0.867176,1.680000,0.280000,-0.560000
17.134513,-0.022936,0.245464,1.027240,2.940000,-2.380000,-0.140000
17.142600,0.037576,0.233264,1.077504,1.400000,0.140000,-0.560000
17.150687,-0.042944,0.235704,1.007720,1.400000,3.080000,-1.400000
17.158774,-0.107360,0.181048,0.918904,1.260000,2.940000,-0.840000
17.166861,-0.030744,0.195688,0.927688,3.780000,-0.980000,-0.700000
17.174948,0.009272,0.222528,0.997472,5.040000,-1.960000,0.420000
17.183035,0.045384,0.281088,1.064816,3.640000,-0.420000,-1.120000
17.191122,-0.051240,0.238632,1.016992,1.680000,2.800000,-0.980000
17.199210,-0.064904,0.211792,0.885232,0.980000,2.380000,-1.400000
17.207297,-0.061000,0.227408,0.916464,0.700000,0.000000,-0.840000
17.215384,0.004880,0.212280,0.999912,2.380000,-2.100000,0.280000
17.223471,0.031232,0.242536,1.089704,1.820000,0.140000,-0.840000
17.231558,-0.053680,0.222040,1.013088,1.960000,2.660000,-0.980000
17.239645,-0.075152,0.198616,0.937448,2.940000,2.380000,-1.400000
17.247732,-0.036600,0.207888,0.922320,3.920000,-0.420000,-0.140000
17.255819,0.008784,0.235704,1.011136,6.020000,-2.800000,0.140000
17.263906,0.005368,0.242048,1.037000,3.640000,0.420000,-0.980000
17.271994,-0.004392,0.251320,1.012112,2.940000,2.100000,-1.120000
17.280081,-0.126392,0.214232,0.877424,2.100000,2.800000,-1.260000
17.288168,-0.014152,0.198616,0.983808,2.240000,-0.280000,-0.700000
17.296255,-0.019520,0.227896,1.002840,5.740000,-1.680000,0.000000
17.304342,0.029280,0.244976,1.032608,3.780000,0.000000,-0.700000
17.312429,-0.029768,0.250344,1.010160,3.220000,1.540000,-0.980000
17.320516,-0.069784,0.222040,0.919880,2.240000,2.240000,-1.400000
17.328603,-0.037576,0.216184,0.952088,1.820000,0.420000,-0.700000
17.336690,-0.022448,0.192760,0.951112,4.480000,-1.120000,0.000000
17.344777,0.039528,0.287920,1.042368,4.480000,-1.260000,-0.840000
17.352865,-0.041968,0.255712,0.992592,2.520000,1.680000,-0.560000
17.360952,-0.042456,0.235216,0.956480,0.280000,2.520000,-1.680000
17.369039,-0.076616,0.202032,0.980880,1.680000,1.540000,-0.420000
17.377126,-0.017080,0.214232,0.918416,4.340000,-2.100000,-0.280000
17.385213,0.025376,0.252296,1.040416,1.820000,0.140000,-0.280000
17.393300,-0.023424,0.227896,1.021872,2.940000,0.980000,-0.980000
17.401387,-0.072712,0.232776,0.941840,1.120000,2.520000,-1.260000
17.409474,-0.036112,0.237168,0.917440,1.540000,0.420000,-0.700000
17.417561,-0.037088,0.222528,0.934032,1.540000,-1.120000,-0.280000
17.425649,0.069784,0.245952,1.069696,2.380000,-2.100000,-0.280000
17.433736,-0.024888,0.267912,1.081896,1.960000,2.660000,-1.680000
17.441823,-0.122488,0.202032,0.885232,0.420000,3.500000,-0.980000
17.449910,-0.020984,0.184952,0.934520,2.100000,-0.560000,-0.840000
17.457997,-0.008296,0.252784,0.984296,4.200000,-1.820000,0.420000
17.466084,0.031232,0.265472,1.032120,2.100000,0.140000,-1.120000
17.474171,-0.053680,0.254248,1.017480,0.980000,2.240000,-1.120000
17.482258,-0.082960,0.198128,0.915488,1.120000,2.940000,-1.400000
17.490345,-0.007808,0.235704,0.927688,1.540000,-1.260000,-0.140000
17.498432,-0.022448,0.219600,1.031632,2.800000,-1.120000,-0.420000
17.506520,0.010736,0.275232,1.051640,2.100000,0.700000,-0.980000
17.514607,-0.063928,0.208864,0.937448,1.400000,2.520000,-0.840000
17.522694,-0.052216,0.219112,0.959408,1.260000,0.980000,-1.260000
17.530781,-0.012688,0.213256,0.973560,3.080000,-0.700000,-0.140000
17.538868,-0.001952,0.262056,1.010648,4.480000,-1.120000,-0.140000
17.546955,-0.013176,0.251808,0.994056,2.100000,1.540000,-1.260000
17.555042,-0.023424,0.239608,0.980880,1.120000,1.540000,-0.840000
17.563129,-0.080032,0.229360,0.944768,1.540000,1.400000,-1.540000
17.571216,-0.007320,0.222528,0.923784,1.680000,-0.840000,0.140000
17.579303,0.003904,0.244976,1.039928,3.220000,-0.840000,-0.700000
17.587391,-0.034160,0.256688,1.012600,1.540000,0.980000,-0.700000
17.595478,-0.002928,0.225456,0.958920,0.420000,1.260000,-1.120000
17.603565,-0.101992,0.221064,0.965752,1.400000,1.960000,-1.120000
17.611652,0.022936,0.209352,0.938424,3.080000,-1.540000,0.000000
17.619739,-0.017568,0.262544,1.012600,2.800000,-0.140000,-0.980000
17.627826,-0.020496,0.265472,1.057984,1.400000,1.120000,-0.420000
17.635913,-0.043920,0.203496,0.936472,0.700000,2.240000,-1.400000
17.644000,-0.067832,0.218624,0.937936,1.400000,1.540000,-0.560000
17.652087,0.015128,0.237168,0.973072,4.200000,-1.960000,-0.700000
17.660175,-0.041480,0.281576,0.971608,2.100000,0.280000,-0.280000
17.668262,0.015616,0.228384,1.069696,1.120000,0.700000,-0.980000
17.676349,-0.067832,0.218624,0.966240,1.120000,2.660000,-1.260000
17.684436,-0.062464,0.228872,0.915976,2.800000,0.980000,-0.700000
17.692523,-0.006832,0.241072,0.953552,3.500000,-1.820000,-0.700000
17.700610,0.005368,0.245952,0.998448,3.080000,-0.560000,0.000000
17.708697,0.011224,0.281088,1.052128,0.700000,0.840000,-1.120000
17.716784,-0.089304,0.204960,0.984296,-0.420000,3.640000,-1.400000
17.724871,-0.038064,0.214232,0.901336,2.660000,0.420000,-0.560000
17.732958,-0.030256,0.239120,0.892064,1.820000,-1.680000,-0.700000
17.741046,0.042456,0.264496,1.075064,0.980000,-0.980000,0.000000
17.749133,-0.047336,0.253272,1.080432,0.140000,2.520000,-1.540000
17.757220,-0.061976,0.215696,0.884256,0.000000,2.660000,-0.840000
17.765307,-0.045872,0.205936,0.891088,1.820000,-0.280000,-0.840000
17.773394,0.000000,0.258152,1.067744,3.220000,-1.960000,-0.280000
17.781481,0.024888,0.265472,1.044320,2.380000,-0.140000,-0.560000
17.789568,-0.049776,0.238632,0.971120,-0.700000,4.340000,-1.960000
17.797655,-0.089792,0.201544,0.935984,1.540000,1.960000,-0.420000
17.805742,-0.037576,0.236192,0.900360,3.500000,-1.820000,-0.420000
17.813830,0.050264,0.251320,1.030656,1.960000,-1.820000,-0.140000
17.821917,-0.006832,0.266448,1.111176,2.100000,1.120000,-1.260000
17.830004,-0.082960,0.201056,0.939888,1.120000,3.220000,-0.980000
17.838091,-0.054168,0.216672,0.889136,3.780000,0.840000,-1.120000
17.846178,-0.018544,0.269376,0.968192,3.920000,-1.960000,0.000000
17.854265,0.033184,0.258640,0.983320,1.960000,-1.260000,-0.280000
