Time [s],lsm6dsv16x_acc_x [g],lsm6dsv16x_acc_y [g],lsm6dsv16x_acc_z [g],lsm6dsv16x_gyro_x [dps],lsm6dsv16x_gyro_y [dps],lsm6dsv16x_gyro_z [dps]
59.753247,-0.042944,0.149816,1.090192,5.180000,2.800000,-1.260000
59.761334,-0.103944,0.107848,0.896456,5.460000,2.940000,-0.840000
59.769421,-0.026840,0.134200,0.922320,5.600000,-0.840000,-0.700000
59.777508,-0.010736,0.158112,0.992104,5.040000,-1.680000,0.420000
59.785595,0.032696,0.169336,1.053592,4.340000,-0.140000,-0.420000
59.793682,-0.058072,0.154696,1.048224,2.940000,3.640000,-2.240000
59.801769,-0.108336,0.125416,0.936960,4.480000,1.120000,-0.420000
59.809856,0.010248,0.091744,0.923784,4.760000,-1.120000,-0.560000
59.817943,0.038064,0.158112,1.120936,6.020000,-1.960000,0.140000
59.826030,-0.049776,0.173240,1.060912,6.300000,2.380000,-1.400000
59.834117,-0.103456,0.152744,0.912072,4.060000,3.080000,-1.120000
59.842204,-0.029280,0.097600,0.921344,5.320000,-1.120000,0.140000
59.850291,0.022448,0.160552,1.065304,7.000000,-1.820000,-0.560000
59.858378,-0.009272,0.180560,1.029680,6.300000,0.140000,-0.140000
59.866465,-0.067832,0.166408,0.963312,4.060000,2.380000,-1.540000
59.874552,-0.052216,0.138104,0.975024,2.100000,2.660000,-0.980000
59.882639,-0.020008,0.112728,0.966240,4.200000,-1.260000,0.000000
59.890726,-0.025376,0.154696,1.049200,6.860000,-1.540000,-0.560000
59.898813,0.029768,0.158112,1.009184,5.460000,1.120000,-0.700000
59.906900,-0.076128,0.168848,0.983808,3.780000,2.800000,-1.540000
59.914987,-0.062464,0.148840,0.989664,4.480000,0.140000,-0.280000
59.923074,-0.003904,0.122488,0.938912,5.880000,-1.260000,-0.140000
59.931161,0.022448,0.173728,1.020408,5.040000,0.000000,-0.840000
59.939248,-0.039040,0.175680,1.091656,4.760000,1.400000,-0.840000
59.947335,-0.086864,0.120536,0.897920,3.500000,1.820000,-0.840000
59.955422,-0.007808,0.147376,0.977952,5.180000,-0.140000,-0.560000
59.963509,-0.018056,0.210328,1.013088,6.160000,-1.260000,0.140000
59.971596,-0.016104,0.140056,0.978440,3.500000,1.120000,-1.260000
59.979683,-0.011712,0.173728,1.034560,1.820000,1.400000,-0.980000
59.987770,-0.077592,0.138592,0.945256,3.220000,0.840000,-0.700000
59.995857,-0.011224,0.150792,0.946720,2.660000,-0.140000,-0.700000
60.003944,-0.006832,0.185440,1.034560,3.360000,-0.700000,-0.420000
60.012031,-0.046848,0.166408,1.068232,1.680000,1.820000,-1.260000
60.020118,-0.033672,0.129808,0.956480,1.820000,2.100000,-0.560000
60.028205,-0.046848,0.114192,0.973560,5.040000,-1.120000,-0.280000
60.036292,0.015128,0.182512,1.051152,5.880000,-1.260000,-0.560000
60.044379,-0.043920,0.176168,1.046272,4.900000,2.100000,-0.280000
60.052466,-0.055144,0.147864,0.935496,3.780000,1.400000,-1.680000
60.060553,-0.027328,0.135664,0.954528,3.220000,1.820000,-0.280000
60.068640,-0.003904,0.162992,0.982832,5.600000,-2.100000,-0.420000
60.076727,-0.046360,0.212768,1.029192,3.780000,0.000000,-0.980000
60.084814,0.024400,0.168848,1.020896,1.540000,2.100000,-0.420000
60.092901,-0.104920,0.122000,0.964288,2.380000,2.100000,-1.260000
60.100988,-0.025376,0.117608,0.971120,5.320000,-0.980000,-0.140000
60.109075,0.017080,0.206424,1.008696,5.880000,-0.980000,-0.420000
60.117162,-0.042456,0.183976,1.058960,2.520000,1.680000,-0.980000
60.125250,-0.034160,0.133712,0.979904,2.520000,2.100000,-0.840000
60.133337,-0.052704,0.150792,0.955016,5.040000,-0.280000,-0.560000
60.141424,-0.002440,0.179584,0.979416,5.740000,-1.400000,-0.420000
60.149511,-0.012200,0.203496,1.030656,4.060000,0.420000,-0.280000
60.157598,-0.026840,0.143960,1.001864,1.400000,1.400000,-1.400000
60.165685,-0.068320,0.138592,0.958920,3.220000,1.400000,-0.560000
60.173772,-0.022448,0.173728,0.915488,4.060000,-0.420000,-0.420000
60.181859,0.003416,0.184952,1.021872,2.520000,-0.560000,-0.560000
60.189946,-0.028304,0.169336,1.094096,2.940000,0.420000,-0.700000
60.198033,-0.075152,0.143960,1.010160,2.380000,2.940000,-1.260000
60.206120,-0.009272,0.136640,0.926712,4.760000,0.000000,-0.700000
60.214207,-0.042944,0.178608,0.976488,5.880000,-1.540000,0.000000
60.222294,0.035136,0.175680,1.075064,4.480000,0.280000,-0.700000
60.230381,-0.036600,0.189344,1.058960,4.200000,1.820000,-0.840000
60.238468,-0.107360,0.125416,0.922320,4.480000,2.800000,-0.840000
60.246555,0.012200,0.156648,0.892552,6.720000,-0.840000,-0.980000
60.254642,-0.034160,0.232776,1.048712,5.880000,-1.680000,0.280000
60.262729,0.010248,0.171288,1.024312,3.500000,0.000000,-0.840000
60.270816,-0.027328,0.173728,1.003328,2.100000,1.960000,-1.120000
60.278903,-0.091256,0.144448,0.936472,2.520000,2.940000,-0.700000
60.286990,0.001952,0.151768,0.920368,4.900000,-1.820000,-0.700000
60.295077,-0.026352,0.213744,1.048224,3.780000,-1.400000,0.000000
60.303164,0.027816,0.186904,1.102880,2.100000,2.240000,-1.260000
60.311251,-0.092232,0.118096,0.946720,3.360000,2.800000,-1.260000
60.319338,-0.044896,0.171288,0.931592,5.320000,-0.140000,-0.560000
60.327425,-0.011224,0.203984,0.987224,5.040000,-2.100000,0.140000
60.335512,0.005368,0.183976,1.057984,3.220000,0.280000,-0.700000
60.343599,-0.028792,0.160552,1.041880,2.520000,3.220000,-1.400000
60.351686,-0.070760,0.136640,0.931104,4.760000,0.980000,-0.840000
60.359773,-0.053680,0.183488,0.931592,5.600000,-0.700000,-0.280000
60.367860,0.036600,0.188856,0.999912,5.180000,-1.120000,-0.140000
60.375947,-0.012688,0.210816,1.104344,3.360000,1.120000,-0.980000
60.384034,-0.078568,0.138592,0.939400,2.940000,2.380000,-1.120000
60.392121,-0.032208,0.157136,0.925736,5.460000,0.140000,-0.700000
60.400208,-0.022936,0.208864,1.001376,5.320000,-2.240000,-0.140000
60.408295,-0.002928,0.181048,1.052128,4.340000,0.700000,-0.280000
60.416382,0.003904,0.181536,1.067744,3.220000,1.540000,-1.400000
60.424469,-0.118096,0.137128,0.944280,4.060000,3.220000,-0.980000
60.432556,-0.028304,0.164456,0.911584,6.020000,-0.140000,-0.420000
60.440643,-0.010736,0.197152,0.973072,6.860000,-2.660000,0.560000
60.448730,0.027328,0.189832,1.056520,5.600000,-0.280000,-0.840000
60.456817,0.003416,0.210816,1.046272,3.920000,1.540000,-0.980000
60.464904,-0.093208,0.173728,0.951600,3.220000,2.940000,-1.260000
60.472991,-0.068320,0.161528,0.928664,4.480000,0.700000,-0.700000
60.481078,-0.020008,0.181048,0.984784,5.880000,-2.100000,0.140000
60.489165,0.033672,0.191784,1.058960,4.480000,-0.700000,-0.140000
60.497252,-0.020984,0.190320,1.064816,4.480000,2.520000,-1.680000
60.505339,-0.083936,0.152744,0.921344,5.320000,2.380000,-0.700000
60.513426,-0.070272,0.198616,0.903288,6.020000,-0.140000,-0.700000
60.521513,0.023424,0.226920,0.962336,4.340000,-3.080000,0.140000
60.529600,0.025376,0.195200,1.064816,2.660000,0.280000,-0.840000
60.537687,-0.037576,0.214232,1.024800,0.980000,3.080000,-1.400000
60.545774,-0.103944,0.136640,0.901824,1.960000,2.940000,-0.980000
60.553862,0.006832,0.146888,0.989176,5.040000,-2.660000,0.140000
60.561949,0.003904,0.215208,1.077992,5.320000,-0.980000,-0.280000
60.570036,-0.008784,0.223992,1.031144,3.640000,2.240000,-1.400000
60.578123,-0.085888,0.161528,0.929152,2.940000,2.940000,-1.400000
60.586210,-0.059048,0.145912,0.923296,4.200000,0.140000,-0.280000
60.594297,0.016104,0.203984,1.040904,6.720000,-2.660000,0.140000
60.602384,0.010736,0.202032,1.050664,5.180000,0.140000,-1.120000
60.610471,-0.020008,0.191784,1.041880,3.500000,3.360000,-0.980000
60.618558,-0.123952,0.176168,0.943792,5.600000,2.800000,-1.260000
60.626645,-0.025376,0.146888,0.902312,6.580000,-1.120000,0.000000
60.634732,0.040016,0.223504,1.020896,7.560000,-2.380000,0.000000
60.642819,-0.013176,0.228384,1.057496,6.300000,0.000000,-0.420000
60.650906,-0.015616,0.216184,0.993568,4.480000,2.520000,-1.260000
60.658993,-0.107360,0.177144,0.927200,3.640000,2.240000,-1.120000
60.667080,-0.034160,0.163480,0.902312,3.500000,0.000000,-0.280000
60.675167,-0.005856,0.182024,1.012112,5.460000,-1.680000,-0.140000
60.683254,0.023912,0.219112,1.101416,6.300000,-0.980000,-0.560000
60.691341,-0.051728,0.235216,0.962336,4.480000,2.940000,-1.120000
60.699428,-0.078568,0.176168,0.966240,3.080000,2.240000,-1.120000
60.707515,-0.045872,0.156160,0.924760,4.060000,-0.420000,-0.420000
60.715602,0.020008,0.198616,0.978928,6.440000,-1.820000,-0.280000
60.723689,0.007320,0.261080,1.018944,4.620000,-0.280000,-0.560000
60.731776,-0.040504,0.199104,1.027728,1.540000,2.240000,-1.120000
60.739863,-0.074664,0.174704,0.961848,3.360000,1.820000,-0.980000
60.747950,-0.012200,0.212768,0.944280,3.360000,-1.260000,-0.140000
60.756037,0.011712,0.188368,0.943304,2.520000,-0.700000,-0.420000
60.764124,0.003904,0.227408,1.080432,2.800000,0.840000,-1.400000
60.772211,-0.097600,0.201056,1.043344,2.100000,2.660000,-0.840000
60.780298,-0.053192,0.147376,0.881816,2.940000,0.980000,-0.840000
60.788385,0.015616,0.215208,0.987712,3.920000,-0.700000,-0.560000
60.796472,-0.003904,0.197640,1.037976,4.480000,-0.700000,-0.280000
60.804559,-0.035136,0.238632,1.061888,4.200000,1.680000,-0.980000
60.812646,-0.054168,0.176656,0.927688,2.100000,2.520000,-1.120000
60.820733,-0.060024,0.179096,0.928176,2.940000,0.980000,-0.560000
60.828820,0.015616,0.217648,0.975512,4.480000,-2.240000,-0.280000
60.836907,-0.024888,0.194712,1.061888,4.060000,0.000000,-0.560000
60.844994,-0.011224,0.218624,1.024312,3.360000,2.380000,-1.540000
60.853081,-0.078568,0.175192,0.957456,4.060000,1.540000,-0.420000
60.861168,-0.028304,0.176168,0.929640,5.740000,-1.120000,-0.280000
60.869255,0.009760,0.268400,1.009672,6.020000,-1.260000,-0.560000
60.877342,-0.009760,0.206912,1.008208,3.360000,0.700000,-0.280000
60.885429,-0.042944,0.209840,1.033096,2.380000,1.820000,-1.680000
60.893516,-0.063440,0.165432,0.943792,3.500000,1.400000,-0.280000
60.901603,-0.033672,0.193248,0.901824,5.600000,-0.700000,-0.700000
60.909690,0.004392,0.233264,1.007232,5.040000,-1.260000,-0.420000
60.917777,0.007808,0.257664,1.052128,3.640000,0.000000,-0.700000
60.925864,-0.070272,0.204960,0.990152,0.980000,3.360000,-1.400000
60.933951,-0.020008,0.144448,0.905240,1.820000,1.680000,-0.700000
60.942038,-0.055632,0.226432,1.000400,5.740000,-1.540000,-0.560000
60.950126,0.014152,0.244488,0.954528,3.640000,-0.840000,-0.140000
60.958213,-0.009760,0.215208,1.089704,1.540000,1.260000,-1.400000
60.966300,-0.073688,0.167384,1.000400,2.800000,2.520000,-0.700000
60.974387,-0.027816,0.188856,0.885232,5.040000,0.140000,-0.980000
60.982474,-0.060024,0.236680,1.003816,5.180000,-0.840000,0.000000
60.990561,0.053680,0.219600,1.028216,3.780000,-0.980000,-0.560000
60.998648,-0.029768,0.233752,1.038464,2.240000,2.240000,-1.120000
61.006735,-0.081008,0.189344,0.915488,1.680000,2.800000,-0.700000
61.014822,-0.036600,0.186904,0.910120,2.800000,-0.280000,-1.260000
61.022909,-0.000488,0.231800,0.997472,3.780000,-1.680000,0.280000
61.030996,0.000000,0.214720,1.065792,3.220000,-0.140000,-0.980000
61.039083,-0.022936,0.226432,1.072136,2.520000,1.960000,-0.980000
61.047170,-0.063928,0.179584,0.889624,3.640000,1.960000,-0.980000
61.055257,-0.053680,0.215208,0.930616,3.780000,0.420000,-0.700000
61.063344,-0.022936,0.217648,0.947696,4.340000,-1.540000,0.140000
61.071431,0.042456,0.251808,1.024800,2.240000,-0.840000,-0.980000
61.079518,-0.023912,0.240096,1.037976,0.140000,2.380000,-0.700000
61.087605,-0.081008,0.185928,0.958432,-0.420000,2.940000,-1.820000
61.095692,-0.047336,0.186416,0.906216,0.420000,0.980000,-0.560000
61.103779,-0.024888,0.219112,0.988688,3.780000,-2.240000,-0.140000
61.111866,0.027328,0.241072,1.031632,1.260000,-0.420000,-0.560000
61.119953,0.000488,0.237656,1.070184,0.280000,2.380000,-1.260000
61.128040,-0.126392,0.171288,0.923296,0.700000,2.940000,-1.260000
61.136127,-0.019032,0.210328,0.848632,1.820000,-0.840000,-0.280000
61.144214,0.003904,0.254736,1.006256,0.840000,-1.960000,-0.700000
61.152301,0.023912,0.219112,1.108248,-0.840000,0.280000,-0.280000
61.160388,-0.057096,0.180560,0.998448,-0.280000,3.640000,-2.240000
61.168475,-0.092720,0.210816,0.889136,1.540000,1.540000,-0.420000
61.176562,-0.010248,0.199592,0.950624,2.100000,-1.680000,-0.560000
61.184649,0.033672,0.223016,1.073600,2.520000,-1.400000,-0.140000
61.192736,-0.015616,0.240584,1.068720,0.980000,2.240000,-1.400000
61.200823,-0.074176,0.198616,0.914512,-0.280000,4.340000,-1.680000
61.208910,-0.085888,0.191296,0.866200,1.540000,0.140000,-0.560000
61.216997,0.009760,0.228384,1.039928,1.400000,-2.660000,-0.280000
61.225084,0.046360,0.202032,1.087752,0.980000,-0.140000,-0.560000
61.233171,-0.052704,0.221552,1.011136,0.700000,3.500000,-1.680000
61.241258,-0.093696,0.180560,0.871568,2.100000,1.540000,-0.840000
61.249345,-0.030744,0.200568,0.966240,3.920000,-1.680000,-0.140000
61.257432,0.032208,0.256200,1.021384,2.800000,-1.260000,-0.140000
61.265519,-0.003416,0.226920,1.053104,1.540000,0.560000,-0.840000
61.273606,-0.079056,0.212768,1.023336,1.260000,3.780000,-1.400000
61.281693,-0.052216,0.187880,0.850584,1.820000,0.980000,-1.120000
61.289780,-0.028304,0.212280,0.938912,2.660000,-2.100000,0.000000
61.297867,0.039040,0.243024,1.021384,1.680000,-1.260000,-0.420000
61.305954,-0.004880,0.252784,1.073112,0.140000,1.120000,-1.120000
61.314041,-0.105408,0.184464,0.949648,-0.700000,3.780000,-1.400000
61.322128,-0.039528,0.193736,0.914512,0.840000,0.840000,-0.840000
61.330215,0.003416,0.198128,0.964288,2.380000,-2.800000,0.000000
61.338302,0.024888,0.254736,1.103368,0.700000,-0.140000,-0.980000
61.346390,-0.034648,0.225456,1.002352,-0.280000,3.640000,-1.260000
61.354477,-0.112240,0.185440,0.911584,0.140000,2.240000,-0.980000
61.362564,-0.001464,0.187880,0.921832,1.680000,-1.400000,-0.420000
61.370651,0.038552,0.252784,1.057008,2.660000,-2.240000,0.000000
61.378738,-0.030744,0.237656,1.056520,0.000000,2.380000,-1.400000
61.386825,-0.040992,0.194712,0.961360,-0.140000,2.240000,-1.400000
61.394912,-0.115168,0.210328,0.866688,0.840000,1.820000,-0.280000
61.402999,0.037576,0.194712,0.959896,0.560000,-2.660000,-0.420000
61.411086,0.013176,0.244000,1.135576,1.960000,-0.420000,-0.560000
61.419173,-0.039040,0.224968,1.035536,0.700000,3.360000,-1.400000
61.427260,-0.092720,0.174704,0.871568,0.700000,2.660000,-1.120000
61.435347,-0.035136,0.204472,0.909632,1.820000,-1.680000,-0.420000
61.443434,0.023912,0.238144,1.035536,1.960000,-1.540000,-0.420000
61.451521,0.012688,0.225456,1.071160,0.980000,0.140000,-0.700000
61.459608,-0.068320,0.220088,0.981856,-0.280000,4.060000,-1.680000
61.467695,-0.084912,0.183976,0.913048,0.420000,1.400000,-0.840000
61.475782,-0.000488,0.177144,0.923296,2.940000,-1.540000,-0.140000
61.483869,0.042944,0.269864,1.078480,2.100000,-1.680000,-0.560000
61.491956,-0.032696,0.222528,1.057008,1.400000,1.680000,-0.840000
61.500043,-0.055144,0.220088,0.952576,0.700000,2.940000,-1.820000
61.508130,-0.085888,0.212280,0.906704,0.280000,1.120000,-0.420000
61.516217,0.004880,0.183000,0.951600,2.380000,-2.240000,-0.420000
61.524304,0.031232,0.247416,1.031632,1.540000,-1.120000,-0.280000
61.532391,-0.025376,0.241560,1.055544,0.000000,2.240000,-1.400000
61.540478,-0.118584,0.206912,0.945744,-1.120000,4.060000,-1.540000
61.548565,-0.006344,0.161528,0.879376,0.140000,-0.280000,-0.560000
61.556652,-0.014152,0.243512,1.021384,1.820000,-1.680000,-0.280000
61.564739,0.037088,0.219112,1.065792,0.840000,-0.280000,-0.980000
61.572826,-0.076616,0.225456,1.004304,0.700000,3.500000,-1.120000
61.580913,-0.062464,0.173728,0.930128,0.700000,0.980000,-1.120000
61.589000,-0.029768,0.215208,0.934520,2.380000,-0.420000,0.000000
61.597087,0.024400,0.231312,1.057008,2.520000,-0.980000,-0.840000
61.605174,-0.028792,0.197152,1.034072,1.960000,1.120000,-0.700000
61.613261,-0.024888,0.215696,0.988688,1.960000,1.820000,-1.260000
61.621348,-0.107360,0.226920,0.908168,1.960000,1.400000,-0.700000
61.629435,0.013176,0.196176,0.956968,2.380000,-1.120000,-0.560000
61.637522,-0.004880,0.235704,0.992592,3.080000,-0.700000,-0.280000
61.645609,-0.003904,0.250832,1.011136,1.400000,0.000000,-1.260000
61.653696,-0.030256,0.227408,0.994544,-1.400000,2.520000,-0.840000
61.661783,-0.080032,0.173240,0.956480,0.140000,1.120000,-0.560000
61.669870,0.014640,0.207400,0.931104,2.100000,-1.680000,-0.840000
61.677957,-0.005368,0.249856,1.033584,1.260000,0.560000,-0.560000
61.686044,-0.039040,0.223992,1.079456,0.560000,1.820000,-1.260000
61.694131,-0.064904,0.161528,0.952088,1.400000,1.400000,-0.840000
61.702218,-0.031720,0.203984,0.927200,2.800000,1.260000,-0.560000
61.710305,0.002928,0.253760,1.014552,3.920000,-1.120000,-0.840000
61.718392,-0.059536,0.198128,0.995032,2.800000,0.000000,0.280000
61.726479,0.015128,0.227408,1.028216,1.540000,1.400000,-1.820000
61.734566,-0.055632,0.188856,0.980392,2.380000,1.680000,-0.840000
61.742653,-0.054168,0.195200,0.912560,3.920000,0.280000,0.000000
61.750740,-0.001464,0.262544,1.017480,5.040000,-1.260000,-1.120000
61.758827,-0.005856,0.220088,0.972584,2.660000,0.000000,0.420000
61.766914,-0.009272,0.246440,1.011624,0.840000,1.960000,-2.100000
61.775001,-0.051728,0.201544,0.968680,0.420000,1.820000,-0.280000
61.783089,-0.080520,0.186416,0.910608,3.360000,0.000000,-0.980000
61.791176,0.011224,0.250832,0.953064,2.100000,-1.680000,0.000000
61.799263,0.029768,0.227408,1.076528,0.700000,0.000000,-0.980000
61.807350,-0.064904,0.243512,1.056032,-0.140000,3.360000,-1.540000
61.815437,-0.069296,0.157624,0.871080,1.540000,1.680000,-0.560000
61.823524,-0.038064,0.227408,0.911096,2.240000,-0.420000,-0.840000
61.831611,0.022936,0.261080,1.040416,1.540000,-2.100000,-0.280000
61.839698,-0.012200,0.200568,1.051640,0.140000,0.840000,-0.700000
61.847785,-0.029768,0.220576,0.978928,-0.140000,2.940000,-1.680000
61.855872,-0.091256,0.205936,0.918904,1.260000,1.260000,-0.560000
61.863959,-0.036600,0.221064,0.923784,2.100000,-0.420000,-0.420000
61.872046,0.057096,0.231312,1.043344,0.560000,-1.960000,-0.700000
61.880133,-0.020008,0.228384,1.104832,0.000000,1.960000,-0.840000
61.888220,-0.084424,0.191784,0.949160,0.980000,3.080000,-1.680000
61.896307,-0.039040,0.217160,0.886696,2.520000,0.140000,-0.280000
61.904394,-0.042944,0.231312,0.948672,2.240000,-1.260000,-0.140000
61.912481,0.057096,0.216672,1.067256,1.400000,-0.840000,-0.840000
61.920568,-0.030744,0.248880,1.043344,0.280000,2.100000,-1.120000
61.928655,-0.098088,0.189344,0.903288,0.420000,2.800000,-1.400000
61.936742,-0.032208,0.215208,0.912072,1.400000,-0.980000,-0.420000
61.944829,0.025864,0.234728,1.012112,1.680000,-2.660000,-0.140000
61.952916,0.015128,0.247416,1.087752,0.140000,1.540000,-0.980000
61.961003,-0.079544,0.220088,0.977952,-0.560000,3.500000,-1.400000
61.969090,-0.088816,0.178608,0.875960,-0.420000,1.960000,-1.120000
61.977177,0.017080,0.203984,0.979416,2.240000,-2.380000,-0.420000
61.985264,0.018056,0.242048,1.084336,2.240000,-1.400000,-0.140000
61.993351,-0.002928,0.221064,1.052128,0.420000,2.660000,-1.820000
62.001438,-0.106384,0.194712,0.925736,2.100000,3.080000,-0.840000
62.009525,-0.063440,0.203496,0.903776,3.360000,-0.420000,-0.700000
62.017612,0.030744,0.225944,1.016992,4.060000,-2.240000,0.000000
62.025699,0.024888,0.222528,1.067744,3.220000,0.280000,-0.560000
62.033786,-0.039040,0.232776,1.059936,2.940000,1.960000,-1.540000
62.041873,-0.090280,0.203008,0.854000,3.500000,2.240000,-0.700000
62.049960,-0.025376,0.254736,0.922320,3.080000,-0.280000,-0.840000
62.058047,-0.009760,0.222040,0.952576,1.540000,-1.680000,0.000000
62.066134,0.035136,0.222528,1.103368,1.120000,-0.140000,-0.840000
62.074221,-0.051240,0.210816,1.044808,1.960000,3.080000,-1.120000
62.082308,-0.106384,0.206912,0.876936,2.380000,2.800000,-1.120000
62.090395,-0.006832,0.199104,0.942816,3.220000,-1.400000,-0.420000
62.098482,0.001464,0.239608,1.023336,4.760000,-2.100000,0.280000
62.106569,0.008296,0.249856,1.063352,2.800000,0.840000,-1.260000
62.114656,-0.030744,0.217648,0.977464,1.540000,2.940000,-0.980000
62.122743,-0.125904,0.211304,0.929152,2.940000,2.240000,-1.260000
62.130830,0.010248,0.208864,0.890112,3.500000,-1.260000,0.000000
62.138917,0.042456,0.224480,1.059448,3.500000,-1.680000,-0.280000
62.147004,-0.033184,0.238144,1.096048,3.780000,1.540000,-1.120000
62.155091,-0.045384,0.218136,0.938424,3.500000,2.520000,-1.260000
62.163178,-0.092720,0.217160,0.918904,2.660000,1.260000,-0.700000
62.171265,-0.001952,0.209840,0.939400,4.620000,-1.960000,-0.420000
62.179352,0.026352,0.244976,1.044320,3.640000,-0.980000,-0.140000
62.187439,-0.024400,0.231312,1.039440,3.220000,1.680000,-1.400000
62.195526,-0.075640,0.246928,0.963312,2.100000,2.940000,-0.840000
62.203613,-0.063440,0.193248,0.891576,2.660000,0.700000,-0.840000
62.211700,0.018056,0.236680,0.964776,3.640000,-1.820000,-0.280000
62.219787,0.008784,0.265960,1.008696,2.800000,-0.560000,-0.280000
62.227874,-0.038552,0.243512,1.032120,1.400000,0.980000,-1.400000
62.235961,-0.049288,0.217648,0.955016,0.560000,2.800000,-0.700000
62.244049,-0.035624,0.193248,0.910608,0.980000,0.000000,-0.980000
62.252136,-0.002440,0.229848,0.998448,2.660000,-0.840000,-0.140000
62.260223,0.014640,0.250832,1.081896,2.520000,-0.420000,-0.840000
62.268310,-0.087840,0.232776,0.976000,1.120000,3.500000,-1.260000
62.276397,-0.038064,0.196664,0.920856,1.400000,0.980000,-1.120000
62.284484,-0.030744,0.211792,0.961360,3.220000,-0.980000,-0.280000
62.292571,0.020008,0.235704,1.021384,4.060000,-1.260000,0.000000
62.300658,-0.017080,0.255224,1.035536,2.800000,1.540000,-1.820000
62.308745,-0.070760,0.232776,0.949160,1.820000,2.520000,-0.560000
62.316832,-0.061488,0.187880,0.909144,2.100000,0.280000,-0.700000
62.324919,0.032208,0.248880,0.966728,2.800000,-2.100000,-0.280000
62.333006,0.002440,0.278648,1.052128,2.380000,-0.140000,-0.840000
62.341093,-0.077104,0.236192,0.989664,-0.420000,3.080000,-1.260000
62.349180,-0.041968,0.177632,0.916464,0.280000,1.820000,-1.260000
62.357267,-0.013176,0.210328,0.985760,3.080000,-1.680000,0.000000
62.365354,-0.001952,0.254736,1.031632,2.800000,-0.700000,-0.700000
62.373441,-0.018056,0.266448,0.996984,0.560000,2.660000,-1.400000
62.381528,-0.098576,0.200568,0.946720,0.840000,2.800000,-0.560000
62.389615,0.004392,0.200080,0.910608,1.540000,-1.260000,-1.120000
62.397702,0.019520,0.269376,1.058960,3.640000,-0.980000,0.140000
62.405789,-0.030744,0.253272,1.015040,0.840000,1.680000,-1.260000
62.413876,-0.070272,0.213744,0.932568,-0.840000,2.800000,-1.820000
62.421963,-0.049288,0.196664,0.916464,1.120000,-0.560000,0.280000
62.430050,0.024400,0.239608,1.019432,2.100000,-1.680000,-1.260000
62.438137,0.008784,0.245952,1.065792,2.380000,0.420000,-0.280000
62.446224,-0.082960,0.229360,1.004304,1.680000,3.360000,-1.260000
62.454311,-0.060024,0.169824,0.912072,2.800000,0.700000,-0.840000
62.462398,0.014152,0.239120,0.945744,4.900000,-1.680000,0.000000
62.470485,0.000976,0.275232,1.009672,3.080000,-0.280000,-1.120000
62.478572,-0.031232,0.246440,1.068720,2.240000,1.260000,-0.560000
62.486659,-0.076128,0.206424,0.940376,1.120000,3.080000,-1.400000
62.494746,-0.030744,0.211792,0.942328,2.520000,0.280000,-0.560000
62.502833,-0.008784,0.211792,0.942328,4.480000,-1.540000,0.000000
62.510920,-0.006344,0.272304,1.013088,3.780000,-0.700000,-0.560000
62.519007,-0.015616,0.265472,1.042368,2.100000,1.820000,-1.400000
62.527094,-0.078080,0.205936,0.941352,1.260000,2.800000,-0.560000
62.535181,-0.031232,0.203008,0.925248,2.100000,0.560000,-0.980000
62.543268,-0.003904,0.230336,0.996008,3.920000,-1.540000,-0.560000
62.551355,0.000000,0.270352,1.000888,3.080000,-0.280000,0.000000
62.559442,-0.035624,0.266936,1.043832,0.980000,2.380000,-1.960000
62.567529,-0.061976,0.186904,0.930128,0.980000,1.820000,-0.700000
62.575616,-0.032208,0.219112,0.894504,2.520000,0.140000,-0.560000
62.583703,-0.001952,0.268888,1.001864,2.800000,-1.260000,-0.420000
62.591790,-0.007320,0.250832,1.044808,0.840000,0.280000,-0.840000
62.599877,-0.038552,0.216184,0.984296,-0.280000,3.080000,-1.400000
62.607964,-0.034160,0.207400,0.924272,2.100000,0.140000,-0.700000
62.616051,-0.060512,0.229360,0.963312,4.620000,-1.400000,-0.140000
62.624138,0.043432,0.254736,1.076040,2.940000,-0.280000,-0.700000
62.632225,-0.035624,0.252296,1.025776,2.800000,2.100000,-0.980000
62.640312,-0.083448,0.203496,0.915488,2.240000,2.380000,-1.400000
62.648399,-0.009760,0.214720,0.888648,3.920000,-0.700000,-0.140000
62.656486,-0.021960,0.270352,1.027728,4.200000,-2.240000,-0.140000
62.664573,0.015616,0.274256,1.041392,1.820000,1.120000,-0.980000
62.672660,-0.023912,0.232288,0.949648,0.140000,2.380000,-0.980000
62.680747,-0.108824,0.213256,0.940864,1.120000,2.520000,-1.400000
62.688834,-0.002928,0.239120,0.889624,2.660000,-2.100000,0.000000
62.696922,-0.000976,0.241072,1.030656,1.260000,-1.120000,-0.560000
62.705009,0.005856,0.251320,1.113128,0.700000,1.820000,-1.120000
62.713096,-0.066856,0.210328,0.933544,2.240000,1.960000,-0.980000
62.721183,-0.070272,0.223992,0.854000,2.100000,0.700000,-0.700000
62.729270,0.018056,0.280600,1.029680,2.660000,-2.240000,-0.420000
62.737357,-0.006344,0.231800,1.033096,0.420000,0.700000,-0.420000
62.745444,0.002440,0.215696,1.003816,0.000000,2.940000,-1.680000
62.753531,-0.100040,0.230336,0.935496,2.800000,1.400000,-0.840000
62.761618,-0.043432,0.240584,0.913048,3.640000,-1.120000,-0.140000
62.769705,0.042944,0.254736,1.030168,1.680000,-1.120000,-0.560000
62.777792,-0.027328,0.245952,1.081896,1.260000,1.960000,-0.840000
62.785879,-0.076128,0.212768,0.943792,1.960000,2.940000,-1.400000
62.793966,-0.038552,0.200568,0.843752,2.940000,0.140000,-0.420000
62.802053,0.012688,0.290848,1.012600,3.080000,-2.380000,-0.420000
62.810140,-0.000488,0.265472,1.077504,1.400000,0.840000,-0.560000
62.818227,-0.025376,0.208376,0.985272,-0.140000,2.100000,-1.540000
62.826314,-0.078080,0.220088,0.919880,3.080000,1.820000,-0.840000
62.834401,-0.049288,0.260592,0.923784,3.780000,-1.260000,-0.140000
62.842488,0.037088,0.252296,1.013576,1.260000,-1.260000,-0.420000
62.850575,-0.009760,0.251808,1.084336,0.840000,2.100000,-0.840000
62.858662,-0.072224,0.194712,0.947208,1.820000,2.940000,-1.680000
62.866749,-0.063440,0.223992,0.855952,3.220000,0.140000,-0.420000
62.874836,0.008296,0.267424,1.023824,3.920000,-2.800000,-0.140000
62.882923,0.040016,0.253760,1.059448,1.680000,0.420000,-0.700000
62.891010,-0.054168,0.255712,1.023824,1.400000,3.220000,-1.400000
62.899097,-0.101016,0.209840,0.905728,1.680000,2.660000,-1.120000
62.907184,-0.029280,0.207400,0.882792,3.920000,-1.400000,-0.280000
62.915271,0.033184,0.282552,1.035048,3.220000,-2.380000,0.140000
62.923358,0.008296,0.238144,1.062376,1.260000,0.980000,-1.260000
62.931445,-0.034160,0.249368,0.959896,1.680000,2.660000,-1.260000
62.939532,-0.112240,0.241560,0.888160,1.820000,1.820000,-0.700000
62.947619,0.008296,0.229360,0.905728,1.820000,-2.100000,-0.560000
62.955706,0.034648,0.280600,1.098488,1.120000,-1.120000,-0.280000
62.963793,-0.051240,0.239608,1.095072,0.840000,2.800000,-1.260000
62.971880,-0.085888,0.189832,0.878400,2.380000,3.500000,-1.260000
62.979967,-0.041480,0.209840,0.891576,4.200000,-1.260000,-0.140000
62.988054,0.051240,0.267424,1.042856,4.200000,-2.380000,-0.420000
62.996141,0.002440,0.287432,1.047736,3.220000,0.140000,-0.280000
63.004228,-0.088328,0.234240,0.967704,1.400000,4.480000,-1.960000
63.012315,-0.053192,0.243024,0.894992,1.400000,1.400000,-0.840000
63.020402,-0.033184,0.209840,0.913048,2.380000,-1.680000,-0.140000
63.028489,0.057584,0.271328,1.048224,2.520000,-1.540000,-0.560000
63.036576,-0.031720,0.269864,1.060424,1.960000,1.680000,-1.120000
63.044663,-0.109312,0.231312,0.904752,0.000000,3.780000,-1.120000
63.052750,-0.017080,0.217160,0.909632,1.260000,-0.700000,-0.700000
63.060837,0.016592,0.251808,1.002352,2.520000,-2.380000,-0.140000
63.068924,0.005368,0.260592,1.099952,2.240000,0.840000,-1.400000
63.077011,-0.081984,0.253272,0.953552,1.400000,3.500000,-0.840000
63.085098,-0.043920,0.220576,0.855464,0.140000,1.260000,-1.120000
63.093185,-0.003416,0.240584,0.976488,1.400000,-1.260000,0.000000
63.101272,0.005368,0.263520,1.057496,2.380000,-0.280000,-0.840000
63.109359,-0.060024,0.251808,1.040904,0.840000,2.940000,-1.400000
63.117446,-0.063928,0.178608,0.925736,2.660000,1.680000,-0.280000
63.125534,0.001952,0.257664,0.926224,4.200000,-1.820000,-0.700000
63.133621,-0.002440,0.285968,0.999424,3.500000,-0.840000,-0.140000
63.141708,-0.013664,0.243512,1.005768,1.400000,1.400000,-1.120000
63.149795,-0.045872,0.248392,0.966240,0.000000,2.520000,-1.120000
63.157882,-0.049288,0.253760,0.908656,0.840000,-0.140000,-0.700000
63.165969,-0.022936,0.237168,0.952088,1.120000,-0.840000,-0.700000
63.174056,0.018544,0.270840,1.059448,0.840000,-0.560000,-0.420000
63.182143,-0.080032,0.247416,1.033584,-0.560000,3.220000,-1.960000
63.190230,-0.017568,0.166896,0.924760,1.820000,0.840000,-0.140000
63.198317,-0.026352,0.254248,0.976000,5.180000,-1.540000,-0.560000
63.206404,0.008296,0.293288,0.956968,2.800000,0.140000,-0.560000
63.214491,-0.024400,0.277184,1.047736,0.140000,1.820000,-1.120000
63.222578,-0.086864,0.187392,0.924272,-0.280000,3.500000,-1.260000
63.230665,0.000976,0.226920,0.933544,2.800000,-2.100000,-0.280000
63.238752,-0.012688,0.263520,1.026752,3.780000,-0.980000,-0.560000
63.246839,-0.021472,0.261080,1.080432,2.660000,1.680000,-0.980000
63.254926,-0.064904,0.221552,0.924272,3.080000,2.100000,-0.700000
63.263013,-0.039040,0.221552,0.906704,4.200000,-0.560000,-0.420000
63.271100,0.041968,0.278648,1.005768,4.900000,-1.960000,-0.560000
63.279187,-0.050752,0.269376,1.025288,3.360000,1.120000,-0.420000
63.287274,-0.026840,0.259616,0.996496,1.540000,2.240000,-1.400000
63.295361,-0.052704,0.205936,0.905240,1.960000,1.400000,-0.700000
63.303448,-0.023424,0.235704,0.953552,4.620000,-0.980000,-0.280000
63.311535,0.017568,0.298656,0.989176,4.340000,-1.540000,-0.700000
63.319622,-0.039528,0.280600,1.023824,1.120000,1.400000,-0.700000
63.327709,-0.035136,0.234728,0.957456,0.560000,2.940000,-1.260000
63.335796,-0.062464,0.213744,0.912072,1.820000,0.000000,-0.700000
63.343883,0.022448,0.251320,0.967704,2.940000,-1.820000,-0.280000
63.351970,-0.020496,0.304024,1.081408,1.540000,0.980000,-1.400000
63.360057,-0.070760,0.229848,0.968192,0.140000,3.360000,-0.560000
63.368144,-0.032696,0.185928,0.926224,2.660000,0.560000,-0.980000
63.376231,-0.012200,0.273768,0.943304,5.320000,-1.960000,0.280000
63.384318,0.003416,0.312808,1.007232,2.520000,0.000000,-1.120000
63.392405,-0.035136,0.252296,1.026264,-0.980000,2.520000,-1.120000
63.400492,-0.048312,0.192760,0.944280,1.120000,1.680000,-0.840000
63.408579,-0.040992,0.258640,0.877912,2.380000,-0.140000,-0.840000
63.416666,0.022448,0.287920,0.986736,1.820000,-1.400000,-0.140000
63.424753,-0.034648,0.266936,1.078968,-0.700000,1.400000,-1.260000
63.432840,-0.039528,0.193248,0.940376,-0.280000,2.520000,-1.260000
63.440927,-0.036112,0.244976,0.908168,2.800000,-0.280000,-0.420000
63.449014,-0.009272,0.259128,1.061400,3.360000,-1.260000,-0.700000
63.457101,0.004392,0.291824,1.060424,2.660000,-0.280000,0.000000
63.465188,-0.059536,0.243024,0.896944,0.700000,3.080000,-1.680000
63.473275,-0.047824,0.231800,0.922320,0.980000,1.680000,-0.700000
63.481362,-0.029280,0.243512,0.963312,3.780000,-2.520000,-0.420000
63.489449,0.009760,0.291336,1.020408,1.400000,0.000000,-0.560000
63.497536,0.009272,0.261568,1.019920,-0.700000,2.380000,-1.120000
63.505623,-0.116632,0.215208,0.915000,0.560000,2.520000,-1.260000
63.513710,-0.001952,0.230824,0.889136,2.100000,-1.540000,-0.280000
63.521797,0.007320,0.289872,1.027240,1.960000,-1.540000,-0.280000
63.529884,-0.036112,0.280112,1.070672,-0.140000,1.820000,-1.260000
63.537971,-0.028792,0.216672,0.922808,-0.980000,3.080000,-1.120000
63.546058,-0.061000,0.205936,0.868152,1.960000,-0.280000,-0.700000
63.554145,0.008296,0.301584,1.065792,2.380000,-2.100000,-0.420000
63.562232,-0.017568,0.273768,1.066280,1.120000,1.400000,-0.420000
63.570320,-0.052704,0.218624,0.938424,0.420000,2.940000,-1.960000
63.578407,-0.053680,0.243024,0.869616,1.540000,0.420000,-0.560000
63.586494,0.016104,0.256688,0.958920,2.100000,-2.520000,-0.140000
63.594581,0.001464,0.289872,1.068720,0.000000,0.140000,-0.700000
63.602668,-0.018544,0.259128,0.991616,-1.260000,2.800000,-1.260000
63.610755,-0.105896,0.245464,0.916952,-0.140000,2.520000,-1.400000
63.618842,-0.017568,0.222528,0.876448,0.420000,-0.980000,-0.420000
63.626929,0.024400,0.273768,1.046760,0.280000,-1.680000,-0.280000
63.635016,-0.016104,0.279136,1.098000,-1.120000,1.400000,-1.400000
63.643103,-0.055144,0.212768,0.913048,-0.280000,2.940000,-1.120000
63.651190,-0.059048,0.232288,0.827160,0.560000,0.140000,-0.700000
63.659277,0.003904,0.310368,1.043832,0.420000,-2.520000,-0.280000
63.667364,0.001952,0.259616,1.062864,-0.840000,0.840000,-0.700000
63.675451,-0.026840,0.218624,0.941352,-2.800000,3.220000,-1.960000
63.683538,-0.080520,0.241560,0.896944,-0.840000,1.120000,-0.700000
63.691625,-0.018056,0.240584,0.994056,1.260000,-2.100000,-0.560000
63.699712,0.015128,0.267912,1.072624,-0.420000,0.280000,-0.840000
63.707799,-0.017568,0.228384,1.024800,-0.420000,2.940000,-1.400000
63.715886,-0.092720,0.220088,0.912560,1.680000,1.820000,-0.840000
63.723973,-0.024888,0.263520,0.930616,2.940000,-1.680000,-0.280000
63.732060,0.036112,0.281576,1.001864,2.380000,-0.840000,-0.280000
63.740147,-0.028792,0.265960,1.073112,0.000000,2.100000,-1.260000
63.748234,-0.052704,0.223992,0.936960,0.420000,2.240000,-1.400000
63.756321,-0.058072,0.220088,0.857904,1.820000,0.700000,-0.700000
63.764408,0.004880,0.289384,1.016992,2.240000,-1.960000,-0.420000
63.772495,-0.008784,0.250832,1.013576,0.140000,-0.280000,-0.280000
63.780582,-0.018544,0.261080,0.982832,-1.260000,3.220000,-1.820000
63.788669,-0.082472,0.236680,0.925736,-0.420000,1.820000,-0.980000
63.796756,-0.045872,0.207888,0.882792,1.120000,-1.540000,-0.140000
63.804843,0.055144,0.304024,1.070672,0.420000,-2.100000,-0.560000
63.812930,-0.020496,0.269376,1.056520,-0.840000,2.240000,-1.120000
63.821017,-0.085888,0.234240,0.912560,-1.820000,3.920000,-1.820000
63.829104,-0.047336,0.206424,0.871080,-0.700000,-0.560000,-0.280000
63.837191,0.016104,0.252296,1.054568,1.120000,-1.960000,-0.280000
63.845278,0.004392,0.293288,1.074576,0.140000,0.560000,-0.980000
63.853365,-0.063928,0.231800,0.937936,-0.280000,3.500000,-1.260000
63.861452,-0.065392,0.217160,0.858880,-0.840000,1.540000,-1.260000
63.869539,-0.012200,0.243512,1.005280,1.400000,-2.380000,-0.140000
63.877626,0.027328,0.266936,1.082872,1.540000,-0.980000,-0.280000
63.885713,-0.016592,0.263520,0.997960,0.140000,2.520000,-1.400000
63.893800,-0.073200,0.228384,0.920368,0.280000,2.660000,-1.120000
63.901887,-0.059048,0.243512,0.915000,1.960000,-0.280000,-0.700000
63.909974,0.037088,0.241072,0.985760,1.400000,-2.520000,-0.140000
63.918061,0.003904,0.299144,1.086288,1.820000,0.140000,-0.420000
63.926148,-0.053192,0.256200,0.979904,-0.980000,3.500000,-1.820000
63.934235,-0.069296,0.214232,0.877912,0.140000,2.100000,-1.120000
63.942322,-0.048312,0.241072,0.916952,1.120000,-0.980000,-0.280000
63.950409,0.054168,0.280600,1.062376,0.560000,-2.100000,-0.560000
63.958496,-0.008296,0.241560,1.019920,-1.120000,1.680000,-0.840000
63.966583,-0.080032,0.248392,0.979416,-1.120000,4.200000,-1.960000
63.974670,-0.081496,0.237656,0.852536,0.420000,0.280000,-0.280000
63.982757,0.025376,0.243512,0.960384,0.280000,-2.660000,-0.280000
63.990844,0.032208,0.288408,1.104344,-1.120000,0.700000,-0.840000
63.998931,-0.058560,0.233752,1.016504,-0.980000,2.800000,-1.540000
64.007018,-0.100040,0.206424,0.849608,0.140000,2.380000,-0.980000
64.015105,0.021472,0.255712,0.990152,2.100000,-2.380000,-0.140000
64.023192,0.001464,0.262544,1.041880,1.120000,-0.980000,-0.280000
64.031279,-0.013176,0.253272,1.014064,-0.840000,3.360000,-1.680000
64.039366,-0.075152,0.244000,0.896944,0.140000,2.100000,-0.980000
64.047453,-0.089792,0.241560,0.900848,0.140000,0.140000,-0.700000
64.055540,0.048800,0.246440,1.026752,0.980000,-2.520000,-0.280000
64.063627,0.006832,0.244000,1.089704,0.980000,-0.140000,-0.280000
64.071714,-0.052704,0.241560,0.968192,-0.560000,3.920000,-1.820000
64.079802,-0.070272,0.244976,0.871080,0.980000,0.840000,-0.700000
64.087889,-0.037576,0.229848,0.967704,2.240000,-1.540000,-0.280000
64.095976,0.057584,0.259616,1.082384,2.240000,-1.400000,-0.420000
64.104063,-0.006344,0.267912,1.029192,1.260000,1.680000,-0.980000
64.112150,-0.084424,0.229360,0.935496,0.420000,3.500000,-1.540000
64.120237,-0.063440,0.233264,0.913048,2.660000,0.280000,-0.420000
64.128324,-0.015128,0.249856,0.941352,2.660000,-2.100000,-0.280000
64.136411,0.033672,0.271328,1.060424,2.100000,-0.980000,-0.420000
64.144498,-0.020496,0.273280,1.022848,0.420000,2.660000,-1.260000
64.152585,-0.092232,0.212768,0.897920,-0.560000,2.940000,-1.400000
64.160672,-0.036112,0.233752,0.924760,1.680000,-0.140000,-0.700000
64.168759,-0.002440,0.251808,0.954528,1.260000,-1.120000,0.000000
64.176846,0.031720,0.282064,1.058960,0.420000,-0.980000,-0.840000
64.184933,-0.054656,0.274744,1.019432,-0.700000,3.220000,-1.820000
64.193020,-0.091256,0.203008,0.872544,-0.980000,2.660000,-0.840000
64.201107,-0.003904,0.228384,0.923784,0.560000,-1.680000,-0.840000
64.209194,0.023912,0.271328,1.060912,1.260000,-1.820000,0.280000
64.217281,-0.010736,0.254248,1.061888,0.560000,1.680000,-1.260000
64.225368,-0.092232,0.244000,0.935496,-0.140000,3.500000,-1.260000
64.233455,-0.045384,0.209352,0.913048,1.820000,-0.140000,-0.700000
64.241542,-0.000488,0.252784,0.955992,2.380000,-1.820000,-0.280000
64.249629,0.043432,0.265960,1.064328,1.400000,-0.840000,-0.700000
64.257716,-0.056608,0.269864,1.072136,0.980000,3.080000,-1.260000
64.265803,-0.076128,0.204472,0.853024,0.700000,3.080000,-1.120000
64.273890,-0.034160,0.247904,0.888160,1.120000,-0.420000,-0.700000
64.281977,-0.006344,0.287920,1.012600,2.100000,-2.940000,0.280000
64.290064,0.026352,0.262544,1.042856,-0.280000,0.840000,-1.260000
64.298151,-0.022936,0.234728,0.983320,-0.980000,3.360000,-1.400000
64.306238,-0.123464,0.244488,0.921344,0.280000,2.520000,-1.260000
64.314325,-0.003416,0.210328,0.917440,1.400000,-2.520000,0.140000
64.322412,0.056608,0.257664,1.061888,1.680000,-1.400000,-0.840000
64.330499,-0.051240,0.264008,1.079944,1.120000,2.660000,-0.980000
64.338586,-0.076128,0.225944,0.884256,0.700000,2.520000,-1.400000
64.346673,-0.055632,0.231312,0.925736,1.820000,-0.560000,-0.420000
64.354760,0.022936,0.266936,1.013088,2.800000,-0.980000,0.000000
64.362847,0.018544,0.245464,1.041392,1.960000,-0.700000,-0.840000
64.370934,-0.051728,0.253760,1.001864,1.960000,3.500000,-0.980000
64.379021,-0.070272,0.247416,0.930616,1.680000,1.960000,-1.400000
64.387108,-0.038064,0.202032,0.910120,2.660000,-0.700000,0.000000
64.395195,0.023424,0.287432,1.031144,3.640000,-1.540000,-0.700000
64.403282,-0.020496,0.273768,0.985760,1.960000,1.120000,-0.560000
64.411369,-0.018056,0.252296,0.950624,-0.560000,2.240000,-1.680000
64.419456,-0.074176,0.227408,0.972584,0.700000,1.540000,-0.700000
64.427543,-0.024888,0.230336,0.966240,3.360000,-2.100000,0.140000
64.435630,0.033672,0.283040,0.952088,2.380000,-0.700000,-1.120000
64.443717,-0.036600,0.272304,1.038952,0.420000,2.380000,-0.840000
64.451804,-0.082472,0.234240,0.982832,0.280000,2.520000,-1.680000
64.459891,-0.030256,0.206912,0.851072,0.980000,-0.560000,0.000000
64.467978,0.038064,0.263520,1.017968,2.240000,-1.820000,-0.700000
64.476065,-0.040992,0.294752,1.088728,0.560000,1.400000,-0.980000
64.484152,-0.060512,0.217648,0.934032,0.280000,2.800000,-1.260000
64.492239,-0.050264,0.221064,0.923296,0.700000,0.700000,-0.840000
64.500326,0.017568,0.243512,0.978928,2.800000,-1.680000,-0.280000
64.508413,0.019520,0.285968,1.019920,1.680000,0.000000,-0.840000
64.516500,-0.070272,0.269864,1.020896,0.560000,2.660000,-0.980000
64.524587,-0.050264,0.207400,0.913048,0.420000,1.540000,-0.980000
64.532674,-0.040992,0.239120,0.923784,2.520000,0.000000,-0.560000
64.540761,0.007320,0.274744,1.002840,2.940000,-1.540000,-0.280000
64.548848,0.004392,0.255712,0.993568,0.420000,0.700000,-1.260000
64.556935,-0.053680,0.269376,1.021384,0.000000,2.380000,-0.980000
64.565022,-0.080032,0.204472,0.906704,-0.140000,1.820000,-0.700000
64.573109,0.008784,0.237656,0.934520,1.960000,-2.240000,-0.420000
64.581196,0.013176,0.287432,1.051640,2.520000,-0.140000,-0.420000
64.589284,-0.049776,0.270352,0.980392,0.000000,1.680000,-1.540000
64.597371,-0.048800,0.223016,0.955504,-0.840000,2.380000,-0.980000
64.605458,-0.017568,0.225456,0.937936,1.400000,-1.400000,-0.140000
64.613545,-0.003416,0.264984,0.999424,1.960000,-0.840000,-0.840000
64.621632,0.000000,0.281088,1.062864,0.980000,1.540000,-0.980000
64.629719,-0.108824,0.225456,0.944768,0.420000,3.220000,-1.540000
64.637806,0.011712,0.214232,0.892064,1.120000,-0.700000,-0.420000
64.645893,-0.000976,0.273280,1.010160,2.100000,-0.700000,-0.280000
64.653980,-0.040504,0.264008,1.084824,1.820000,1.120000,-0.980000
64.662067,-0.050752,0.228872,0.956480,1.680000,2.520000,-1.120000
64.670154,-0.065392,0.235216,0.867664,2.100000,0.840000,-0.560000
64.678241,0.028304,0.257664,0.985760,2.240000,-1.680000,-0.560000
64.686328,-0.002928,0.265472,1.047736,2.380000,0.000000,-0.420000
64.694415,-0.056120,0.288896,0.978928,0.700000,2.800000,-1.400000
64.702502,-0.037576,0.219112,0.901336,-0.560000,1.260000,-1.260000
64.710589,-0.031232,0.233264,0.921832,1.400000,-0.280000,0.140000
64.718676,0.036112,0.280112,1.059448,1.540000,-1.680000,-1.120000
64.726763,-0.068808,0.241072,1.070672,1.400000,1.400000,-0.700000
64.734850,-0.047336,0.203984,0.935008,1.820000,2.660000,-0.980000
64.742937,-0.016592,0.253272,0.910608,3.640000,-1.260000,-0.700000
64.751024,-0.019032,0.284504,0.960872,3.500000,-0.560000,0.140000
64.759111,0.001952,0.282064,1.034072,0.980000,0.700000,-1.540000
64.767198,-0.062952,0.240584,0.976000,-0.140000,2.520000,-0.840000
64.775285,-0.040992,0.214232,0.932080,0.980000,1.120000,-0.980000
64.783372,-0.010248,0.236680,0.938424,2.520000,-1.260000,-0.280000
64.791459,0.019032,0.276208,1.019432,3.080000,-1.680000,-0.700000
64.799546,-0.051240,0.314272,1.053104,0.700000,2.520000,-1.120000
64.807633,-0.039040,0.199104,0.897920,-0.840000,2.380000,-0.980000
64.815720,-0.054656,0.236192,0.903776,1.120000,-0.280000,-0.420000
64.823807,0.037576,0.257176,1.036512,2.380000,-1.680000,-0.280000
64.831894,-0.034160,0.286456,1.051152,1.260000,1.260000,-1.400000
64.839981,-0.048312,0.211792,0.957944,0.140000,2.660000,-0.840000
64.848068,-0.032208,0.240584,0.915976,2.940000,-0.280000,-0.700000
64.856155,-0.008784,0.286456,0.996984,3.640000,-1.540000,-0.280000
64.864242,-0.032696,0.273280,1.008208,1.680000,0.980000,-0.980000
64.872329,-0.022448,0.229360,0.949648,-0.420000,2.520000,-1.120000
64.880416,-0.061488,0.215208,0.974536,0.840000,1.260000,-0.700000
64.888503,-0.007808,0.242536,0.972096,4.060000,-1.260000,-0.420000
64.896590,-0.000488,0.286456,1.034560,4.060000,-0.420000,-0.560000
64.904677,-0.055632,0.248880,1.004304,1.540000,2.660000,-0.980000
64.912764,-0.017568,0.231800,0.918904,2.520000,1.120000,-1.260000
64.920851,-0.059048,0.277184,0.898408,2.800000,-0.140000,-0.420000
64.928938,0.000488,0.254248,0.955016,2.520000,-1.400000,-0.560000
64.937025,-0.000976,0.293776,1.069696,1.400000,0.280000,-0.560000
64.945112,-0.042944,0.234728,0.965752,-0.700000,2.660000,-1.540000
64.953199,-0.057096,0.224968,0.915488,0.700000,2.100000,-0.840000
64.961286,-0.007320,0.237656,0.957456,3.220000,-1.960000,-0.420000
64.969373,-0.011712,0.278160,1.080432,2.800000,-0.560000,-0.280000
64.977460,0.001952,0.264984,0.997960,1.540000,2.240000,-1.400000
64.985547,-0.095648,0.247416,0.898896,1.400000,2.520000,-1.120000
64.993634,-0.039528,0.246440,0.887184,2.240000,-1.120000,-0.280000
65.001721,0.034648,0.267912,1.053104,1.260000,-1.820000,-0.700000
65.009808,-0.027328,0.258152,1.057496,0.280000,2.940000,-0.840000
65.017895,-0.076128,0.199592,0.946232,2.380000,1.260000,-1.400000
65.025982,-0.023912,0.251808,0.852048,4.200000,-1.820000,0.000000
65.034069,0.055632,0.332328,1.028216,1.820000,-1.120000,-0.560000
65.042156,-0.055632,0.283528,1.052616,-1.540000,2.240000,-0.980000
65.050243,-0.073688,0.188856,0.905728,-0.560000,3.780000,-1.400000
65.058330,-0.031232,0.205936,0.902312,3.360000,-0.840000,-0.280000
65.066417,0.035136,0.323056,1.045296,3.500000,-3.080000,-0.280000
65.074504,-0.045384,0.268888,1.076528,-0.140000,3.640000,-1.540000
65.082591,-0.065392,0.222040,0.907680,0.980000,2.380000,-0.700000
65.090679,-0.067832,0.203008,0.882792,3.220000,-0.840000,-0.560000
65.098766,0.083448,0.317200,1.033584,2.800000,-2.520000,-0.140000
65.106853,-0.030744,0.277184,1.040904,0.280000,2.240000,-1.260000
65.114940,-0.100528,0.233264,0.923784,1.120000,3.780000,-1.120000
65.123027,-0.007320,0.256200,0.880840,3.080000,-2.100000,-0.280000
65.131114,0.016104,0.286456,1.022360,-0.140000,-0.840000,-0.980000
65.139201,0.002440,0.279136,1.087752,-1.120000,2.380000,-1.400000
65.147288,-0.131760,0.194712,0.908168,1.120000,3.220000,-0.700000
65.155375,-0.015128,0.249368,0.935496,3.640000,-1.960000,-0.420000
65.163462,0.070760,0.290848,0.983320,1.820000,-1.960000,-0.140000
65.171549,-0.067832,0.275232,1.043344,-1.260000,3.780000,-1.820000
65.179636,-0.061488,0.230336,0.930128,0.420000,1.820000,-0.840000
65.187723,-0.050752,0.231312,0.903776,2.380000,-1.260000,-0.140000
65.195810,0.036600,0.269376,1.071648,1.260000,-1.120000,-0.840000
65.203897,-0.005856,0.259616,1.033096,0.840000,2.520000,-0.840000
65.211984,-0.120536,0.209352,0.895480,2.380000,2.940000,-1.400000
65.220071,-0.005368,0.272792,0.922320,4.340000,-2.380000,0.140000
65.228158,0.015128,0.291336,1.002840,2.520000,-1.120000,-0.560000
65.236245,0.006344,0.286944,1.037000,-0.840000,2.100000,-1.260000
65.244332,-0.080032,0.222040,0.971120,0.420000,2.660000,-1.540000
65.252419,-0.069296,0.227896,0.884744,2.520000,0.000000,-0.280000
65.260506,0.054168,0.283528,0.976976,2.380000,-2.520000,-0.420000
65.268593,-0.030256,0.295728,1.084336,-0.700000,1.400000,-0.560000
65.276680,-0.052216,0.230824,0.951600,-0.140000,3.360000,-1.680000
65.284767,-0.072712,0.226432,0.819352,1.400000,0.140000,-0.140000
65.292854,0.031232,0.247416,1.044808,2.380000,-2.380000,-0.560000
65.300941,-0.005368,0.307440,1.126792,1.120000,1.260000,-0.840000
65.309028,-0.074176,0.228384,0.910608,1.120000,2.800000,-1.120000
65.317115,-0.034648,0.255224,0.815936,1.260000,0.140000,-0.980000
65.325202,0.012200,0.288896,1.006256,1.540000,-1.960000,0.000000
65.333289,-0.016592,0.295728,1.110200,-0.700000,0.840000,-1.120000
65.341376,-0.053192,0.198616,0.922320,-0.840000,2.940000,-1.120000
65.349463,-0.034160,0.214232,0.894016,2.240000,0.280000,-0.840000
65.357550,0.008784,0.317688,1.031632,2.660000,-1.680000,-0.140000
65.365637,-0.001952,0.282552,1.044808,0.420000,1.120000,-1.120000
65.373724,-0.072224,0.229360,0.923784,-1.400000,3.640000,-1.540000
65.381811,-0.041480,0.225456,0.866200,0.420000,-0.420000,-0.280000
65.389898,-0.013664,0.287432,1.054568,1.820000,-1.540000,-0.700000
65.397985,-0.010248,0.259128,1.092144,0.560000,1.260000,-0.280000
65.406072,-0.051240,0.243024,0.911096,0.980000,1.960000,-1.680000
65.414159,-0.053192,0.239608,0.833992,0.840000,1.120000,-0.980000
65.422246,0.046848,0.278160,1.042856,1.540000,-2.520000,-0.140000
65.430333,-0.059048,0.290848,1.086776,-0.700000,1.820000,-1.260000
65.438420,-0.040016,0.188856,0.937936,0.700000,2.100000,-0.700000
65.446507,-0.017080,0.259128,0.873520,2.940000,0.000000,-0.980000
65.454594,-0.037088,0.282552,1.025776,2.660000,-0.840000,-0.280000
65.462681,0.009760,0.294752,1.091168,2.100000,-0.560000,-0.560000
65.470768,-0.038064,0.199592,0.863760,-0.280000,2.520000,-1.680000
65.478855,-0.023912,0.263032,0.922320,1.400000,0.840000,-0.560000
65.486942,-0.048312,0.295240,1.010648,2.660000,-1.540000,-0.140000
65.495029,-0.013664,0.267424,1.041880,0.560000,0.840000,-0.840000
65.503116,-0.016592,0.224968,0.926224,-1.120000,3.220000,-1.120000
65.511203,-0.062464,0.226920,0.941352,1.960000,0.280000,-0.980000
65.519290,-0.018056,0.279136,0.980392,3.220000,-1.400000,-0.140000
65.527377,0.010248,0.294752,1.016504,0.840000,0.420000,-0.560000
65.535464,-0.041480,0.261568,0.959408,-1.120000,2.660000,-1.540000
65.543551,-0.067344,0.221064,0.892064,0.140000,1.400000,-0.560000
65.551638,0.003904,0.254248,0.963312,1.820000,-2.240000,-0.420000
65.559725,-0.009760,0.278648,1.077992,0.840000,0.420000,-0.560000
65.567812,-0.026840,0.231312,1.045784,1.400000,2.800000,-1.400000
65.575899,-0.057584,0.252296,0.855952,2.800000,0.420000,-0.700000
65.583986,-0.033672,0.277184,0.926712,2.100000,-0.840000,-0.560000
65.592073,0.036600,0.276208,1.050664,0.420000,-0.280000,-0.420000
65.600161,-0.030744,0.260592,0.989176,-0.980000,2.660000,-1.680000
65.608248,-0.060024,0.255712,0.930616,0.280000,1.260000,-0.840000
65.616335,-0.042944,0.263032,0.885232,0.840000,-0.700000,-0.280000
65.624422,0.010736,0.279624,1.067256,-1.820000,-0.280000,-1.260000
65.632509,-0.015128,0.190320,1.007232,-0.840000,2.940000,-1.120000
65.640596,-0.059048,0.265472,0.930128,2.940000,-0.140000,-0.560000
65.648683,-0.044408,0.288896,0.971608,1.820000,-0.840000,-0.840000
65.656770,0.008784,0.264984,0.975512,-0.840000,0.000000,-0.280000
65.664857,-0.030256,0.232288,0.990152,-1.540000,2.800000,-1.680000
65.672944,-0.048312,0.236680,0.965752,2.100000,-0.280000,-0.280000
65.681031,0.006832,0.265472,1.010160,4.200000,-1.820000,-0.560000
65.689118,-0.021472,0.302072,0.979904,0.840000,1.680000,-0.980000
65.697205,-0.025376,0.236192,0.978440,-0.980000,1.960000,-1.120000
65.705292,-0.084912,0.232288,0.915976,0.560000,1.400000,-0.840000
65.713379,-0.001952,0.261568,0.914512,2.800000,-1.680000,-0.280000
65.721466,0.013664,0.302072,1.061400,0.140000,-0.840000,-0.980000
65.729553,-0.053192,0.248880,1.008208,-0.980000,3.360000,-0.840000
65.737640,-0.049288,0.207888,0.926712,0.000000,1.960000,-1.400000
65.745727,-0.042944,0.241072,0.915976,3.080000,-1.960000,0.420000
65.753814,0.058072,0.336720,1.047248,0.980000,-1.120000,-1.120000
65.761901,-0.061976,0.265472,1.018944,-1.820000,3.220000,-0.840000
65.769988,-0.068320,0.196176,0.885232,-0.280000,2.240000,-1.260000
65.778075,0.001952,0.240096,0.937936,2.240000,-1.400000,-0.420000
65.786162,0.021472,0.304512,1.060912,1.400000,-1.960000,-0.560000
65.794249,-0.090280,0.270352,1.053104,-0.420000,4.200000,-1.400000
65.802336,-0.025864,0.217160,0.890600,0.560000,1.260000,-0.700000
65.810423,-0.070272,0.225456,0.857904,1.120000,0.280000,-0.840000
65.818510,0.076616,0.307928,1.014552,0.980000,-3.080000,-0.140000
65.826597,-0.029280,0.296704,1.112152,-1.820000,2.100000,-1.540000
65.834684,-0.082960,0.204472,0.926712,-1.400000,3.360000,-1.120000
65.842771,-0.051240,0.213256,0.894016,2.660000,-0.420000,-0.420000
65.850858,0.032696,0.294264,1.024800,2.240000,-2.800000,0.140000
65.858945,0.018056,0.296704,1.042368,0.420000,1.960000,-1.820000
65.867032,-0.102968,0.247416,0.930128,-1.260000,3.920000,-0.840000
65.875119,-0.073688,0.210816,0.831064,0.000000,-0.140000,-0.700000
65.883206,0.058560,0.287920,1.043344,0.280000,-2.660000,-0.140000
65.891293,-0.014152,0.264984,1.129232,0.000000,1.820000,-1.120000
65.899380,-0.099064,0.210328,0.930128,0.700000,3.640000,-1.120000
65.907467,-0.021960,0.259616,0.818376,2.800000,-1.260000,-0.840000
65.915554,0.026840,0.288408,1.009184,-0.560000,-1.400000,-0.280000
65.923641,-0.015616,0.270352,1.108736,-0.840000,0.700000,-0.980000
65.931728,-0.077592,0.222040,0.932080,-1.260000,4.480000,-1.680000
65.939815,-0.051728,0.197152,0.896456,2.100000,0.140000,-0.280000
65.947902,0.028792,0.304024,1.017480,3.220000,-3.220000,-0.420000
65.955989,-0.000976,0.274744,1.069696,0.700000,1.120000,-0.420000
65.964076,-0.051240,0.259616,0.918904,0.000000,3.640000,-2.240000
65.972163,-0.098576,0.224968,0.860344,0.840000,0.980000,-0.420000
65.980250,0.018544,0.240584,1.012600,2.240000,-2.660000,0.000000
65.988337,0.039528,0.265472,1.147776,2.100000,-0.280000,-0.980000
65.996424,-0.061976,0.243512,0.970144,3.080000,3.780000,-0.840000
66.004511,-0.088816,0.286944,0.862296,2.520000,1.400000,-1.540000
66.012598,-0.023912,0.217648,0.882792,1.400000,-1.120000,0.140000
66.020685,0.054168,0.287432,1.059936,2.520000,-1.960000,-0.280000
66.028772,-0.028304,0.266936,1.067256,1.120000,2.240000,-1.540000
66.036859,-0.065392,0.243512,0.879376,0.420000,2.800000,-0.980000
66.044946,-0.056120,0.259128,0.919392,1.400000,0.560000,-1.120000
66.053033,-0.000976,0.280600,0.966728,0.840000,-2.100000,0.420000
66.061120,0.028304,0.259128,1.046272,-0.560000,-0.280000,-1.260000
66.069207,-0.073688,0.253272,0.997472,-1.120000,3.920000,-1.400000
66.077294,-0.059536,0.243024,0.892064,1.260000,0.420000,-0.700000
66.085381,-0.025376,0.235704,0.930128,1.120000,-1.540000,-0.140000
66.093468,0.092720,0.269376,1.087752,0.840000,-0.980000,-0.980000
66.101555,-0.095160,0.277184,1.040904,0.280000,3.360000,-1.120000
66.109642,-0.097600,0.223504,0.902312,1.820000,2.520000,-0.840000
66.117729,0.030256,0.261080,0.867664,1.820000,-2.660000,-0.140000
66.125816,0.008784,0.278160,1.047248,0.840000,-0.560000,-0.700000
66.133904,-0.024400,0.291336,1.051640,-0.560000,2.660000,-1.400000
66.141991,-0.099552,0.238144,0.860344,-0.840000,3.500000,-1.400000
66.150078,-0.035624,0.218624,0.907192,-1.260000,-0.980000,-0.420000
66.158165,0.037576,0.272792,1.033096,0.420000,-2.240000,-0.140000
66.166252,-0.017568,0.281576,1.098000,-0.140000,1.400000,-1.400000
66.174339,-0.069784,0.209840,0.925248,-0.700000,4.060000,-1.400000
66.182426,-0.034648,0.239120,0.896944,2.800000,-1.960000,0.000000
66.190513,0.017080,0.301584,1.007232,1.400000,-1.400000,-0.700000
66.198600,0.002928,0.262056,1.033584,0.420000,0.700000,-0.700000
66.206687,-0.065880,0.245952,0.967216,-1.120000,3.780000,-1.680000
66.214774,-0.074664,0.238144,0.909632,0.420000,0.420000,-0.840000
66.222861,0.008296,0.241072,0.940864,1.820000,-2.100000,0.140000
66.230948,0.017080,0.289872,1.044320,0.000000,-0.280000,-0.840000
66.239035,-0.041968,0.265960,1.037488,-0.980000,2.520000,-1.260000
66.247122,-0.096136,0.229848,0.902800,-0.140000,2.940000,-1.260000
66.255209,-0.009272,0.218624,0.880840,1.260000,-1.400000,-0.560000
66.263296,0.041480,0.304024,1.065792,1.260000,-2.380000,-0.140000
66.271383,-0.035136,0.257664,1.074576,0.140000,2.800000,-1.120000
66.279470,-0.055144,0.244000,0.891088,0.560000,2.380000,-1.400000
66.287557,-0.072712,0.230824,0.916464,1.400000,0.420000,-0.560000
66.295644,0.035136,0.260104,1.016504,2.380000,-2.240000,-0.280000
66.303731,0.014152,0.272792,1.052616,1.820000,-0.140000,-0.700000
66.311818,-0.063928,0.245952,0.983320,0.000000,4.060000,-1.400000
66.319905,-0.079056,0.250832,0.910608,1.540000,1.680000,-0.980000
66.327992,-0.042944,0.212280,0.895480,2.800000,-1.400000,-0.280000
66.336079,0.070760,0.303048,1.058960,2.520000,-1.960000,-0.280000
66.344166,-0.019520,0.277672,1.048712,0.700000,1.400000,-1.120000
66.352253,-0.100040,0.234728,0.906704,-0.140000,3.920000,-1.400000
66.360340,-0.035624,0.253272,0.876448,0.000000,-0.140000,-0.980000
66.368427,-0.007320,0.247416,0.968192,0.700000,-1.820000,0.280000
66.376514,0.039040,0.290360,1.091656,0.280000,-0.700000,-0.980000
66.384601,-0.043432,0.260592,0.956480,-1.400000,3.500000,-1.680000
66.392688,-0.105896,0.247416,0.886696,-1.820000,2.380000,-0.840000
66.400775,-0.001952,0.213744,0.926224,-0.980000,-2.240000,-0.140000
66.408862,0.057096,0.277184,1.106296,0.700000,-1.540000,-0.700000
66.416949,-0.058560,0.275720,1.046272,-0.140000,4.060000,-1.540000
66.425036,-0.099064,0.232776,0.914024,1.120000,1.680000,-0.980000
66.433123,-0.007808,0.246440,0.845216,0.840000,-0.980000,-0.280000
66.441210,0.033672,0.275232,1.016016,-0.700000,-1.540000,-0.560000
66.449297,-0.013176,0.281088,1.094096,-0.280000,1.120000,-0.840000
66.457384,-0.087840,0.231800,0.929640,-1.540000,3.360000,-1.680000
66.465471,-0.043432,0.227896,0.889136,-0.280000,0.420000,-0.840000
66.473558,0.012688,0.255224,0.995032,0.700000,-1.680000,-0.140000
66.481645,0.007808,0.284992,1.015040,-0.560000,-0.420000,-0.980000
66.489732,-0.053680,0.279136,1.006744,-2.520000,3.220000,-1.540000
66.497819,-0.068320,0.197640,0.911584,-2.100000,2.660000,-1.260000
66.505906,-0.014152,0.220088,0.970144,1.260000,-2.100000,0.000000
66.513993,0.038552,0.290848,1.064816,1.960000,-1.680000,-0.980000
66.522080,-0.050752,0.297680,1.000888,0.280000,2.940000,-0.560000
66.530167,-0.076128,0.211304,0.907680,-1.260000,2.660000,-1.820000
66.538254,-0.035136,0.201544,0.943792,0.980000,-1.260000,0.000000
66.546341,0.027328,0.257664,1.008208,3.220000,-1.680000,0.000000
66.554428,-0.004880,0.310368,1.045296,1.400000,1.120000,-1.680000
66.562515,-0.071736,0.238144,0.955992,-0.420000,3.220000,-0.980000
66.570602,-0.055144,0.221552,0.887184,0.140000,1.120000,-0.980000
66.578689,0.005856,0.253272,0.990152,1.680000,-2.520000,-0.140000
66.586776,0.004880,0.264496,1.027728,1.540000,0.140000,-0.700000
66.594863,-0.039040,0.267912,1.019920,1.260000,2.520000,-1.400000
66.602950,-0.073688,0.211304,0.919392,0.000000,1.540000,-0.980000
66.611037,-0.024888,0.246928,0.969656,2.240000,-0.280000,-0.560000
66.619124,0.020008,0.280112,0.971120,3.080000,-1.680000,-0.140000
66.627211,-0.004392,0.264984,1.021384,1.820000,0.280000,-0.980000
66.635298,-0.045872,0.281576,1.006744,0.280000,3.220000,-1.400000
66.643385,-0.074664,0.212768,0.883768,0.420000,1.540000,-0.840000
66.651472,-0.014152,0.218136,0.944768,1.680000,-1.260000,-0.420000
66.659559,0.034160,0.294752,1.034560,2.800000,-1.540000,-0.280000
66.667646,-0.049776,0.281088,1.007720,0.420000,2.380000,-1.400000
66.675733,-0.072224,0.223016,0.936472,-1.120000,2.940000,-1.260000
66.683820,-0.015128,0.244488,0.936472,1.400000,-0.980000,-0.280000
66.691908,-0.031232,0.256200,0.987712,2.240000,-0.700000,-0.420000
66.699995,0.033672,0.254736,1.017968,0.280000,0.420000,-1.400000
66.708082,-0.079056,0.266448,0.996496,-0.560000,3.080000,-0.980000
66.716169,-0.055632,0.215696,0.890112,0.840000,0.420000,-0.840000
66.724256,0.016592,0.253760,0.957456,1.120000,-1.260000,-0.420000
66.732343,0.009760,0.279624,1.071160,1.120000,-0.280000,-0.700000
66.740430,-0.067832,0.290360,1.001864,1.400000,1.960000,-1.120000
66.748517,-0.047824,0.216672,0.880840,-1.400000,1.960000,-0.980000
66.756604,-0.020008,0.233752,0.931104,0.280000,-0.280000,-0.280000
66.764691,-0.002440,0.272792,0.997960,1.680000,-2.380000,-0.280000
66.772778,-0.002928,0.282552,1.019920,0.000000,1.120000,-1.260000
66.780865,-0.049776,0.247416,0.977952,-1.960000,3.640000,-1.400000
66.788952,-0.090280,0.210328,0.940864,-0.140000,0.560000,-0.560000
66.797039,0.042456,0.221552,0.977952,2.380000,-1.540000,-0.560000
66.805126,0.004880,0.310856,1.020408,2.660000,-0.140000,-0.560000
66.813213,-0.070272,0.262544,1.016992,0.000000,2.520000,-1.260000
66.821300,-0.029280,0.231800,0.939400,0.700000,1.540000,-0.840000
66.829387,-0.052216,0.231312,0.877912,0.560000,0.560000,-0.560000
66.837474,0.000000,0.255712,0.996008,1.540000,-1.680000,-0.700000
66.845561,-0.016104,0.292800,1.059936,0.980000,0.420000,-0.420000
66.853648,-0.030256,0.216672,0.979904,-0.840000,2.380000,-1.400000
66.861735,-0.036112,0.247904,0.926224,0.420000,0.840000,-0.980000
66.869822,-0.042944,0.243512,0.955504,1.820000,-0.700000,-0.280000
66.877909,0.008296,0.287432,0.963312,1.260000,-0.140000,-0.560000
66.885996,-0.009760,0.262056,1.019920,-0.700000,0.560000,-1.120000
66.894083,-0.065880,0.248880,0.997960,-1.540000,3.640000,-1.260000
66.902170,-0.036600,0.211304,0.894992,0.420000,0.000000,-0.980000
66.910257,0.007808,0.264496,0.963800,1.120000,-1.820000,-0.280000
66.918344,-0.033672,0.293776,1.085800,0.560000,0.980000,-0.840000
66.926431,-0.012200,0.223016,0.969656,-1.120000,1.400000,-0.980000
66.934518,-0.062952,0.208376,0.906704,0.000000,2.520000,-1.400000
66.942605,-0.019032,0.281576,1.005280,3.080000,-1.400000,-0.140000
66.950692,-0.017080,0.263032,0.964776,1.680000,-0.700000,-0.700000
66.958779,0.005856,0.231800,1.042368,0.280000,1.260000,-0.980000
66.966866,-0.043920,0.269376,0.982832,0.840000,1.820000,-0.980000
66.974953,-0.080520,0.239608,0.909632,1.260000,1.820000,-0.840000
66.983040,-0.000488,0.252784,0.910608,2.520000,-0.980000,-0.420000
66.991127,-0.007808,0.290848,1.016504,0.840000,-0.840000,-0.560000
66.999214,-0.028304,0.255712,1.068232,-1.260000,1.680000,-0.840000
67.007301,-0.043432,0.197640,0.927200,0.140000,2.240000,-1.400000
67.015388,-0.040016,0.237656,0.860832,1.680000,0.700000,-0.560000
67.023475,-0.003904,0.305976,1.043832,1.120000,-1.960000,-0.700000
67.031562,-0.018544,0.259128,1.042856,-0.840000,0.840000,-0.420000
67.039649,0.007808,0.196664,0.962824,-1.120000,2.240000,-1.680000
67.047736,-0.108824,0.260592,0.954528,1.400000,2.100000,-1.120000
67.055823,-0.010248,0.241560,0.917928,3.220000,-2.380000,0.280000
67.063910,0.024888,0.295728,1.034560,1.120000,-0.980000,-1.120000
67.071997,-0.015128,0.272792,1.049688,-0.700000,2.520000,-0.700000
67.080084,-0.060512,0.217160,0.932568,-0.560000,2.520000,-1.540000
67.088171,-0.054168,0.214720,0.873032,1.260000,0.280000,-0.420000
67.096258,0.031232,0.293776,1.028704,2.380000,-2.100000,-0.420000
67.104345,-0.045872,0.263520,1.037488,0.140000,0.980000,-0.560000
67.112432,-0.003416,0.217160,0.985760,-0.280000,2.380000,-1.540000
67.120519,-0.095648,0.259616,0.938912,1.680000,1.680000,-0.980000
67.128606,-0.025376,0.233752,0.869128,1.960000,-1.680000,-0.280000
67.136693,0.045384,0.276208,1.036512,1.120000,-0.980000,-0.700000
67.144780,-0.021960,0.276208,1.105320,0.280000,0.980000,-0.840000
67.152867,-0.074176,0.216672,0.904264,0.280000,3.080000,-1.400000
67.160954,-0.044896,0.232288,0.886208,1.260000,0.700000,-0.840000
67.169041,-0.028304,0.263032,1.003816,2.520000,-1.820000,-0.280000
67.177128,0.042456,0.272304,1.004304,1.680000,-0.700000,-0.420000
67.185215,-0.016104,0.274744,1.033096,-1.400000,2.800000,-1.400000
67.193302,-0.105408,0.230336,0.934520,-0.980000,3.360000,-1.400000
67.201389,-0.040016,0.221064,0.832040,1.120000,-1.260000,-0.280000
67.209476,0.024888,0.278648,1.034072,0.420000,-1.680000,-0.280000
67.217563,0.006344,0.278160,1.109712,-0.420000,0.140000,-1.120000
67.225650,-0.074176,0.227896,0.946232,-1.120000,4.200000,-1.540000
67.233737,-0.057584,0.212768,0.812032,0.140000,1.260000,-0.560000
67.241824,-0.010736,0.267424,1.000400,1.400000,-2.940000,-0.560000
67.249911,0.020496,0.277184,1.112640,0.280000,-0.840000,-0.140000
67.257998,-0.021472,0.243512,1.021384,-0.140000,3.360000,-1.680000
67.266085,-0.081496,0.223504,0.896456,1.260000,1.960000,-0.840000
67.274173,-0.041480,0.250832,0.896944,2.380000,-1.400000,-0.560000
67.282260,0.029768,0.271816,0.997960,1.400000,-1.120000,0.000000
67.290347,0.003904,0.276208,1.069696,-0.840000,1.400000,-1.400000
67.298434,-0.077104,0.208864,1.000400,0.280000,3.220000,-1.260000
67.306521,-0.069296,0.237168,0.855952,1.960000,0.420000,-0.700000
67.314608,-0.000976,0.250832,0.953552,1.540000,-1.960000,-0.420000
67.322695,0.040992,0.283528,1.075064,1.400000,-1.400000,-0.140000
67.330782,-0.049776,0.252296,1.023824,-0.280000,3.220000,-1.540000
67.338869,-0.064416,0.228872,0.893040,-0.700000,2.100000,-1.120000
67.346956,-0.042456,0.251808,0.907680,0.840000,-0.840000,-0.700000
67.355043,0.016592,0.259128,1.000888,-0.140000,-0.560000,-0.140000
67.363130,0.004880,0.259616,1.085800,0.000000,0.280000,-1.260000
67.371217,-0.092720,0.227408,0.958920,0.280000,3.780000,-1.400000
67.379304,-0.040504,0.236680,0.926712,2.240000,0.140000,-0.840000
67.387391,-0.010736,0.239608,0.943304,1.960000,-1.120000,0.280000
67.395478,0.050264,0.271328,1.049688,2.100000,-1.260000,-0.980000
67.403565,-0.069296,0.304512,1.020408,0.420000,3.220000,-1.400000
67.411652,-0.086864,0.196664,0.882792,-1.400000,2.800000,-0.980000
67.419739,-0.019032,0.229360,0.885720,0.840000,-1.120000,-0.420000
67.427826,0.050264,0.264984,1.070184,1.680000,-2.100000,-0.280000
67.435913,-0.033184,0.291336,1.055544,0.840000,1.680000,-1.400000
67.444000,-0.072712,0.223992,0.939888,-0.560000,3.500000,-0.980000
67.452087,-0.039040,0.224968,0.930128,1.260000,0.560000,-1.120000
67.460174,-0.020008,0.244976,0.965264,2.520000,-1.540000,0.280000
67.468261,0.038552,0.272792,1.031632,1.960000,-0.980000,-0.980000
67.476348,-0.037576,0.261568,1.046272,1.400000,2.520000,-1.120000
67.484435,-0.055632,0.229848,0.912560,0.840000,2.240000,-1.400000
67.492522,-0.061488,0.256688,0.944768,1.680000,0.420000,-0.560000
67.500609,-0.005368,0.240096,0.937936,2.660000,-1.260000,0.140000
67.508696,0.020496,0.298656,0.997472,0.420000,-0.560000,-1.120000
67.516783,-0.055632,0.256688,0.985760,-1.400000,2.660000,-0.840000
67.524870,-0.061488,0.229360,0.921832,-1.540000,1.820000,-1.400000
67.532957,-0.005368,0.229848,0.957944,-0.420000,-1.400000,-0.420000
67.541044,0.019520,0.247904,1.040904,1.120000,-1.120000,-0.420000
67.549131,-0.044408,0.264496,1.079944,0.560000,2.380000,-1.540000
67.557218,-0.057584,0.217160,0.904752,0.980000,2.380000,-0.700000
67.565305,-0.051240,0.265472,0.944280,1.960000,-0.700000,-0.840000
67.573392,0.019520,0.249368,0.939888,1.120000,-0.700000,0.000000
67.581479,-0.008784,0.262056,1.054080,1.540000,0.000000,-1.260000
67.589566,-0.060512,0.268400,1.018456,-0.280000,2.520000,-1.400000
67.597653,-0.053192,0.216184,0.894992,0.280000,1.960000,-0.420000
67.605740,-0.009760,0.217648,0.921832,0.280000,-0.560000,-0.980000
67.613827,-0.004392,0.263032,1.072624,2.660000,-1.120000,-0.560000
67.621914,-0.027328,0.292800,1.027240,2.380000,1.680000,-0.980000
67.630001,-0.034648,0.203984,0.897432,-0.560000,2.240000,-1.540000
67.638088,-0.055144,0.253760,1.012112,2.240000,0.140000,-0.280000
67.646175,-0.013664,0.262544,0.918416,3.640000,-1.540000,-0.140000
67.654262,0.022936,0.261568,0.979904,1.400000,0.280000,-0.980000
67.662349,-0.040992,0.264984,1.073112,0.700000,2.100000,-1.120000
67.670436,-0.098088,0.207888,0.967216,2.100000,2.520000,-0.700000
67.678523,0.014152,0.220088,0.878888,4.620000,-1.540000,-0.280000
67.686610,0.000488,0.275232,1.020408,4.200000,-1.260000,-0.700000
67.694697,-0.012200,0.273280,1.011136,2.240000,1.540000,-0.700000
67.702784,-0.044408,0.257664,0.981368,1.120000,1.400000,-1.260000
67.710871,-0.068320,0.231312,0.952576,1.960000,1.680000,-0.420000
67.718958,0.000488,0.255712,0.932080,3.920000,-0.980000,-0.980000
67.727045,-0.028792,0.272304,0.972096,2.520000,-0.560000,0.000000
67.735132,0.010248,0.253272,0.997960,0.000000,1.540000,-1.680000
67.743219,-0.069784,0.251808,1.000400,0.980000,1.820000,-0.420000
67.751306,-0.039528,0.227896,0.880840,2.240000,-0.700000,-0.560000
67.759393,0.024888,0.273768,0.966240,2.100000,-0.560000,-0.560000
67.767480,-0.025376,0.281088,1.077504,0.420000,0.560000,-1.120000
67.775567,-0.074176,0.220576,1.011136,-0.140000,3.780000,-1.120000
67.783654,-0.029280,0.200080,0.930128,4.340000,-0.840000,0.000000
67.791741,-0.016104,0.264008,0.945744,5.740000,-1.120000,-0.560000
67.799828,0.019032,0.302560,1.010648,2.520000,0.140000,-0.980000
67.807915,-0.057584,0.263520,1.040416,0.140000,2.520000,-0.980000
67.816003,-0.068808,0.201056,0.921344,2.800000,1.680000,-0.980000
67.824090,0.016592,0.250344,0.876936,4.620000,-1.540000,-0.280000
67.832177,-0.021960,0.303536,1.042368,2.520000,-0.980000,-0.420000
67.840264,-0.015616,0.285480,1.028704,0.840000,1.540000,-0.980000
67.848351,-0.030744,0.200080,0.927688,0.420000,2.660000,-0.980000
67.856438,-0.066856,0.249856,0.933056,2.800000,0.140000,-0.980000
67.864525,-0.019520,0.287432,0.969656,3.500000,-1.680000,0.140000
67.872612,0.017568,0.251320,1.013576,0.700000,0.700000,-1.400000
67.880699,-0.043432,0.262056,1.003328,-0.140000,2.940000,-0.700000
67.888786,-0.071736,0.214232,0.927200,1.960000,0.560000,-1.260000
67.896873,-0.006832,0.264984,0.933544,3.080000,-1.120000,0.000000
67.904960,0.027328,0.275720,1.057984,1.680000,-0.140000,-0.840000
67.913047,-0.045872,0.264496,1.006744,0.420000,2.520000,-1.260000
67.921134,-0.068808,0.245952,0.918904,2.660000,1.400000,-0.700000
67.929221,-0.027816,0.248392,0.881816,2.240000,-0.980000,-0.700000
67.937308,0.017080,0.275232,1.021872,1.260000,-0.700000,-0.140000
67.945395,-0.023912,0.259128,1.108248,-0.140000,2.520000,-1.400000
67.953482,-0.069296,0.186904,0.950624,3.080000,1.820000,-0.840000
67.961569,-0.037576,0.278648,0.841312,5.320000,-1.260000,-0.140000
67.969656,0.050752,0.304512,0.968192,2.240000,-1.400000,-0.980000
67.977743,-0.025376,0.277184,1.120936,0.700000,0.420000,-0.560000
67.985830,-0.081008,0.222528,0.928176,0.840000,3.360000,-1.540000
67.993917,-0.025376,0.221064,0.821792,2.100000,0.700000,-0.700000
68.002004,-0.001952,0.304024,1.009672,2.380000,-1.820000,-0.280000
68.010091,-0.012688,0.274256,1.139968,-0.280000,0.560000,-0.980000
68.018178,-0.080520,0.210816,0.964288,2.100000,3.220000,-0.840000
68.026265,-0.030744,0.254248,0.803248,3.360000,0.420000,-1.260000
68.034352,0.010248,0.292312,0.974048,1.120000,-2.100000,-0.140000
68.042439,-0.009760,0.282552,1.120448,-0.140000,0.560000,-0.700000
68.050526,-0.060024,0.235216,0.989664,-0.140000,2.800000,-1.680000
68.058613,-0.061488,0.185440,0.821304,2.800000,1.400000,-0.140000
68.066700,0.048800,0.309392,1.022360,3.360000,-2.240000,-0.840000
68.074787,-0.025376,0.272792,1.097024,1.400000,0.840000,-0.980000
68.082874,-0.055632,0.239120,0.976488,1.680000,3.360000,-1.120000
68.090961,-0.072712,0.214720,0.869616,4.060000,0.560000,-0.700000
68.099048,0.032696,0.303048,0.940864,3.920000,-3.220000,0.280000
68.107135,0.016104,0.306464,1.049200,1.120000,0.560000,-0.980000
68.115222,-0.077104,0.248880,0.997472,-0.280000,3.640000,-1.260000
68.123309,-0.065880,0.216184,0.848632,1.540000,1.120000,-1.260000
68.131396,0.007320,0.250344,0.961848,2.240000,-2.380000,0.140000
68.139483,0.033672,0.297192,1.113128,1.680000,-0.140000,-0.700000
68.147570,-0.085888,0.234240,1.017968,1.260000,3.920000,-1.400000
68.155657,-0.067832,0.239608,0.834480,2.800000,0.840000,-0.560000
68.163744,-0.002928,0.273768,0.923784,2.240000,-2.100000,-0.420000
68.171831,0.024888,0.301096,1.068720,1.120000,-0.140000,-0.140000
68.179918,-0.030744,0.273768,1.013576,-0.700000,2.380000,-1.960000
68.188005,-0.093208,0.214720,0.869128,-0.560000,3.220000,-0.980000
68.196092,0.016592,0.253272,0.966728,1.680000,-1.960000,-0.420000
68.204179,-0.021960,0.271328,1.070184,1.820000,-1.540000,0.280000
68.212266,0.001952,0.287920,0.987712,0.980000,2.520000,-1.960000
68.220353,-0.103944,0.266936,0.837896,-0.980000,3.640000,-1.260000
68.228440,-0.023424,0.207888,0.930128,0.140000,-2.240000,-0.140000
68.236527,0.064416,0.305488,1.109224,0.280000,-1.960000,-0.700000
68.244614,-0.055144,0.237168,1.052616,0.560000,3.360000,-0.700000
68.252701,-0.083448,0.262056,0.838872,0.980000,2.380000,-1.680000
68.260788,-0.028792,0.242536,0.913048,1.120000,-1.820000,0.140000
68.268875,0.062952,0.278160,1.059936,1.260000,-2.520000,-0.280000
68.276962,-0.042456,0.299144,1.036512,-0.700000,3.220000,-1.960000
68.285049,-0.088328,0.214720,0.893528,-1.260000,3.360000,-0.700000
68.293136,-0.026352,0.234240,0.953064,0.560000,-0.840000,-1.120000
68.301223,0.022936,0.273280,1.039440,2.800000,-2.240000,0.560000
68.309310,-0.004392,0.289384,1.037488,0.700000,1.260000,-1.260000
68.317397,-0.077592,0.246440,0.857416,-0.700000,3.500000,-1.680000
68.325484,-0.048312,0.238632,0.901336,0.280000,0.140000,-0.280000
68.333571,0.019520,0.299144,1.067256,0.840000,-2.660000,-0.700000
68.341658,-0.004392,0.237656,1.028216,0.420000,0.420000,-0.700000
68.349746,-0.037088,0.249368,0.938912,-0.560000,4.340000,-1.820000
68.357833,-0.093208,0.257176,0.921832,0.420000,0.140000,-0.840000
68.365920,-0.010248,0.257664,0.906216,0.700000,-2.100000,0.420000
68.374007,0.060024,0.298168,1.080920,-0.840000,-0.420000,-1.260000
68.382094,-0.071736,0.264984,1.001864,-1.960000,3.500000,-1.540000
68.390181,-0.080520,0.219600,0.853024,-1.260000,2.240000,-1.400000
68.398268,0.015616,0.265960,0.955016,0.000000,-2.520000,0.000000
68.406355,-0.001464,0.275232,1.079456,-1.120000,0.140000,-0.420000
68.414442,-0.014152,0.252784,1.032120,-1.400000,2.380000,-1.680000
68.422529,-0.113216,0.227896,0.887672,-0.140000,3.080000,-1.120000
68.430616,-0.021472,0.252784,0.896456,0.140000,-1.820000,-0.280000
68.438703,0.044408,0.266936,1.017968,0.000000,-2.380000,-0.280000
68.446790,0.008784,0.296216,1.087752,-1.540000,1.260000,-1.120000
68.454877,-0.084424,0.265472,0.932080,-3.080000,4.620000,-1.540000
68.462964,-0.080520,0.192272,0.867664,-1.540000,0.700000,-0.840000
68.471051,0.006344,0.275720,0.970144,0.420000,-2.100000,-0.140000
68.479138,0.052704,0.283528,1.054080,-1.260000,-0.840000,-0.980000
68.487225,-0.058072,0.274256,1.011624,-3.640000,3.220000,-1.400000
68.495312,-0.066368,0.224968,0.914512,-2.800000,2.660000,-1.400000
68.503399,-0.046848,0.231312,0.866688,-1.540000,-0.840000,-0.420000
68.511486,0.020984,0.279136,1.011136,-2.240000,-2.100000,-0.560000
68.519573,0.023912,0.276696,1.095560,-2.240000,0.560000,-1.400000
68.527660,-0.073688,0.244000,0.989664,-3.220000,4.340000,-1.820000
68.535747,-0.094184,0.209840,0.875960,-2.940000,1.400000,-0.560000
68.543834,0.014152,0.231312,0.959408,-0.140000,-2.100000,-0.560000
68.551921,0.028304,0.291824,1.041392,0.000000,-1.540000,-0.280000
68.560008,-0.028792,0.263032,1.024312,-2.100000,2.100000,-1.400000
68.568095,-0.057584,0.248392,0.972584,-2.520000,3.220000,-1.540000
68.576182,-0.080520,0.218136,0.873520,-1.680000,0.840000,-0.420000
68.584269,0.007320,0.247416,0.937936,-0.840000,-1.960000,-0.700000
68.592356,0.032208,0.284992,1.057984,-1.540000,-1.400000,-0.280000
68.600443,-0.023424,0.280600,1.044808,-2.520000,2.520000,-1.680000
68.608530,-0.094672,0.216672,0.894992,-4.200000,3.640000,-1.400000
68.616617,-0.049776,0.219600,0.893528,-2.940000,-0.280000,-0.980000
68.624704,0.013176,0.287432,0.941840,-2.520000,-1.960000,-0.140000
68.632791,0.031720,0.255712,1.068720,-4.340000,-0.560000,-0.980000
68.640878,-0.054168,0.262056,1.073600,-4.480000,3.220000,-1.400000
68.648965,-0.074176,0.217648,0.857416,-3.780000,2.800000,-1.400000
68.657052,-0.031232,0.219600,0.894992,-3.780000,-1.120000,-0.560000
68.665139,0.037576,0.271328,1.084824,-2.800000,-2.240000,-0.420000
68.673226,-0.020496,0.261080,1.042368,-4.200000,2.240000,-1.260000
68.681313,-0.079544,0.242536,0.929152,-4.900000,3.780000,-1.680000
68.689400,-0.073688,0.203984,0.898896,-3.780000,0.840000,-0.980000
68.697487,0.020984,0.220088,0.975024,-2.520000,-2.660000,0.140000
68.705574,0.025864,0.257664,1.098000,-1.120000,-0.560000,-1.260000
68.713661,-0.039528,0.263032,1.046272,-2.800000,3.080000,-1.400000
68.721748,-0.092720,0.225456,0.880840,-2.660000,2.380000,-1.400000
68.729835,-0.050752,0.211792,0.886208,-2.520000,0.140000,-0.700000
68.737922,0.044408,0.260592,0.992104,-1.680000,-2.520000,-0.280000
68.746009,0.004392,0.292312,1.028216,-3.640000,0.000000,-0.840000
68.754096,-0.033672,0.236680,1.056520,-5.180000,3.220000,-1.960000
68.762183,-0.106384,0.220576,0.910608,-4.760000,3.640000,-1.120000
68.770270,-0.022448,0.180560,0.876448,-3.360000,-1.260000,-0.840000
68.778357,0.016592,0.286456,1.065304,-1.820000,-1.960000,0.000000
68.786444,0.003904,0.237656,1.002352,-3.500000,1.400000,-1.540000
68.794531,-0.031720,0.254248,1.004304,-5.600000,2.520000,-1.680000
68.802618,-0.102480,0.198616,0.909144,-4.200000,2.240000,-0.840000
68.810705,-0.009760,0.205448,0.925736,-3.360000,-1.680000,-0.560000
68.818792,0.034160,0.258640,1.061888,-3.080000,-0.840000,-0.700000
68.826879,-0.031720,0.258640,1.065304,-3.220000,1.820000,-1.400000
68.834966,-0.103456,0.207400,0.937448,-4.200000,4.200000,-1.680000
68.843053,-0.021472,0.208376,0.900848,-3.360000,-0.700000,-0.420000
68.851140,0.008296,0.216184,1.005768,-0.980000,-1.680000,-0.280000
68.859227,0.013664,0.266448,1.061888,-1.540000,-0.280000,-1.120000
68.867314,-0.031720,0.249856,0.982832,-2.520000,2.100000,-1.260000
68.875401,-0.102968,0.209840,0.968192,-3.360000,3.220000,-1.540000
68.883488,-0.009760,0.209352,0.893040,-2.100000,-1.120000,-0.140000
68.891575,0.000976,0.228872,0.986736,-1.960000,-1.400000,-0.560000
68.899662,0.020496,0.276696,1.055056,-2.660000,0.560000,-0.980000
68.907749,-0.063440,0.228384,1.002840,-3.500000,2.660000,-1.680000
68.915836,-0.073688,0.183488,0.903288,-4.760000,2.240000,-1.260000
68.923923,0.007808,0.217648,0.965752,-1.820000,-1.400000,-0.420000
68.932010,-0.037576,0.247904,1.016016,-1.400000,-0.700000,-0.420000
68.940097,0.018056,0.261568,0.982344,-3.360000,0.420000,-1.260000
68.948184,-0.060024,0.233264,0.987712,-6.160000,3.500000,-1.540000
68.956271,-0.064904,0.175680,0.934032,-5.460000,1.820000,-0.980000
68.964358,0.003904,0.184952,0.971608,-2.380000,-1.820000,-0.420000
68.972446,-0.002440,0.274256,1.082872,-1.680000,-0.840000,-0.700000
68.980533,-0.037088,0.220576,1.008696,-3.360000,3.080000,-1.820000
68.988620,-0.063928,0.206912,0.921344,-3.500000,1.960000,-0.980000
68.996707,-0.029768,0.204472,0.922808,-2.940000,-0.700000,-0.560000
69.004794,0.010736,0.220088,1.030168,-1.820000,-0.980000,-0.280000
69.012881,-0.006344,0.241560,1.077992,-1.680000,0.980000,-1.540000
69.020968,-0.100040,0.215208,0.975024,-2.380000,3.640000,-1.400000
69.029055,-0.024888,0.185928,0.858392,-2.660000,0.420000,-0.700000
69.037142,-0.004392,0.208376,1.028216,-1.260000,-1.540000,-0.280000
69.045229,0.016104,0.246928,1.059936,-0.700000,-0.280000,-0.840000
69.053316,-0.066368,0.227408,0.988688,-2.100000,3.080000,-1.400000
69.061403,-0.066856,0.171776,0.950624,-2.660000,2.380000,-1.260000
69.069490,-0.028304,0.199592,0.990152,0.560000,-1.120000,-0.140000
69.077577,0.026840,0.244488,0.962824,1.820000,-1.400000,-0.560000
69.085664,0.008784,0.248392,0.977952,-1.260000,0.560000,-0.980000
69.093751,-0.041480,0.253760,1.054568,-2.660000,1.540000,-1.260000
69.101838,-0.064904,0.196176,0.891576,-3.080000,2.380000,-1.260000
69.109925,-0.043920,0.209352,0.954528,-2.660000,0.140000,-0.700000
69.118012,0.000000,0.218136,0.983808,-1.960000,-1.680000,-0.560000
69.126099,0.007320,0.218136,1.039928,-2.240000,0.980000,-0.980000
69.134186,-0.060512,0.222040,1.025288,-3.360000,3.220000,-1.540000
69.142273,-0.067344,0.193736,0.933056,-2.800000,0.840000,-0.980000
69.150360,0.000488,0.178120,0.921832,-1.820000,-0.700000,-0.560000
69.158447,0.025864,0.241072,1.051640,-0.980000,-0.700000,-0.840000
69.166534,-0.055632,0.253272,1.034560,-1.540000,1.400000,-0.840000
69.174621,-0.041968,0.201544,0.966240,-3.640000,2.800000,-1.540000
69.182708,-0.057096,0.176656,0.953552,-2.380000,1.400000,-0.980000
69.190795,-0.015616,0.191784,0.958920,0.700000,-2.240000,-0.280000
69.198882,0.037088,0.246928,1.007232,-1.120000,0.000000,-0.980000
69.206969,-0.043432,0.243024,1.064328,-2.240000,1.540000,-1.120000
69.215056,-0.089792,0.169824,0.932568,-2.940000,2.380000,-0.980000
69.223143,0.009272,0.187880,0.931592,-0.980000,-0.420000,-0.700000
69.231230,-0.022936,0.242536,1.015040,0.280000,-0.980000,-0.420000
69.239317,-0.003416,0.211792,1.053592,-1.260000,0.840000,-1.120000
69.247404,-0.049288,0.205936,1.001864,-1.960000,2.660000,-1.260000
69.255491,-0.068320,0.172752,0.965264,0.000000,1.540000,-1.120000
69.263578,-0.019032,0.220088,0.899384,0.700000,-1.260000,-0.280000
69.271665,0.000000,0.257176,0.949648,-0.840000,-0.420000,-0.700000
69.279752,-0.024888,0.223016,1.044808,-3.360000,0.980000,-0.980000
69.287839,-0.024888,0.167872,1.017480,-3.080000,1.680000,-1.400000
69.295926,-0.041968,0.176168,0.937448,-1.400000,1.120000,-0.840000
69.304013,-0.010736,0.246440,0.976000,0.280000,-0.840000,-0.840000
69.312100,-0.014640,0.220088,1.003328,-0.980000,0.000000,-0.700000
69.320187,-0.021472,0.207888,1.086288,-2.100000,1.540000,-1.260000
69.328274,-0.073200,0.201056,0.963800,-1.120000,2.380000,-0.980000
69.336361,-0.042456,0.166408,0.916952,-0.700000,0.700000,-1.120000
69.344448,-0.018544,0.203496,0.964776,1.120000,-0.840000,-0.140000
69.352535,-0.007808,0.216672,1.041392,0.700000,-0.700000,-0.560000
69.360622,0.000488,0.217160,1.074088,-0.700000,1.120000,-1.260000
69.368709,-0.057096,0.175680,0.979904,0.140000,2.800000,-0.700000
69.376796,-0.067832,0.217648,0.919392,1.540000,0.420000,-1.120000
69.384883,-0.009272,0.226920,0.893040,0.560000,-0.980000,-0.560000
69.392970,0.012688,0.226920,1.008208,-0.560000,-0.560000,-0.420000
69.401057,-0.029768,0.196664,1.098976,-1.820000,1.540000,-0.840000
69.409144,-0.051728,0.177632,1.008208,-0.560000,2.380000,-1.260000
69.417231,-0.056120,0.191296,0.939400,0.840000,1.400000,-1.260000
69.425318,-0.030256,0.197152,0.915976,1.820000,-0.420000,-0.280000
69.433405,0.027816,0.243512,0.999424,0.700000,-2.520000,-0.420000
69.441492,-0.010248,0.250832,1.038952,-1.540000,1.820000,-0.980000
69.449579,-0.037088,0.188856,0.996496,-3.080000,2.800000,-1.260000
69.457666,-0.103944,0.164944,0.939400,-1.260000,1.680000,-1.400000
69.465753,-0.007320,0.194224,0.922320,1.120000,-1.540000,0.140000
69.473840,0.027816,0.247904,1.059448,0.420000,-1.400000,-1.120000
69.481927,-0.039040,0.219600,1.067256,-2.660000,2.660000,-0.980000
69.490014,-0.038552,0.155184,0.940376,-1.120000,2.660000,-1.260000
69.498101,-0.061488,0.192272,0.910120,0.560000,0.140000,-0.980000
69.506188,-0.026840,0.206912,1.011624,1.260000,-1.400000,0.000000
69.514275,0.039528,0.213744,1.066768,1.260000,-0.560000,-0.560000
69.522362,-0.041480,0.171288,1.010648,-0.280000,3.220000,-1.680000
69.530450,-0.071736,0.227896,0.976488,2.100000,1.120000,-0.840000
69.538537,-0.057584,0.174704,0.885232,2.380000,-0.280000,-0.420000
69.546624,0.040992,0.213256,1.034072,2.660000,-1.820000,-0.560000
69.554711,-0.013664,0.215208,1.067744,1.400000,1.260000,-0.700000
69.562798,-0.040992,0.211304,0.990640,0.700000,2.520000,-1.260000
69.570885,-0.095160,0.180072,0.908656,2.100000,1.820000,-1.120000
69.578972,-0.007808,0.203984,0.899384,2.100000,-1.120000,-0.420000
69.587059,0.011224,0.240096,1.043832,1.260000,-1.820000,-0.280000
69.595146,-0.010248,0.208376,1.109712,-0.420000,1.120000,-1.120000
69.603233,-0.035624,0.161040,0.956480,0.140000,3.220000,-1.260000
69.611320,-0.064416,0.198128,0.945256,3.080000,0.280000,-0.840000
69.619407,-0.053680,0.206424,0.946720,4.480000,-1.260000,0.140000
69.627494,0.076128,0.240584,1.039440,2.240000,-1.120000,-0.840000
69.635581,-0.075152,0.211792,1.075064,0.420000,3.500000,-0.840000
69.643668,-0.078080,0.156648,0.950136,2.520000,2.940000,-1.680000
69.651755,-0.052216,0.165920,0.883280,4.760000,-1.120000,0.000000
69.659842,0.009272,0.241072,1.029192,4.900000,-2.380000,0.000000
69.667929,0.022448,0.214232,1.090680,3.360000,0.280000,-0.980000
69.676016,-0.045872,0.180560,1.001864,3.640000,2.800000,-0.980000
69.684103,-0.075152,0.217648,0.892552,5.180000,1.540000,-0.700000
69.692190,-0.040992,0.191296,0.937448,4.900000,-0.980000,-0.560000
69.700277,0.047336,0.237656,1.028216,4.900000,-1.960000,0.000000
69.708364,-0.022936,0.233264,1.060912,3.080000,1.120000,-0.980000
69.716451,-0.039040,0.194712,0.984784,2.240000,2.800000,-1.260000
69.724538,-0.087840,0.199104,0.905728,4.060000,1.260000,-0.980000
69.732625,-0.027328,0.211792,0.915976,3.500000,-0.840000,-0.420000
69.740712,0.040504,0.231800,1.030168,3.220000,-2.240000,0.000000
69.748799,-0.020496,0.229360,1.095560,1.400000,1.820000,-1.260000
69.756886,-0.054656,0.162504,0.971120,2.240000,3.500000,-1.260000
69.764973,-0.097112,0.197152,0.850584,3.640000,0.280000,-0.420000
69.773060,0.029768,0.224480,1.037488,5.460000,-2.660000,0.000000
69.781147,0.032208,0.238632,1.088240,3.220000,-0.420000,-0.560000
69.789234,-0.094184,0.196664,0.992592,2.240000,4.200000,-1.400000
69.797321,-0.040504,0.164456,0.878400,4.340000,1.260000,-0.980000
69.805408,-0.051240,0.204960,0.989176,6.020000,-1.400000,0.000000
69.813495,0.055632,0.226920,1.080432,6.580000,-2.100000,-0.140000
69.821582,-0.029280,0.254736,1.049200,5.740000,1.960000,-1.120000
69.829669,-0.073688,0.173728,0.924760,3.920000,3.500000,-1.400000
69.837756,-0.061488,0.218624,0.933056,6.300000,-0.700000,-0.560000
69.845843,-0.023912,0.203984,0.933056,6.300000,-1.120000,0.420000
69.853930,0.068808,0.245464,1.058960,5.040000,-1.400000,-0.980000
69.862017,-0.058560,0.233752,1.083848,5.040000,1.820000,-0.700000
69.870104,-0.056120,0.157136,0.929640,5.040000,3.500000,-1.260000
69.878191,-0.054656,0.235216,0.947696,8.540000,-0.560000,-0.420000
69.886278,-0.033184,0.214720,0.956968,8.540000,-1.960000,0.700000
69.894365,0.071736,0.242048,1.046760,8.120000,-0.980000,-0.980000
69.902452,-0.057096,0.263032,1.012600,5.740000,2.100000,-0.420000
69.910539,-0.049288,0.204472,0.900360,4.200000,2.380000,-1.680000
69.918626,-0.066856,0.218136,0.968680,4.480000,0.980000,-0.140000
69.926713,-0.034160,0.164944,0.958432,7.280000,-2.100000,0.000000
69.934800,0.073200,0.256200,1.055544,7.420000,-1.680000,-0.700000
69.942887,-0.037576,0.254248,1.054080,6.020000,2.380000,-0.560000
69.950974,-0.099064,0.214720,0.921344,4.760000,3.220000,-1.540000
69.959061,-0.030744,0.198128,0.921344,6.860000,-0.840000,0.000000
69.967148,-0.005856,0.238632,0.984784,7.840000,-1.820000,0.000000
69.975235,0.032696,0.249856,1.017968,6.160000,0.000000,-0.560000
69.983322,-0.044896,0.258152,1.025776,5.180000,2.100000,-1.120000
69.991409,-0.081984,0.223016,0.916952,3.640000,2.800000,-1.120000
69.999496,-0.022448,0.191784,0.933544,4.340000,-0.280000,-0.560000
70.007583,-0.027816,0.239608,1.021384,7.140000,-1.400000,0.280000
70.015670,0.032696,0.233752,1.012112,5.600000,-0.140000,-0.840000
70.023758,-0.052216,0.257664,1.014064,4.200000,2.240000,-0.840000
70.031845,-0.092232,0.180560,0.924272,5.040000,2.240000,-0.700000
70.039932,0.011224,0.236192,0.932080,6.860000,-1.400000,-0.420000
70.048019,-0.026840,0.253272,1.064328,6.720000,-0.700000,0.280000
70.056106,0.012200,0.238144,0.987224,6.020000,0.560000,-0.980000
70.064193,-0.040992,0.234240,0.957944,5.040000,2.100000,-0.980000
70.072280,-0.070272,0.241560,0.940376,5.460000,0.140000,-0.560000
70.080367,-0.021960,0.246928,0.901824,5.320000,-0.420000,-0.420000
70.088454,0.013664,0.248392,1.039928,3.920000,-1.260000,0.000000
70.096541,-0.003416,0.248392,1.036024,3.640000,0.700000,-1.400000
70.104628,-0.074664,0.233752,0.958432,3.640000,3.220000,-0.840000
70.112715,-0.073200,0.193736,0.891088,3.360000,0.840000,-0.700000
70.120802,0.014640,0.231800,0.978928,4.900000,-2.800000,0.140000
70.128889,0.028304,0.277184,1.054568,5.320000,-0.280000,-0.420000
70.136976,-0.074176,0.252784,1.019432,3.220000,3.500000,-1.960000
70.145063,-0.056608,0.215696,0.926712,4.060000,1.540000,-0.700000
70.153150,-0.034160,0.206912,0.879376,5.180000,-1.540000,-0.140000
70.161237,0.061976,0.279624,1.077992,4.760000,-1.540000,-0.420000
70.169324,-0.048312,0.254248,1.092144,5.180000,2.380000,-1.120000
70.177411,-0.094184,0.215696,0.850584,4.760000,2.940000,-0.980000
70.185498,-0.012688,0.217160,0.941840,5.040000,-0.980000,-0.700000
70.193585,0.013176,0.254248,1.029680,7.000000,-1.960000,0.420000
70.201672,0.005856,0.255712,1.030656,6.300000,0.280000,-0.560000
70.209759,-0.048800,0.281088,0.994544,4.340000,2.660000,-1.680000
70.217846,-0.115168,0.215208,0.915976,4.900000,2.800000,-0.140000
70.225933,0.013176,0.199592,0.901824,6.160000,-2.100000,-0.560000
70.234020,0.018544,0.273768,1.047248,6.020000,-1.820000,0.000000
70.242107,-0.006832,0.280600,1.046272,5.460000,1.960000,-0.980000
70.250194,-0.088328,0.243512,0.947696,4.480000,3.080000,-1.540000
70.258281,-0.055632,0.192760,0.875472,5.040000,0.000000,0.280000
70.266368,0.040992,0.284504,0.962336,6.440000,-2.520000,-0.420000
70.274455,0.004392,0.295728,1.081408,4.480000,-0.560000,-0.560000
70.282542,-0.070760,0.241560,0.985760,3.220000,4.200000,-1.400000
70.290629,-0.058072,0.228384,0.879864,3.220000,1.400000,-0.840000
70.298716,-0.008784,0.224968,0.965264,5.180000,-2.240000,0.280000
70.306803,0.050752,0.297680,1.075064,5.180000,-0.700000,-0.980000
70.314890,-0.068808,0.271328,0.962824,3.220000,3.920000,-1.120000
70.322977,-0.108824,0.217648,0.920368,3.360000,1.960000,-0.980000
70.331064,0.036112,0.212280,0.937448,4.900000,-2.520000,0.000000
70.339151,0.013664,0.287920,1.075064,5.880000,-0.980000,0.280000
70.347238,-0.039040,0.285480,1.001864,4.200000,2.520000,-1.820000
70.355325,-0.100528,0.221552,0.887184,3.220000,2.940000,-0.560000
70.363412,-0.014640,0.232288,0.892064,3.920000,-1.820000,-0.280000
70.371499,0.045384,0.288408,1.071160,4.480000,-2.380000,-0.420000
70.379586,-0.037576,0.280112,1.053104,3.640000,2.800000,-0.840000
70.387673,-0.085400,0.231312,0.883280,2.100000,3.220000,-1.820000
70.395760,-0.020008,0.224480,0.886696,3.780000,-1.120000,0.140000
70.403847,0.036112,0.299144,1.050176,4.620000,-2.380000,-0.140000
70.411934,-0.032696,0.250344,1.066768,2.380000,1.820000,-1.400000
70.420021,-0.088816,0.228384,0.927688,3.780000,3.080000,-0.420000
70.428108,-0.030256,0.253272,0.874984,4.760000,-0.980000,-0.700000
70.436195,0.037088,0.291824,1.006744,4.340000,-2.240000,-0.140000
70.444282,-0.002440,0.291824,1.060424,2.660000,0.840000,-0.560000
70.452369,-0.098088,0.248880,0.915000,0.840000,3.920000,-1.960000
70.460456,-0.017568,0.236192,0.864248,1.680000,-0.700000,-0.280000
70.468543,0.010248,0.264496,1.030168,2.240000,-1.400000,-0.420000
70.476630,-0.010248,0.287432,1.078480,2.100000,0.700000,-0.700000
70.484717,-0.062464,0.272792,0.897432,0.700000,3.500000,-1.540000
70.492804,-0.058560,0.209840,0.884744,0.280000,0.700000,-0.560000
70.500891,0.038552,0.255224,1.035536,3.220000,-2.940000,0.280000
70.508978,-0.026352,0.309880,1.060424,2.380000,1.260000,-1.680000
70.517065,-0.082472,0.234240,0.941840,0.700000,3.500000,-0.840000
70.525152,-0.030744,0.223992,0.904752,2.100000,-0.420000,-0.840000
70.533239,0.009272,0.287920,0.998448,3.640000,-2.380000,0.140000
70.541326,0.015128,0.279624,1.004792,1.120000,1.400000,-1.400000
70.549413,-0.087352,0.266936,0.993568,-0.280000,3.500000,-1.260000
70.557501,-0.041480,0.193736,0.905240,1.820000,0.140000,-0.140000
70.565588,0.032696,0.315736,0.989664,3.360000,-2.240000,-0.700000
70.573675,-0.046360,0.265960,1.020896,0.700000,1.680000,-0.700000
70.581762,-0.059048,0.226920,0.972584,0.140000,3.500000,-1.260000
70.589849,0.000000,0.236680,0.858880,2.800000,-1.820000,-0.560000
70.597936,-0.018056,0.312320,1.011136,2.520000,-0.700000,-0.560000
70.606023,-0.011712,0.292800,1.059448,0.140000,0.840000,-0.980000
70.614110,-0.073688,0.203984,0.913048,0.000000,2.800000,-1.260000
70.622197,0.003904,0.273768,0.885232,1.400000,-0.560000,-0.420000
70.630284,0.000000,0.283040,1.030656,1.120000,-0.840000,-0.840000
70.638371,-0.067344,0.260104,1.064328,-0.280000,1.960000,-0.840000
70.646458,-0.028792,0.228872,0.925736,1.120000,1.820000,-1.260000
70.654545,-0.032696,0.233752,0.959896,3.500000,-0.700000,0.140000
70.662632,-0.013176,0.305488,1.017968,1.960000,-0.420000,-1.120000
70.670719,-0.012200,0.259616,0.951600,-0.560000,2.660000,-1.680000
70.678806,-0.056120,0.241072,0.929152,0.700000,0.840000,0.140000
70.686893,0.013664,0.272304,1.018944,2.380000,-2.240000,-0.980000
70.694980,-0.038064,0.278648,1.024800,1.680000,1.820000,-0.560000
70.703067,-0.049776,0.244000,0.897432,0.280000,2.240000,-1.540000
70.711154,-0.022448,0.225944,0.911096,0.980000,-1.120000,-0.280000
70.719241,0.017080,0.293776,1.068720,3.360000,-1.260000,-0.140000
70.727328,-0.063928,0.291824,0.972096,-0.420000,3.360000,-2.240000
70.735415,-0.072224,0.228872,0.893528,-0.840000,1.400000,0.000000
70.743502,0.030744,0.231312,0.974048,1.120000,-2.240000,-0.840000
70.751589,-0.004880,0.304512,1.048224,1.540000,-0.140000,-0.560000
70.759676,-0.057584,0.266448,0.975512,-0.560000,4.200000,-1.680000
70.767763,-0.057584,0.230336,0.903288,0.700000,-0.420000,0.000000
70.775850,0.037576,0.295240,1.017968,2.240000,-2.660000,-0.560000
70.783937,-0.056608,0.241560,1.043832,0.000000,3.780000,-1.260000
70.792024,-0.038064,0.226920,0.870104,1.960000,1.680000,-0.840000
70.800111,-0.010736,0.268400,0.969656,2.240000,-1.540000,-0.840000
70.808198,0.001952,0.302560,1.046760,2.940000,-0.560000,0.000000
70.816285,-0.062952,0.295240,1.021872,0.700000,1.960000,-1.540000
70.824372,-0.063928,0.216672,0.844240,-0.980000,2.520000,-1.120000
70.832459,0.021960,0.221552,0.940376,1.260000,-0.840000,0.000000
70.840546,-0.014640,0.289872,1.045296,2.100000,-1.120000,-0.840000
70.848633,-0.028792,0.291336,1.021384,0.280000,2.660000,-1.540000
70.856720,-0.062464,0.225944,0.916952,1.260000,1.540000,0.000000
70.864807,-0.016592,0.261080,0.933056,3.220000,-2.380000,-0.980000
70.872894,0.017568,0.332328,0.999912,0.140000,0.280000,-0.700000
70.880981,-0.021472,0.237168,0.992592,-2.520000,2.800000,-1.400000
70.889068,-0.076128,0.203008,0.913536,0.000000,1.120000,-0.840000
70.897155,0.025376,0.319640,0.962824,1.540000,-1.820000,-0.420000
70.905242,-0.045872,0.276696,1.056032,-0.980000,0.980000,-0.840000
70.913329,-0.053192,0.249368,0.951600,-2.100000,2.660000,-1.260000
70.921416,-0.024888,0.202520,0.930616,-0.420000,0.000000,-0.840000
70.929503,-0.033184,0.284504,0.987224,2.100000,-1.120000,0.140000
70.937590,0.022936,0.290848,1.047248,-1.260000,1.120000,-1.960000
70.945677,-0.086376,0.194712,0.891088,-0.420000,3.500000,0.000000
70.953764,-0.000976,0.300120,0.945256,2.380000,-2.240000,-0.700000
70.961851,-0.011712,0.294264,1.006256,-0.560000,0.000000,-0.700000
70.969938,-0.040504,0.240584,1.039440,-1.680000,3.080000,-0.980000
70.978025,-0.031232,0.189832,0.892064,0.840000,0.840000,-1.260000
70.986112,-0.021960,0.292800,0.966728,2.800000,-1.680000,-0.140000
70.994199,-0.011712,0.306464,1.048712,-0.140000,1.120000,-0.700000
71.002286,-0.030744,0.234240,1.025288,-0.560000,1.680000,-1.400000
71.010373,-0.068808,0.198128,0.918904,2.520000,1.820000,-0.280000
71.018460,0.014640,0.284504,0.898408,3.920000,-2.380000,-0.700000
71.026547,-0.012688,0.326472,1.023336,0.000000,0.140000,-0.420000
71.034634,-0.029280,0.250832,1.025288,-1.960000,2.660000,-1.400000
71.042721,-0.068808,0.218136,0.896944,-0.700000,1.540000,-0.980000
71.050808,-0.024888,0.246928,0.910120,1.400000,-0.980000,-0.420000
71.058895,0.028304,0.302072,1.096048,0.420000,-1.260000,-1.120000
71.066982,-0.075152,0.245464,1.006256,-0.140000,3.360000,-0.420000
71.075069,-0.029280,0.235216,0.870104,-0.280000,1.680000,-1.260000
71.083156,-0.011712,0.266448,0.940864,0.420000,-1.400000,-0.140000
71.091243,-0.022448,0.270352,1.106784,0.700000,-0.140000,-0.700000
71.099330,-0.008296,0.276696,1.006256,0.000000,2.380000,-1.680000
71.107417,-0.088816,0.185440,0.878888,2.100000,1.820000,-0.420000
71.115504,0.025376,0.266448,0.989176,4.060000,-1.960000,-0.700000
71.123592,0.000976,0.319640,1.008208,1.680000,-0.560000,-0.700000
71.131679,-0.049288,0.269376,0.971120,-1.260000,3.080000,-1.120000
71.139766,-0.050264,0.206424,0.860832,0.140000,1.120000,-0.980000
71.147853,-0.021472,0.270840,0.962824,1.540000,-1.680000,0.140000
71.155940,0.001464,0.257664,1.125328,0.000000,0.700000,-1.120000
71.164027,-0.017568,0.248392,0.953552,2.380000,1.960000,-0.980000
71.172114,-0.090280,0.280600,0.946232,3.220000,0.420000,-0.560000
71.180201,0.004392,0.268400,0.949160,1.540000,-1.260000,0.000000
71.188288,-0.000976,0.260104,1.055056,1.540000,0.980000,-1.120000
71.196375,-0.029768,0.226432,0.890600,0.140000,2.800000,-1.400000
71.204462,-0.052704,0.277184,0.928664,1.260000,0.420000,-0.840000
71.212549,-0.048312,0.288896,0.993568,1.820000,-1.680000,0.000000
71.220636,0.026352,0.249856,1.070184,-0.700000,1.400000,-1.120000
71.228723,-0.059536,0.228872,0.938912,0.420000,2.380000,-0.980000
71.236810,-0.013176,0.256200,0.861320,1.540000,0.420000,-1.260000
71.244897,-0.011224,0.302560,1.012600,1.400000,-1.400000,0.000000
71.252984,-0.033184,0.249368,1.097512,0.140000,0.420000,-0.700000
71.261071,-0.035624,0.253760,0.909632,0.280000,1.960000,-1.680000
71.269158,-0.030744,0.242536,0.847656,0.840000,-0.280000,-0.280000
71.277245,0.004392,0.285968,1.033584,0.000000,-0.840000,-0.700000
71.285332,0.020496,0.289384,1.054568,-0.700000,0.980000,-0.980000
71.293419,-0.130296,0.223016,0.949160,0.700000,3.360000,-1.120000
71.301506,-0.025376,0.240096,0.891576,1.960000,-1.260000,-0.280000
71.309593,0.053680,0.305488,1.019432,0.140000,-1.820000,-0.840000
71.317680,-0.054656,0.230336,1.070184,-1.540000,3.920000,-1.260000
71.325767,-0.059048,0.215696,0.878400,1.400000,2.100000,-1.400000
71.333854,-0.038552,0.310368,0.952088,2.660000,-2.520000,0.280000
71.341941,0.022448,0.284016,1.022848,0.140000,0.140000,-0.560000
71.350028,-0.007320,0.233264,1.006744,-1.680000,2.520000,-1.540000
71.358115,-0.097112,0.197640,0.883768,0.700000,3.220000,-1.120000
71.366202,0.013664,0.303536,0.993568,3.080000,-3.500000,0.420000
71.374289,-0.011712,0.282064,1.078968,0.980000,0.000000,-1.120000
71.382376,-0.029280,0.239608,0.964776,-0.840000,4.340000,-1.260000
71.390463,-0.083448,0.225456,0.885232,2.520000,0.980000,-0.980000
71.398550,-0.004392,0.283528,0.973560,2.800000,-3.080000,-0.140000
71.406637,0.030744,0.297680,1.038952,0.140000,0.560000,-0.560000
71.414724,-0.064904,0.247416,0.963312,-1.540000,3.640000,-2.100000
71.422811,-0.062464,0.222040,0.846680,0.000000,0.280000,-0.280000
71.430898,0.010736,0.264496,1.018944,1.680000,-2.380000,-0.140000
71.438985,0.012200,0.295240,1.115080,0.700000,0.140000,-0.700000
71.447072,-0.086864,0.235704,0.920368,0.000000,4.200000,-1.680000
71.455159,-0.056120,0.213256,0.858880,1.960000,-0.840000,-0.140000
71.463246,0.043920,0.283040,1.041880,1.960000,-2.380000,-0.420000
71.471333,0.006344,0.283040,1.056520,-0.140000,2.380000,-1.260000
71.479420,-0.105896,0.245464,0.939888,0.840000,3.220000,-1.400000
71.487507,-0.056608,0.222040,0.922808,3.080000,-0.980000,0.000000
71.495594,0.045384,0.285968,1.035048,2.940000,-1.400000,-0.280000
71.503681,-0.011224,0.287432,1.009184,0.420000,2.520000,-1.680000
71.511768,-0.092232,0.228384,0.897432,0.420000,2.940000,-0.980000
71.519855,-0.029280,0.237168,0.895480,2.380000,-1.680000,-0.280000
71.527942,0.037576,0.285968,1.070184,1.680000,-1.820000,-0.420000
71.536029,-0.010248,0.257176,1.087264,1.260000,2.380000,-0.840000
71.544116,-0.083448,0.234240,0.831552,2.380000,2.660000,-1.260000
71.552203,-0.040016,0.292312,0.901336,2.380000,-1.400000,-0.420000
71.560290,0.017080,0.277184,1.026752,0.420000,-1.120000,-0.140000
71.568377,0.008296,0.258152,1.063840,-0.980000,1.820000,-1.400000
71.576464,-0.087352,0.198128,0.905240,1.680000,3.080000,-1.260000
71.584551,-0.017080,0.298656,0.891576,2.240000,-1.960000,-0.420000
71.592638,0.012200,0.283040,1.067744,0.420000,-0.980000,-0.280000
71.600725,-0.038064,0.252296,1.059448,0.140000,2.380000,-1.120000
71.608812,-0.078080,0.246440,0.828624,0.980000,2.520000,-1.540000
71.616899,-0.013664,0.225944,0.932568,1.680000,-1.400000,0.280000
71.624986,0.060512,0.310368,1.114592,1.400000,-1.960000,-0.840000
71.633073,-0.084912,0.255224,1.008208,0.140000,4.620000,-1.680000
71.641160,-0.080032,0.220576,0.886696,1.820000,1.540000,-0.700000
71.649247,-0.005368,0.273768,0.940376,3.360000,-2.940000,0.140000
71.657334,0.038064,0.275720,1.018456,0.420000,0.280000,-0.980000
71.665421,-0.039528,0.270352,0.997960,-0.420000,3.500000,-1.260000
71.673508,-0.101504,0.216672,0.935984,1.400000,1.120000,-1.120000
71.681595,0.014152,0.282552,0.963312,3.220000,-1.960000,0.140000
71.689682,0.027816,0.292312,1.022848,1.540000,0.000000,-0.840000
71.697769,-0.071736,0.272792,0.961360,-1.540000,3.920000,-1.540000
71.705856,-0.053680,0.207888,0.867664,-0.280000,0.700000,-0.840000
71.713943,-0.006832,0.253272,1.028704,1.540000,-2.380000,0.140000
71.722030,0.012688,0.277184,1.080432,1.680000,0.420000,-1.260000
71.730118,-0.064904,0.266448,0.914512,0.000000,3.080000,-1.120000
71.738205,-0.054168,0.222040,0.903776,0.980000,0.280000,-0.840000
71.746292,0.032696,0.294264,1.042856,2.940000,-2.660000,0.140000
71.754379,-0.021472,0.281576,0.998448,1.400000,1.400000,-1.260000
71.762466,-0.062464,0.262544,0.957944,-0.560000,3.080000,-1.540000
71.770553,-0.049288,0.215696,0.873520,0.840000,-0.420000,-0.280000
71.778640,0.029280,0.256688,1.058472,2.240000,-2.100000,-0.140000
71.786727,-0.003416,0.277672,1.057984,2.520000,1.540000,-1.260000
71.794814,-0.092720,0.277672,0.905728,1.120000,3.080000,-1.260000
71.802901,-0.061000,0.241072,0.864248,0.560000,0.140000,-0.560000
71.810988,0.062952,0.274256,0.999912,1.400000,-2.520000,-0.280000
71.819075,-0.024888,0.285968,1.093120,0.280000,1.400000,-1.400000
71.827162,-0.096136,0.211792,0.940864,0.140000,3.780000,-1.260000
71.835249,-0.007320,0.245464,0.865712,2.380000,-1.260000,-0.280000
71.843336,0.015128,0.280600,1.050176,2.100000,-1.400000,-0.420000
71.851423,-0.020984,0.279624,1.084336,1.820000,1.960000,-1.120000
71.859510,-0.093208,0.252296,0.887672,1.400000,2.940000,-1.540000
71.867597,-0.020984,0.235216,0.885720,1.540000,-0.840000,-0.280000
71.875684,0.041968,0.266936,1.041392,1.960000,-1.540000,0.000000
71.883771,-0.033672,0.272304,1.059936,2.520000,2.100000,-1.820000
71.891858,-0.090768,0.277672,0.865712,0.700000,2.520000,-0.980000
71.899945,-0.009272,0.238632,0.909144,0.980000,-0.840000,-0.280000
71.908032,0.015616,0.274256,1.046760,1.960000,-1.400000,-0.560000
71.916119,-0.036112,0.278648,1.064328,1.120000,2.800000,-1.260000
71.924206,-0.067344,0.223016,0.861320,1.260000,1.960000,-0.840000
71.932293,-0.020496,0.286944,0.891088,1.400000,-1.540000,-0.420000
71.940380,0.030744,0.296216,1.029192,-0.980000,-0.840000,-0.700000
71.948467,-0.033672,0.246440,1.110200,-0.280000,1.400000,-1.400000
71.956554,-0.119560,0.191296,0.879864,2.240000,2.940000,-0.280000
71.964641,0.043920,0.283528,0.994056,4.200000,-2.660000,-0.840000
71.972728,-0.039040,0.283528,1.007232,2.520000,0.980000,-0.420000
71.980815,-0.016592,0.275720,0.941352,0.560000,2.380000,-1.960000
71.988902,-0.054656,0.256688,0.873520,-0.140000,0.000000,-0.280000
71.996989,0.028792,0.243512,1.007720,1.260000,-1.960000,-0.420000
72.005076,-0.027816,0.304512,1.096048,0.700000,1.960000,-1.120000
72.013163,-0.088816,0.208864,0.918904,1.540000,2.660000,-0.840000
72.021250,-0.010736,0.267424,0.916464,2.100000,-0.560000,-0.980000
72.029337,0.006344,0.243512,1.002352,2.940000,-1.120000,0.280000
72.037424,-0.013176,0.314272,1.037000,2.380000,0.840000,-1.540000
72.045511,-0.073688,0.274744,0.917928,-0.840000,3.220000,-1.400000
72.053598,-0.030744,0.227408,0.884256,-0.140000,-0.980000,-0.140000
72.061685,0.000976,0.266448,1.035536,1.260000,-0.980000,-0.700000
72.069772,-0.015128,0.270352,1.072136,1.680000,1.540000,-0.420000
72.077859,-0.063928,0.254248,0.888648,0.840000,2.240000,-1.540000
72.085946,-0.014152,0.248392,0.901824,1.400000,0.000000,-0.560000
72.094033,0.012200,0.294752,1.035048,2.100000,-2.100000,-0.140000
72.102120,-0.066368,0.276208,1.066768,1.260000,2.100000,-1.400000
72.110207,-0.033184,0.241072,0.899872,0.000000,2.800000,-0.980000
72.118294,-0.013664,0.234240,0.876936,0.560000,-0.420000,-0.840000
72.126381,0.005856,0.298656,1.011136,1.400000,-2.100000,-0.420000
72.134468,-0.025376,0.291336,1.069696,0.420000,1.540000,-0.840000
72.142555,-0.073200,0.215208,0.939888,-0.840000,3.360000,-1.540000
72.150642,-0.013176,0.225456,0.907680,2.800000,-1.120000,0.000000
72.158729,-0.008784,0.322080,1.011136,2.520000,-0.560000,-0.840000
72.166816,-0.033672,0.276696,1.009184,-0.420000,1.260000,-0.980000
72.174903,-0.043432,0.235216,0.937936,-0.840000,2.380000,-1.120000
72.182990,-0.019520,0.203496,0.940864,1.820000,-0.700000,-0.560000
72.191077,0.024888,0.296704,1.024312,4.200000,-1.680000,-0.280000
72.199164,-0.060024,0.309880,1.000888,0.980000,1.820000,-1.260000
72.207251,-0.056608,0.242048,0.980880,0.420000,2.800000,-0.700000
72.215338,-0.021472,0.236192,0.877912,1.820000,-0.700000,-0.840000
72.223425,0.011712,0.305488,0.941840,1.540000,-1.260000,-0.560000
72.231512,-0.012200,0.296704,1.098000,-0.420000,0.980000,-1.120000
72.239599,-0.070272,0.195200,0.996984,-0.420000,3.360000,-0.980000
72.247686,-0.006344,0.245464,0.897432,4.340000,-1.400000,-0.560000
72.255773,-0.035136,0.300120,0.963312,2.660000,-0.280000,-0.560000
72.263860,0.002928,0.284016,1.024312,0.700000,0.840000,-0.420000
72.271947,-0.042456,0.249856,0.951112,0.000000,2.100000,-1.680000
72.280034,-0.073200,0.231312,0.897920,0.980000,0.840000,-0.420000
72.288121,0.022448,0.281088,1.019920,2.520000,-2.240000,-0.280000
72.296208,-0.015616,0.295240,1.052616,0.000000,1.540000,-0.980000
72.304295,-0.063440,0.211792,0.951600,0.420000,3.360000,-1.260000
72.312382,-0.056120,0.220088,0.883280,4.200000,-0.280000,-0.420000
72.320469,0.038064,0.321592,0.997472,3.360000,-1.540000,-0.560000
72.328556,-0.019032,0.312808,1.046272,0.840000,1.120000,-0.840000
72.336643,-0.055632,0.232288,0.915976,-1.260000,3.220000,-1.680000
72.344730,-0.051728,0.252296,0.892552,0.280000,0.420000,-0.420000
72.352817,-0.006832,0.255712,1.062864,2.240000,-2.660000,-0.280000
72.360904,-0.000976,0.302560,1.034072,0.560000,1.820000,-0.840000
72.368992,-0.052704,0.204960,0.915000,0.700000,3.220000,-1.680000
72.377079,-0.054656,0.250832,0.890600,2.800000,-1.120000,-0.140000
72.385166,0.041480,0.318176,1.048712,2.660000,-2.660000,-0.280000
72.393253,-0.020496,0.286944,0.997960,-1.260000,2.800000,-1.120000
72.401340,-0.081496,0.218624,0.918416,-0.700000,2.940000,-1.260000
72.409427,-0.038552,0.250344,0.945744,2.240000,-1.120000,-0.420000
72.417514,0.034648,0.259616,1.084824,3.640000,-1.820000,-0.140000
72.425601,-0.017568,0.303536,0.981856,1.680000,2.660000,-1.540000
72.433688,-0.074664,0.251808,0.888160,0.560000,2.380000,-0.980000
72.441775,-0.039528,0.250832,0.919392,1.540000,-0.840000,-0.560000
72.449862,0.011224,0.280112,1.031632,1.680000,-1.400000,-0.140000
72.457949,-0.004880,0.281576,1.064328,0.700000,1.400000,-0.840000
72.466036,-0.081984,0.213256,0.928176,1.680000,3.920000,-1.960000
72.474123,-0.046360,0.255712,0.889624,3.780000,-0.840000,0.140000
72.482210,0.034648,0.300608,0.978928,2.800000,-2.520000,-0.420000
72.490297,-0.013176,0.301096,1.073600,-0.280000,1.820000,-0.980000
72.498384,-0.055632,0.244000,0.923296,-0.280000,3.500000,-1.540000
72.506471,-0.091256,0.232776,0.853512,1.120000,0.000000,-0.420000
72.514558,0.050264,0.269376,1.030656,2.100000,-2.660000,-0.140000
72.522645,0.008784,0.303048,1.114592,1.260000,0.840000,-0.840000
72.530732,-0.100040,0.234240,0.874496,1.120000,4.060000,-1.680000
72.538819,-0.016592,0.268400,0.821304,0.840000,-1.260000,-0.560000
72.546906,0.015128,0.284016,1.042856,0.840000,-1.960000,-0.140000
72.554993,-0.004392,0.297680,1.133136,-1.120000,1.820000,-1.260000
72.563080,-0.089792,0.206424,0.929152,1.540000,3.780000,-0.980000
72.571167,-0.041968,0.262056,0.833016,2.800000,-1.260000,-0.560000
72.579254,0.054168,0.287432,1.015040,1.260000,-2.100000,-0.420000
72.587341,-0.016592,0.298168,1.094584,-0.700000,2.800000,-1.120000
72.595428,-0.100040,0.226432,0.951112,0.700000,3.220000,-1.260000
72.603515,-0.075640,0.264984,0.837896,2.940000,-0.840000,-0.280000
72.611602,0.075640,0.294264,0.962824,-0.280000,-1.960000,-0.420000
72.619689,-0.009272,0.270840,1.105808,-2.100000,1.960000,-1.400000
72.627776,-0.108824,0.224480,0.972584,0.840000,3.360000,-1.400000
72.635863,-0.048312,0.221552,0.898896,3.220000,-0.280000,0.140000
72.643950,0.045384,0.311344,1.007720,4.060000,-3.640000,-0.280000
72.652037,-0.011224,0.288408,1.004304,0.700000,1.960000,-0.840000
72.660124,-0.026840,0.257664,0.938424,-0.700000,3.640000,-1.680000
72.668211,-0.078080,0.255712,0.920368,0.840000,0.420000,-0.840000
72.676298,-0.031232,0.282552,0.985272,1.820000,-1.960000,0.140000
72.684385,0.056120,0.257664,0.977464,-0.560000,-0.140000,-0.700000
72.692472,-0.055144,0.286456,0.999912,-1.400000,3.220000,-1.820000
72.700559,-0.093696,0.241072,0.902312,0.280000,1.540000,-1.120000
72.708646,0.005856,0.245464,0.985760,1.680000,-2.100000,0.560000
72.716733,0.053680,0.288408,1.080920,1.540000,-1.260000,-1.400000
72.724820,-0.101016,0.280600,0.936472,-0.700000,4.760000,-1.400000
72.732907,-0.046848,0.237168,0.858880,-0.140000,0.420000,-0.840000
72.740994,0.002440,0.253272,1.002840,0.980000,-2.380000,-0.140000
72.749081,0.018544,0.271816,1.136552,2.240000,0.980000,-0.420000
72.757168,-0.065392,0.282064,0.898408,1.540000,3.360000,-1.960000
72.765255,-0.093696,0.250832,0.850096,0.280000,0.840000,-0.560000
72.773342,0.049776,0.245464,0.994544,0.840000,-2.660000,-0.140000
72.781429,-0.001952,0.293776,1.120936,1.260000,0.420000,-0.700000
72.789516,-0.045384,0.251808,0.958432,0.560000,4.060000,-1.820000
72.797603,-0.081008,0.278160,0.871568,1.540000,1.540000,-0.980000
72.805690,-0.030256,0.240096,0.885720,0.980000,-1.680000,-0.280000
72.813777,0.086864,0.318176,1.091656,0.420000,-2.100000,-0.420000
72.821864,-0.063440,0.261080,1.063352,-1.120000,3.080000,-1.540000
72.829951,-0.096136,0.225456,0.876936,0.000000,3.220000,-1.120000
72.838038,-0.040016,0.239608,0.897920,2.520000,-1.260000,0.280000
72.846125,0.069784,0.278160,1.054080,2.100000,-2.240000,-0.700000
72.854212,-0.022448,0.301096,1.069208,1.260000,1.680000,-1.400000
72.862299,-0.103944,0.244488,0.877424,1.120000,3.500000,-0.980000
72.870386,-0.038064,0.254736,0.881328,0.840000,-0.840000,-0.700000
72.878473,0.021960,0.297192,0.996496,1.680000,-2.660000,0.140000
72.886560,0.015616,0.290360,1.028704,-0.700000,1.120000,-1.400000
72.894647,-0.056608,0.260104,0.956480,-2.660000,3.640000,-1.680000
72.902734,-0.085888,0.235704,0.927688,-0.560000,0.840000,-0.700000
72.910821,0.016592,0.257176,1.007720,1.260000,-2.660000,0.280000
72.918908,0.027328,0.286456,1.044320,1.120000,0.560000,-0.980000
72.926995,-0.078568,0.255712,0.918416,-1.400000,4.200000,-2.100000
72.935082,-0.075152,0.246928,0.901336,0.140000,0.000000,-0.280000
72.943169,0.028304,0.242048,1.040416,1.540000,-2.520000,0.000000
72.951256,0.002928,0.278648,1.051152,2.520000,0.840000,-0.840000
72.959343,-0.031232,0.295240,0.931592,0.560000,2.520000,-1.540000
72.967430,-0.100040,0.252784,0.906704,-0.280000,1.820000,-0.980000
72.975517,-0.028304,0.233752,0.933056,0.700000,-0.700000,0.140000
72.983604,0.048800,0.289872,1.034560,1.540000,-2.380000,-0.560000
72.991691,-0.046360,0.290848,0.977952,-1.120000,3.500000,-1.680000
72.999778,-0.079056,0.239608,0.950136,-1.120000,2.380000,-0.980000
73.007865,-0.026352,0.220576,0.911096,0.980000,-1.820000,-0.420000
73.015952,0.045872,0.285480,1.037000,0.980000,-1.260000,-0.280000
73.024039,-0.015128,0.299144,1.095560,0.700000,2.520000,-1.680000
73.032126,-0.117608,0.213256,0.901824,0.980000,3.220000,-1.120000
73.040213,-0.018544,0.244488,0.884744,2.800000,-1.120000,0.000000
73.048300,0.045384,0.314272,0.995520,2.660000,-2.660000,-0.280000
73.056387,-0.019032,0.276208,1.061400,0.140000,1.120000,-0.840000
73.064474,-0.058560,0.263520,0.939888,-0.700000,3.780000,-1.540000
73.072562,-0.067832,0.231800,0.882304,0.140000,0.280000,-0.560000
73.080649,0.025864,0.259128,0.993080,1.400000,-2.100000,-0.560000
73.088736,0.015616,0.304024,1.074576,0.420000,0.280000,-0.840000
73.096823,-0.074664,0.259616,0.960384,-0.140000,3.220000,-1.400000
73.104910,-0.063440,0.239120,0.908656,0.000000,1.680000,-0.980000
73.112997,-0.012688,0.251808,0.928176,2.240000,-2.100000,0.280000
73.121084,0.023424,0.277672,1.028704,1.400000,-0.700000,-0.980000
73.129171,-0.026840,0.297680,1.025776,-0.280000,2.800000,-1.120000
73.137258,-0.111752,0.225944,0.924760,0.280000,2.660000,-1.260000
73.145345,0.006832,0.234728,0.897920,-0.420000,-0.700000,-0.420000
73.153432,0.019032,0.281088,1.019432,2.240000,-2.100000,-0.140000
73.161519,-0.029768,0.296704,1.064328,1.260000,0.980000,-1.120000
73.169606,-0.055632,0.257176,0.940864,-0.280000,3.640000,-1.540000
73.177693,-0.068808,0.213256,0.892064,0.560000,0.980000,-0.280000
73.185780,0.023912,0.255712,1.018944,2.800000,-2.380000,-0.140000
73.193867,0.002928,0.317688,1.015040,2.800000,-0.140000,-0.700000
73.201954,-0.063440,0.274744,0.948184,-0.840000,2.940000,-1.540000
73.210041,-0.043920,0.236192,0.954040,-1.260000,1.960000,-1.120000
73.218128,-0.011712,0.234240,0.947208,1.820000,-1.400000,-0.280000
73.226215,0.001952,0.293288,0.993568,1.680000,-0.840000,-0.700000
73.234302,-0.001952,0.279136,1.011136,0.420000,1.260000,-1.120000
73.242389,-0.076128,0.252784,0.973072,-0.280000,2.380000,-0.980000
73.250476,-0.033184,0.234240,0.941840,1.820000,-0.840000,-0.420000
73.258563,0.011224,0.271816,0.996984,3.640000,-0.840000,-0.280000
73.266650,-0.012200,0.289872,1.000400,1.400000,1.400000,-1.260000
73.274737,-0.053192,0.272304,0.974536,0.000000,1.960000,-1.120000
73.282824,-0.076616,0.248880,0.894016,0.840000,0.700000,-0.420000
73.290911,0.049776,0.239608,0.924272,0.560000,-1.260000,-0.140000
73.298998,-0.013664,0.297192,1.064816,0.980000,0.420000,-1.400000
73.307085,-0.073688,0.279136,1.031632,0.280000,2.940000,-1.120000
73.315172,-0.061976,0.206912,0.887184,1.260000,0.700000,-0.280000
73.323259,0.027328,0.253272,0.932080,2.520000,-1.400000,-0.840000
73.331346,-0.006344,0.321592,1.053104,2.800000,-0.840000,-0.280000
73.339433,-0.067344,0.285480,0.987712,-0.560000,3.220000,-1.680000
73.347520,-0.025864,0.221552,0.914512,-0.700000,1.400000,-1.120000
73.355607,-0.019032,0.226920,0.922320,0.560000,-0.140000,-0.420000
73.363694,-0.001952,0.274256,1.047248,2.380000,-1.120000,-0.420000
73.371781,-0.031720,0.295728,1.077504,3.080000,0.980000,-0.980000
73.379868,-0.074176,0.244976,0.868152,0.420000,2.660000,-1.120000
73.387955,-0.013664,0.263520,0.943304,0.560000,0.560000,-0.840000
73.396042,-0.014640,0.239120,0.966728,3.080000,-1.820000,-0.280000
73.404129,0.000488,0.312320,1.001864,2.380000,0.000000,-0.840000
73.412216,-0.036112,0.291824,0.985760,-0.420000,1.820000,-1.260000
73.420303,-0.069296,0.227408,0.936472,-0.840000,2.100000,-0.700000
73.428390,0.012688,0.237168,0.909632,1.260000,-1.260000,-0.700000
73.436477,-0.003416,0.305488,1.006744,1.260000,-0.840000,-0.700000
73.444564,-0.047336,0.300120,1.054080,-1.120000,2.660000,-1.120000
73.452651,-0.047824,0.212280,0.929152,-1.120000,1.960000,-1.260000
73.460738,-0.016104,0.223992,0.924272,1.400000,-0.700000,-0.280000
73.468825,0.016592,0.300120,1.061400,3.080000,-0.840000,-0.840000
73.476912,-0.049776,0.287432,1.011136,1.400000,1.400000,-0.700000
73.484999,-0.054168,0.235704,0.903288,0.280000,2.240000,-1.260000
73.493086,-0.011224,0.252296,0.897432,0.560000,0.280000,-0.280000
73.501173,-0.012200,0.269864,1.036512,1.960000,-1.540000,-0.560000
73.509260,-0.037576,0.277184,1.007720,1.680000,0.980000,-0.980000
73.517347,-0.015128,0.271816,0.941840,-0.840000,2.380000,-1.540000
73.525434,-0.061488,0.248392,0.963312,-0.560000,0.980000,-0.700000
73.533521,-0.014152,0.236192,0.915488,2.380000,-1.400000,-0.280000
73.541608,0.017080,0.316224,1.032608,1.260000,-0.140000,-0.700000
73.549695,-0.044896,0.272304,1.031632,-0.560000,2.100000,-1.260000
73.557782,-0.074664,0.230336,0.912560,0.140000,1.680000,-0.700000
73.565869,0.021472,0.248880,0.891576,1.120000,-1.260000,-0.560000
73.573956,-0.008296,0.292312,1.042856,0.980000,-0.560000,-0.700000
73.582043,-0.051728,0.293776,1.057496,0.280000,2.240000,-1.120000
73.590130,-0.041480,0.223992,0.898408,-0.700000,1.820000,-1.260000
73.598217,-0.031720,0.251320,0.897432,-0.140000,-0.280000,-0.280000
73.606304,0.011712,0.275720,1.013576,1.400000,-1.260000,-0.560000
73.614391,-0.034160,0.280112,1.027728,0.140000,1.260000,-0.980000
73.622478,-0.066368,0.263520,0.954040,-1.400000,2.940000,-1.400000
73.630565,-0.027816,0.223992,0.929152,-0.280000,0.420000,-0.980000
73.638652,0.011712,0.264496,0.965752,1.680000,-2.520000,-0.420000
73.646739,-0.007320,0.303536,1.051640,0.000000,1.260000,-1.120000
73.654826,-0.072712,0.264008,0.971120,-0.840000,2.660000,-0.980000
73.662913,-0.057584,0.220088,0.885232,-0.280000,0.700000,-0.560000
73.671000,0.058560,0.272792,0.946720,1.120000,-2.100000,-0.840000
73.679087,-0.030256,0.307440,1.076040,0.280000,0.560000,-0.560000
73.687174,-0.060024,0.253272,0.980880,-1.680000,2.660000,-1.680000
73.695261,-0.028792,0.201544,0.913536,-0.840000,1.540000,-0.700000
73.703348,-0.005368,0.274256,1.018944,2.380000,-1.540000,0.000000
73.711435,-0.006832,0.284504,1.000400,2.380000,-0.700000,-0.700000
73.719522,-0.029280,0.274744,0.952088,-0.280000,2.520000,-1.400000
73.727610,-0.071736,0.258152,0.971120,-0.840000,2.240000,-1.120000
73.735697,-0.043432,0.212280,0.940376,0.560000,-0.700000,0.000000
73.743784,0.030256,0.266448,0.968192,2.240000,-0.980000,-0.700000
73.751871,-0.018544,0.313296,1.038464,1.260000,0.840000,-1.120000
73.759958,-0.068808,0.262056,0.997960,-0.560000,2.940000,-1.400000
73.768045,-0.051240,0.203984,0.896944,0.420000,0.840000,-0.420000
73.776132,0.007320,0.238144,0.923296,2.660000,-1.820000,-0.420000
73.784219,0.013176,0.316224,1.061400,2.380000,-0.140000,-0.700000
73.792306,-0.051728,0.275720,1.027728,1.260000,1.960000,-1.120000
73.800393,-0.069296,0.221064,0.941352,0.700000,2.520000,-1.260000
73.808480,-0.006344,0.255224,0.923296,2.520000,-0.700000,-0.140000
73.816567,-0.005368,0.271328,0.960872,2.800000,-1.540000,-0.560000
73.824654,-0.005856,0.292312,1.021872,2.240000,0.140000,-0.700000
73.832741,-0.046848,0.290848,0.966728,0.000000,2.520000,-1.400000
73.840828,-0.069784,0.228384,0.919392,-1.540000,2.380000,-0.840000
73.848915,0.007808,0.245464,0.946720,1.120000,-1.540000,-0.840000
73.857002,-0.008296,0.292312,1.003328,0.980000,-0.700000,-0.280000
73.865089,-0.024400,0.291336,0.992104,-0.560000,1.400000,-1.400000
73.873176,-0.047824,0.250832,0.948184,-2.660000,2.520000,-1.400000
73.881263,-0.044408,0.214720,0.944280,-0.700000,0.420000,-0.140000
73.889350,0.013664,0.273768,1.026264,2.100000,-1.960000,-0.980000
73.897437,-0.024400,0.287432,0.996984,0.420000,0.840000,-0.700000
73.905524,-0.043920,0.265960,0.990152,-0.840000,2.800000,-1.260000
73.913611,-0.058072,0.211304,0.927200,0.420000,0.420000,-0.700000
73.921698,0.000488,0.264984,0.927200,2.100000,-1.260000,-0.280000
73.929785,-0.006344,0.302560,0.998448,0.700000,-0.140000,-0.840000
73.937872,-0.037576,0.267912,1.004792,-0.980000,1.400000,-0.840000
73.945959,-0.048800,0.226920,0.985272,-0.980000,3.220000,-1.120000
73.954046,-0.014640,0.228872,0.926712,0.980000,-0.560000,-0.560000
73.962133,-0.035136,0.289384,0.973072,2.240000,-1.120000,-0.140000
73.970220,0.008296,0.282064,1.020408,0.700000,0.700000,-1.120000
73.978307,-0.040016,0.267424,1.021872,-0.560000,1.960000,-0.980000
73.986394,-0.059536,0.219112,0.919392,-0.140000,1.820000,-0.980000
73.994481,-0.027328,0.262544,0.915488,1.540000,0.000000,-0.560000
74.002568,-0.000488,0.269376,0.972096,1.540000,-1.820000,-0.420000
74.010655,0.016104,0.277672,1.069696,0.140000,1.120000,-1.260000
74.018742,-0.064904,0.276208,0.976976,0.000000,2.660000,-0.840000
74.026829,-0.055632,0.239120,0.898896,-0.840000,1.120000,-0.980000
74.034916,-0.018056,0.235216,0.947696,0.420000,-0.280000,-0.700000
74.043003,0.020008,0.272304,1.015040,2.380000,-1.820000,-0.420000
74.051090,-0.044896,0.288408,1.058472,-0.700000,1.960000,-1.540000
74.059177,-0.027328,0.239608,0.955992,-0.420000,2.520000,-1.120000
74.067264,-0.073200,0.212768,0.884256,1.540000,0.420000,-0.140000
74.075351,0.021472,0.282064,0.980880,2.380000,-1.820000,-0.840000
74.083438,-0.019520,0.320128,1.034072,2.100000,-0.420000,-0.280000
74.091525,-0.042456,0.238144,0.998936,-1.120000,2.520000,-1.540000
74.099612,-0.023424,0.249368,0.925248,0.000000,1.680000,-1.120000
74.107699,-0.064416,0.226432,0.914512,2.240000,-0.700000,-0.280000
74.115786,0.015616,0.292312,0.967704,1.820000,-1.680000,-0.560000
74.123873,0.016592,0.267424,1.053104,-0.280000,1.540000,-0.840000
74.131960,-0.076616,0.260104,0.970632,-1.400000,3.220000,-1.260000
74.140047,-0.040992,0.243512,0.963800,0.980000,0.980000,-0.980000
74.148134,-0.040992,0.263032,0.931104,2.800000,-1.400000,-0.280000
74.156221,-0.004880,0.265960,0.963312,-1.540000,0.280000,-0.280000
74.164308,0.020496,0.252296,1.110200,-0.280000,0.980000,-1.120000
74.172395,-0.079056,0.224480,0.899384,1.960000,2.240000,-0.560000
74.180482,-0.022448,0.280600,0.882304,2.520000,-0.420000,-0.840000
74.188569,0.008296,0.308416,1.027240,1.400000,-2.100000,-0.280000
74.196656,-0.022936,0.246928,1.026752,-0.840000,2.240000,-0.840000
74.204743,-0.034160,0.256200,0.961360,-0.840000,2.100000,-1.260000
74.212830,-0.097112,0.250832,0.894504,0.140000,0.980000,-0.560000
74.220917,0.053680,0.253272,0.960384,1.680000,-2.240000,-0.700000
74.229004,-0.018544,0.282552,1.092144,0.840000,0.000000,-0.280000
74.237091,-0.039528,0.250832,1.025288,-0.140000,2.660000,-1.680000
74.245178,-0.046848,0.228384,0.869128,1.540000,1.400000,-0.560000
74.253265,-0.049776,0.253760,0.897920,1.540000,-0.140000,-0.840000
74.261352,0.017080,0.283040,1.064816,1.680000,-2.100000,-0.140000
74.269439,-0.019520,0.281088,1.019920,0.980000,1.540000,-0.840000
74.277526,-0.037576,0.259128,0.945256,-1.120000,3.500000,-1.820000
74.285613,-0.078080,0.244976,0.924272,0.280000,0.840000,-0.560000
74.293700,-0.013176,0.248392,0.882792,1.120000,-1.960000,-0.280000
74.301787,0.056608,0.292800,1.065304,-0.280000,-0.980000,-0.560000
74.309874,-0.051240,0.281088,1.071648,-1.260000,2.660000,-1.400000
74.317961,-0.098088,0.214720,0.873032,-0.700000,3.080000,-1.540000
74.326048,0.018544,0.235704,0.861808,0.700000,-1.400000,-0.560000
74.334136,0.003904,0.301096,1.067256,-0.560000,-2.100000,-0.700000
74.342223,-0.025864,0.283040,1.047248,-1.120000,1.680000,-1.540000
74.350310,-0.056120,0.234240,0.920856,-1.820000,3.080000,-1.820000
74.358397,-0.068320,0.236192,0.927688,-0.560000,0.840000,-0.840000
74.366484,-0.009272,0.257176,0.991128,0.840000,-2.660000,-0.140000
