Time [s],lsm6dsv16x_acc_x [g],lsm6dsv16x_acc_y [g],lsm6dsv16x_acc_z [g],lsm6dsv16x_gyro_x [dps],lsm6dsv16x_gyro_y [dps],lsm6dsv16x_gyro_z [dps]
5.072310,0.087352,0.128344,1.045296,-3.220000,-3.220000,-0.840000
5.076376,0.052216,0.134200,1.384456,-5.460000,12.880000,-3.220000
5.080442,-0.100528,-0.087352,1.314672,-0.560000,4.340000,-4.060000
5.084508,0.018056,-0.111264,0.948184,-1.540000,-4.760000,0.280000
5.088574,-0.051728,0.268400,1.204384,-3.640000,11.900000,0.840000
5.092640,-0.008296,0.050264,1.313696,7.000000,-0.560000,-2.800000
5.096706,0.132736,-0.209352,1.085312,-1.260000,-9.800000,-0.140000
5.100772,-0.076128,0.219112,0.864248,-6.580000,10.780000,2.660000
5.104838,0.038064,0.112240,1.335168,5.040000,7.280000,-0.560000
5.108904,-0.022936,-0.119072,1.161928,2.940000,0.420000,-1.540000
5.112971,0.005368,0.090280,1.004792,-2.520000,9.380000,-1.260000
5.117037,0.011712,0.035624,1.279536,2.800000,-0.140000,-0.980000
5.121103,-0.099552,-0.056120,1.201944,2.520000,-4.760000,-0.560000
5.125169,0.105896,0.097600,0.829112,-1.820000,5.600000,-0.140000
5.129235,-0.002440,0.166408,1.472784,0.840000,9.660000,-2.800000
5.133301,-0.098088,0.025864,1.433744,0.980000,3.920000,-3.780000
5.137367,0.028792,-0.163480,0.534848,-0.980000,-7.280000,0.000000
5.141433,0.007320,0.127368,1.199992,-2.940000,4.620000,0.140000
5.145499,0.008784,0.068320,1.370792,0.840000,3.780000,-1.540000
5.149565,0.076616,0.040504,0.955504,0.840000,-1.260000,-1.820000
5.153631,0.029768,0.070760,1.105320,-1.400000,0.700000,-1.820000
5.157697,-0.067832,-0.008296,1.330288,-3.080000,-0.560000,-1.680000
5.161763,-0.032208,-0.058560,0.724680,-3.640000,-6.720000,0.980000
5.165829,0.066368,0.172264,1.153144,-4.760000,9.240000,0.280000
5.169896,0.076128,0.186416,1.460096,-1.680000,5.040000,-2.240000
5.173962,-0.044408,-0.056120,0.982832,-3.220000,-2.660000,-1.820000
5.178028,-0.133224,-0.232776,0.734928,-3.220000,-3.360000,0.980000
5.182094,0.037576,0.136152,1.236592,0.700000,0.140000,-0.140000
5.186160,0.111264,0.282064,1.521584,0.420000,-1.820000,-1.680000
5.190226,0.058560,-0.107360,0.945256,-1.540000,-2.240000,-1.540000
5.194292,-0.134200,0.028304,0.828624,-0.840000,3.080000,-0.700000
5.198358,0.067832,0.011712,1.190720,-2.520000,-1.120000,-0.140000
5.202424,0.082472,-0.010736,1.156560,-4.200000,-1.680000,0.560000
5.206490,0.000976,0.162992,1.040904,-0.420000,4.900000,-0.560000
5.210556,0.041968,0.120536,1.204384,-1.260000,2.800000,-1.540000
5.214622,-0.066368,-0.160064,0.923784,-1.540000,-6.860000,-0.280000
5.218688,-0.019032,-0.083936,0.860344,-4.340000,-1.400000,1.820000
5.222754,0.108336,0.310368,1.407392,-2.100000,5.320000,-1.400000
5.226821,0.089304,0.156160,1.280024,-1.260000,3.500000,-2.940000
5.230887,-0.103944,-0.229848,0.643672,-3.640000,-3.360000,0.000000
5.234953,-0.117608,0.006344,0.992592,-0.840000,-3.780000,2.100000
5.239019,0.140544,0.076616,1.369816,-1.680000,-5.040000,0.980000
5.243085,0.160552,0.096624,1.243912,-5.880000,-6.440000,1.680000
5.247151,-0.068320,0.186416,0.835456,-0.280000,6.860000,-0.140000
5.251217,-0.045872,-0.114192,0.949160,0.000000,6.020000,-2.100000
5.255283,0.015128,-0.156160,1.206824,-2.940000,-9.660000,-0.140000
5.259349,0.127856,0.217160,1.162416,-3.640000,1.260000,1.680000
5.263415,-0.043920,0.282064,1.171688,-1.260000,12.040000,-0.700000
5.267481,-0.073200,-0.073200,1.125816,2.100000,-2.660000,-2.520000
5.271547,0.122488,-0.248392,0.738344,-4.060000,-11.340000,0.560000
5.275613,0.037088,0.185928,1.073112,-3.780000,5.460000,0.280000
5.279679,0.044896,0.200080,1.515240,-1.400000,8.260000,-2.240000
5.283746,-0.012200,0.000976,1.010160,-0.700000,-0.560000,-2.380000
5.287812,-0.082472,-0.058560,0.586576,-1.260000,1.680000,-0.140000
5.291878,-0.057096,0.031232,1.263920,0.700000,-0.420000,0.980000
5.295944,0.108824,0.050752,1.280024,-2.100000,-7.980000,0.840000
5.300010,0.160552,0.135176,0.855464,-5.460000,-3.920000,1.400000
5.304076,-0.104920,0.281576,0.946232,-6.860000,14.000000,-1.120000
5.308142,0.014152,-0.075640,1.095072,-13.440001,0.140000,-2.240000
5.312208,0.013664,-0.199104,0.870592,-21.700001,-5.600000,-1.260000
5.316274,0.161040,0.264496,1.147288,-27.719999,3.780000,-0.700000
5.320340,0.007320,0.296704,1.223416,-24.500000,9.100000,-2.800000
5.324406,-0.084912,-0.087840,0.873032,-21.840000,0.000000,-2.240000
5.328472,0.000976,-0.059536,0.822280,-24.639999,0.140000,-0.840000
5.332538,-0.004880,0.163480,1.193648,-24.920000,-0.280000,-1.960000
5.336604,0.071736,0.003904,1.229760,-29.960001,-6.440000,-0.280000
5.340671,-0.016104,-0.048312,0.647088,-32.340000,3.080000,1.120000
5.344737,-0.062464,0.251320,1.236592,-28.280001,10.780000,-0.700000
5.348803,0.063928,0.109800,1.461072,-26.460001,-0.280000,-2.100000
5.352869,0.088328,-0.214232,0.827160,-33.459999,-8.260000,0.140000
5.356935,-0.028304,0.017080,0.771040,-32.480000,1.960000,0.980000
5.361001,-0.063440,0.277672,1.221952,-26.600000,7.420000,-0.420000
5.365067,0.057096,0.045384,1.325408,-28.280001,-3.360000,-0.560000
5.369133,0.017080,-0.105408,0.870104,-34.580002,0.700000,0.000000
5.373199,-0.060024,0.115168,1.047248,-30.100000,2.100000,-0.420000
5.377265,0.067832,0.051728,1.232200,-27.160000,-4.480000,0.420000
5.381331,0.025376,-0.194712,0.855464,-29.960001,-3.920000,1.120000
5.385397,-0.052704,0.179584,1.115568,-25.900000,2.660000,0.140000
5.389463,0.120048,0.352336,1.277584,-21.700001,3.640000,-2.800000
5.393529,-0.013664,-0.144448,0.978440,-28.559999,-5.320000,-1.540000
5.397596,-0.112728,-0.254248,0.608048,-28.980000,-5.740000,0.980000
5.401662,0.054656,0.185440,1.203408,-25.200001,3.360000,0.000000
5.405728,0.095648,0.242048,1.717760,-26.600000,3.640000,-0.840000
5.409794,0.078080,-0.032696,0.913048,-24.920000,-0.280000,0.140000
5.413860,-0.093696,-0.113704,0.566568,-17.920000,2.380000,-0.840000
5.417926,-0.079544,-0.009272,1.352736,-11.900000,2.240000,-1.680000
5.421992,0.208864,0.039040,1.557208,-8.680000,-6.720000,-0.280000
5.426058,0.087352,-0.023424,0.855464,-3.640000,0.140000,-0.140000
5.430124,-0.286456,0.067344,0.787632,7.140000,6.720000,-1.680000
5.434190,0.038064,-0.013176,1.231224,4.760000,-5.740000,-1.260000
5.438256,0.198128,-0.081496,1.199016,-8.960000,-12.180000,3.080000
5.442322,-0.098088,0.297680,0.901824,-3.360000,7.560000,2.520000
5.446388,-0.010736,0.128832,1.038952,9.380000,11.900000,-1.120000
5.450454,0.054656,-0.254736,1.225368,9.800000,-7.420000,-1.680000
5.454521,0.063928,-0.201056,1.057008,6.580000,-7.980000,1.400000
5.458587,-0.025864,0.307440,1.036512,13.720000,6.440000,0.980000
5.462653,0.024888,0.245952,1.124840,21.139999,7.560000,-3.920000
5.466719,0.090280,-0.188856,0.747616,8.400000,-6.160000,-2.380000
5.470785,-0.006832,0.032208,0.814472,4.340000,1.260000,-1.400000
5.474851,-0.013176,0.125416,1.135576,0.700000,0.980000,-0.840000
5.478917,0.018544,0.061000,0.869616,-0.420000,-2.520000,0.420000
5.482983,-0.024400,0.118096,1.002840,-0.980000,6.160000,1.120000
5.487049,-0.011712,0.097112,1.271240,1.540000,6.860000,-2.380000
5.491115,0.071736,-0.169824,1.131184,-0.140000,-10.780000,-2.520000
5.495181,0.041968,-0.025376,0.842288,-6.160000,-0.980000,0.140000
5.499247,-0.087840,0.251808,0.908168,1.400000,9.380000,-1.120000
5.503313,0.092720,0.056120,1.274168,3.080000,0.840000,-3.080000
5.507379,0.065880,-0.079544,1.009672,-3.500000,-2.100000,-0.840000
5.511446,-0.009760,0.152256,0.963312,-4.200000,2.380000,-0.140000
5.515512,-0.040016,0.002440,1.011136,-3.780000,-0.420000,-0.980000
5.519578,-0.040992,-0.195200,0.820328,-4.200000,-5.740000,0.560000
5.523644,0.122000,0.148840,1.051152,-4.060000,3.080000,1.540000
5.527710,-0.010736,0.374296,1.366888,0.420000,8.120000,-1.960000
5.531776,0.040992,-0.117120,1.111664,-0.280000,-1.960000,-3.220000
5.535842,-0.006344,-0.249856,0.581208,-3.640000,-6.300000,-1.260000
5.539908,-0.029768,0.172752,1.124840,-2.940000,4.060000,-0.140000
5.543974,0.101504,0.100528,1.325896,-1.820000,0.280000,-0.980000
5.548040,0.017568,0.044408,1.006256,-5.320000,-1.120000,-0.140000
5.552106,0.013176,0.101992,0.810568,0.280000,5.880000,-0.700000
5.556172,-0.102968,-0.003416,1.173640,0.420000,3.780000,-3.080000
5.560238,0.075152,-0.168360,1.101416,-2.800000,-11.760000,-2.100000
5.564304,0.060512,0.084912,0.779336,-5.600000,-2.800000,0.840000
5.568371,0.001952,0.273280,1.224392,-1.120000,9.380000,0.840000
5.572437,-0.073200,0.037576,1.242936,2.240000,-0.700000,-0.980000
5.576503,0.092720,-0.243512,0.820328,-3.500000,-7.980000,-0.420000
5.580569,0.023424,0.018544,1.079944,-4.060000,-0.700000,-0.140000
5.584635,0.002440,0.291824,1.238056,-1.260000,-0.140000,-0.420000
5.588701,0.025864,-0.034648,0.792512,-2.940000,-1.400000,1.260000
5.592767,-0.079544,-0.045872,0.872056,-0.420000,1.820000,1.400000
5.596833,0.142008,0.158112,1.416664,0.700000,3.500000,-1.960000
5.600899,0.021472,-0.034160,1.403000,-1.820000,-6.300000,-3.500000
5.604965,-0.017568,-0.147864,0.694424,-5.880000,-6.440000,-0.280000
5.609031,0.004880,0.151280,0.722240,-1.540000,4.900000,-0.140000
5.613097,0.009272,0.255224,1.442040,1.680000,7.560000,-1.820000
5.617163,0.045872,-0.082960,1.093120,0.560000,-3.500000,-0.840000
5.621229,0.003416,-0.119072,0.841800,-3.780000,-4.900000,0.140000
5.625295,-0.029280,0.142984,1.150216,-1.260000,0.980000,-0.560000
5.629362,-0.032208,-0.013664,1.217560,-0.280000,-1.960000,-0.980000
5.633428,0.116632,-0.039040,0.843752,-1.820000,-2.520000,0.280000
5.637494,0.047336,0.264984,1.180960,1.960000,8.680000,-1.680000
5.641560,0.067832,0.140544,1.362008,1.260000,5.040000,-3.080000
5.645626,-0.087840,-0.223992,0.838872,-2.240000,-7.420000,-0.840000
5.649692,-0.107848,-0.144448,0.691496,-2.800000,-3.780000,1.120000
5.653758,0.006344,0.233752,1.273192,0.840000,1.960000,0.980000
5.657824,0.236680,0.198128,1.566968,-1.260000,-1.960000,0.280000
5.661890,0.057096,-0.070760,0.734440,-2.940000,-0.560000,0.140000
5.665956,-0.125416,0.025864,0.821792,2.660000,5.320000,-1.960000
5.670022,0.016104,0.006832,1.253672,1.260000,1.400000,-3.360000
5.674088,0.101992,-0.092720,1.263920,-6.020000,-7.980000,-1.260000
5.678154,-0.040992,0.107360,0.769576,-3.640000,1.540000,0.000000
5.682220,0.048312,0.304024,1.179008,2.100000,11.340000,-0.420000
5.686287,0.024400,0.034648,1.304912,0.140000,5.320000,-1.540000
5.690353,0.001952,-0.261080,0.929152,-3.080000,-7.420000,-0.980000
5.694419,-0.029280,-0.091256,0.973072,-0.700000,-2.660000,-1.680000
5.698485,0.070760,0.305976,1.382016,0.560000,6.020000,-1.540000
5.702551,0.108336,0.132248,1.273192,-0.140000,0.840000,-0.980000
5.706617,-0.036600,-0.071736,0.835456,-4.200000,1.120000,0.420000
5.710683,-0.095160,0.036112,0.826184,-0.700000,7.980000,-1.120000
5.714749,0.057584,0.116144,1.733376,2.520000,1.120000,-2.660000
5.718815,0.184464,0.006344,1.286368,-5.180000,-7.140000,-1.120000
5.722881,0.015128,-0.251320,0.645624,-7.140000,-6.160000,0.700000
5.726947,-0.198128,0.219600,0.867664,3.360000,7.140000,0.420000
5.731013,0.033672,0.268400,1.610400,4.480000,10.080000,0.420000
5.735079,0.177632,-0.059536,1.501088,-4.480000,-5.880000,-0.560000
5.739145,0.181536,-0.126880,0.749568,-6.860000,-4.200000,-2.660000
5.743212,-0.191784,0.115168,0.961848,0.420000,8.120000,-3.500000
5.747278,-0.032696,0.170312,1.311744,4.480000,4.620000,-2.380000
5.751344,0.054656,-0.234240,1.256600,-4.200000,-7.420000,-0.560000
5.755410,0.067832,-0.076128,0.932080,-6.160000,-10.920000,0.840000
5.759476,0.022936,0.351848,1.189256,1.260000,7.140000,-0.420000
5.763542,-0.040992,0.346480,1.530368,4.200000,10.080000,-2.240000
5.767608,0.098576,-0.216184,1.015528,-3.500000,-3.080000,-1.680000
5.771674,-0.006344,-0.387472,0.708088,-6.860000,-9.520000,-1.260000
5.775740,-0.034160,0.237168,1.245376,0.700000,3.640000,-1.820000
5.779806,-0.032208,0.331840,1.545496,4.060000,7.140000,-0.980000
5.783872,0.149816,-0.017568,1.230736,-2.240000,-3.780000,-0.140000
5.787938,-0.005368,-0.151280,0.718336,-5.600000,-5.740000,0.560000
5.792004,-0.066856,0.162016,1.117032,1.400000,6.440000,-0.700000
5.796070,-0.042456,0.185928,1.496696,2.940000,5.740000,-1.820000
5.800137,0.161040,-0.217648,1.189256,-2.660000,-11.340000,-1.540000
5.804203,0.150792,-0.135176,0.845216,-9.380000,-12.740000,0.000000
5.808269,-0.113216,0.252296,0.945744,-1.540000,7.840000,-0.420000
5.812335,-0.150792,0.361120,1.412760,6.860000,12.740000,-1.400000
5.816401,0.130296,-0.170800,1.289296,0.140000,-7.000000,-1.820000
5.820467,0.167384,-0.289384,1.017968,-9.520000,-14.280000,-0.840000
5.824533,-0.060512,0.125416,1.008696,-2.520000,0.280000,-0.700000
5.828599,-0.109800,0.355264,1.228784,4.060000,8.400000,-0.840000
5.832665,0.060024,-0.029768,1.087752,-0.840000,-2.660000,-0.420000
5.836731,0.101016,-0.204472,1.034072,-6.020000,-8.540000,0.560000
5.840797,0.046360,0.115656,1.118496,-1.680000,3.920000,-0.840000
5.844863,-0.116144,0.333792,1.503040,6.720000,9.940000,-3.360000
5.848929,0.075152,-0.137616,0.894016,-2.660000,-5.600000,-0.560000
5.852995,0.114680,-0.319640,0.785680,-8.120000,-15.540000,1.820000
5.857062,-0.121512,0.280600,0.866688,-0.280000,7.420000,1.120000
5.861128,-0.030256,0.345504,1.365424,6.300000,9.800000,-1.540000
5.865194,0.170312,-0.073200,1.334192,-8.540000,-8.680000,-1.960000
5.869260,0.087352,-0.087840,0.637816,-20.860001,-8.820000,-0.280000
5.873326,-0.122488,0.141032,0.774944,-21.000000,6.440000,0.000000
5.877392,-0.007320,0.101992,1.176568,-21.700001,2.240000,-1.820000
5.881458,0.049288,-0.082960,0.958432,-25.900000,-5.600000,0.140000
5.885524,0.041480,0.149816,1.116056,-25.200001,4.340000,0.420000
5.889590,-0.005856,0.186416,1.114104,-20.440001,4.900000,-1.960000
5.893656,0.044896,-0.181048,1.183888,-19.320000,-6.720000,-1.820000
5.897722,0.004392,-0.125416,0.689544,-22.960001,-6.440000,1.540000
5.901788,-0.079056,0.197640,0.908656,-19.600000,4.340000,0.420000
5.905854,0.140056,0.135664,1.442528,-23.660000,2.520000,-2.100000
5.909920,0.143472,0.003416,0.963312,-29.820000,-2.380000,-0.560000
5.913986,-0.206424,0.061488,0.583648,-25.200001,6.440000,-0.280000
5.918053,-0.034160,-0.030744,1.027240,-23.520000,0.980000,-1.260000
5.922119,0.079544,-0.064904,1.180472,-31.920000,-6.580000,0.140000
5.926185,0.089792,0.108824,0.935984,-32.900002,-0.700000,3.220000
5.930251,-0.040016,0.221552,1.011624,-23.660000,8.260000,0.420000
5.934317,-0.004880,-0.009760,1.048224,-24.360001,1.120000,-1.680000
5.938383,0.132736,-0.284992,0.802272,-29.680000,-9.800000,0.560000
5.942449,-0.096624,0.142984,0.852536,-29.260000,1.960000,1.260000
5.946515,0.080032,0.224968,1.338096,-25.900000,6.020000,-0.980000
5.950581,0.082960,-0.005368,1.018456,-30.520000,-0.420000,-0.840000
5.954647,-0.125416,-0.170312,0.629032,-27.299999,0.280000,0.140000
5.958713,-0.051728,0.072224,1.268800,-22.820000,3.080000,-0.980000
5.962779,0.167384,0.004392,1.227808,-22.820000,-7.000000,0.280000
5.966845,0.073200,0.040016,0.925248,-23.240000,-0.280000,1.820000
5.970911,-0.114192,-0.005856,0.823256,-13.300000,6.860000,-0.560000
5.974978,-0.029768,0.017568,1.308816,-3.080000,2.240000,-1.680000
5.979044,0.128832,-0.157136,1.282464,-2.940000,-9.520000,1.260000
5.983110,0.062952,-0.126392,0.832040,1.400000,-3.360000,2.520000
5.987176,-0.128832,0.235704,0.861320,14.840000,10.080000,-1.260000
5.991242,0.007320,0.106872,1.120936,15.400000,0.140000,-1.120000
5.995308,0.189344,-0.194712,0.902312,0.280000,-14.280000,3.220000
5.999374,-0.049288,0.080520,0.680760,3.220000,4.760000,1.960000
6.003440,0.013664,0.220576,1.156072,7.980000,10.220000,-3.360000
6.007506,0.083448,-0.002928,1.228784,5.600000,-6.860000,-2.100000
6.011572,-0.072712,-0.133712,0.666608,2.660000,0.000000,-0.140000
6.015638,-0.060024,0.008296,0.862784,2.380000,-0.280000,-0.140000
6.019704,0.151280,0.119072,1.285880,5.040000,-2.660000,-1.120000
6.023770,0.050264,0.122000,0.897432,-0.560000,3.780000,-0.700000
6.027836,-0.137128,0.098576,0.980392,2.240000,6.440000,-2.240000
6.031903,0.059048,-0.215696,0.866200,-2.520000,-9.520000,-0.980000
6.035969,0.006344,-0.052704,0.744688,-6.580000,-7.000000,1.820000
6.040035,0.025376,0.292312,1.110688,0.000000,8.960000,-0.840000
6.044101,0.128832,0.042944,1.239520,-0.840000,-2.800000,-1.820000
6.048167,-0.059536,-0.109312,0.630008,-2.520000,-2.940000,-0.140000
6.052233,-0.145912,0.003904,0.784216,-1.960000,5.180000,0.280000
6.056299,0.234728,0.015616,1.157536,-3.220000,-8.960000,0.700000
6.060365,0.053192,0.129320,0.950136,-5.320000,2.520000,1.960000
6.064431,-0.157624,0.103456,0.807640,0.980000,9.520000,-1.540000
6.068497,0.140056,-0.162504,0.983320,-0.700000,-7.280000,-2.660000
6.072563,0.016104,-0.027816,0.784704,-6.860000,-3.220000,0.840000
6.076629,-0.037088,0.204472,0.909632,-2.520000,8.540000,-0.280000
6.080695,0.120048,0.019032,1.170224,0.000000,-2.520000,-2.660000
6.084761,-0.048312,-0.094672,0.588528,-1.540000,1.260000,-1.120000
6.088828,-0.149328,0.091744,0.719800,-1.400000,3.500000,0.840000
6.092894,0.203496,-0.048312,1.055544,-4.060000,-9.800000,0.280000
6.096960,0.116144,0.089304,0.703208,-5.740000,0.420000,-1.960000
6.101026,-0.100040,0.180560,0.808616,-0.560000,11.060000,-3.780000
6.105092,-0.000976,-0.222528,0.727608,-3.920000,-9.380000,0.840000
6.109158,0.126880,-0.023424,0.650992,-4.340000,-1.120000,-0.140000
6.113224,0.061488,0.122000,1.099464,-3.640000,5.460000,-2.240000
6.117290,-0.205448,0.067344,0.537288,3.080000,0.280000,0.560000
6.121356,0.111264,-0.010248,0.648064,1.260000,3.920000,-0.700000
6.125422,0.116144,-0.132736,0.630496,-10.220000,-5.460000,1.120000
6.129488,-0.203008,0.266936,0.553880,3.500000,4.060000,-1.260000
6.133554,0.325984,-0.138104,0.923296,-4.760000,-2.940000,-2.100000
6.137620,-0.168848,-0.013664,0.337208,-11.340000,-0.280000,0.840000
6.141686,-0.032208,0.246928,0.847168,8.260000,4.900000,-4.200000
6.145753,0.263520,-0.364048,0.556808,-11.480000,-6.580000,2.660000
6.149819,-0.277184,0.285968,0.621712,0.840000,6.300000,-1.540000
6.153885,0.259128,-0.104432,0.644160,0.140000,-2.660000,-0.700000
6.157951,-0.114192,0.078568,0.496296,-4.760000,6.160000,-0.140000
6.162017,0.122488,-0.034648,0.894016,1.120000,-4.900000,-2.100000
6.166083,-0.147376,0.057584,0.252784,-5.460000,5.320000,0.700000
6.170149,0.148840,0.040504,0.958920,0.420000,-0.700000,-2.660000
6.174215,-0.034648,-0.140544,0.392352,-6.440000,-6.160000,2.520000
6.178281,-0.103456,0.340136,0.676368,5.320000,10.640000,-2.800000
6.182347,0.319152,-0.410408,0.605608,-9.520000,-11.620000,2.520000
6.186413,-0.341600,0.408456,0.513864,3.360000,9.660000,-2.100000
6.190479,0.392352,-0.270840,0.800320,-3.080000,-3.920000,0.000000
6.194545,-0.223016,0.094184,0.308416,-3.920000,0.420000,0.420000
6.198611,0.111752,0.121024,0.997960,2.940000,3.080000,-2.660000
6.202677,0.012200,-0.162992,0.219600,-7.140000,-4.340000,0.700000
6.206744,0.022448,0.222528,0.959896,3.360000,3.920000,-3.920000
6.210810,-0.025376,-0.171288,0.452376,-5.880000,-3.360000,1.820000
6.214876,-0.019032,0.186416,0.603656,2.940000,4.340000,-3.640000
6.218942,0.201544,-0.197152,0.658800,-8.260000,-6.160000,2.800000
6.223008,-0.291824,0.304024,0.550952,7.420000,8.260000,-3.080000
6.227074,0.427976,-0.324032,0.667096,-8.820000,-8.540000,0.980000
6.231140,-0.387960,0.324520,0.489952,1.120000,7.140000,-1.120000
6.235206,0.364048,-0.182024,0.970632,1.820000,-2.520000,-3.080000
6.239272,-0.169824,-0.023912,0.215208,-9.940000,-3.220000,2.660000
6.243338,0.001464,0.307928,1.014552,11.060000,7.980000,-4.760000
6.247404,0.240584,-0.403576,0.523624,-11.480000,-9.660000,3.220000
6.251470,-0.339648,0.442616,0.669536,6.020000,7.840000,-2.800000
6.255536,0.332328,-0.278648,0.719312,-3.360000,-4.760000,0.420000
6.259602,-0.207400,0.153720,0.536312,-3.220000,3.640000,-0.280000
6.263669,0.160552,-0.036112,0.949160,3.640000,-3.640000,-1.820000
6.267735,-0.114192,-0.005368,0.242048,-5.040000,1.680000,1.120000
6.271801,0.130784,0.128344,1.036512,2.380000,-0.420000,-2.240000
6.275867,0.058072,-0.186904,0.619760,-3.640000,-4.060000,1.400000
6.279933,-0.184464,0.271816,0.664168,4.760000,8.820000,-1.540000
6.283999,0.291824,-0.217160,0.833992,-5.040000,-10.500000,0.700000
6.288065,-0.150792,0.114192,0.436272,-0.980000,6.720000,-0.980000
6.292131,0.103944,0.113704,1.080920,3.080000,4.060000,-2.100000
6.296197,0.003904,-0.187392,0.636352,-3.640000,-9.100000,1.400000
6.300263,-0.077592,0.217648,0.712968,2.240000,8.820000,-2.800000
6.304329,0.111752,-0.147376,0.779824,-3.780000,-5.180000,0.980000
6.308395,-0.052704,0.093696,0.539240,1.400000,0.000000,0.700000
6.312461,0.146400,-0.015616,0.969168,0.560000,3.220000,-0.700000
6.316527,-0.051240,0.031232,0.796904,-1.540000,-6.440000,1.400000
6.320594,-0.065880,0.121024,0.725168,4.200000,7.700000,-1.120000
6.324660,0.219600,-0.207400,1.006744,-5.880000,-8.120000,-0.980000
6.328726,-0.276208,0.223504,0.557296,0.140000,-2.660000,-0.980000
6.332792,0.127368,0.057096,0.791536,1.820000,4.620000,-1.960000
6.336858,0.280600,-0.237168,0.954528,-11.480000,-13.020000,-0.560000
6.340924,-0.270840,0.328912,0.608536,4.340000,8.120000,-2.660000
6.344990,0.101504,-0.066368,0.934520,0.980000,1.540000,-0.980000
6.349056,0.113216,-0.164456,0.874008,-9.100000,-12.600000,1.540000
6.353122,-0.255712,0.325984,0.870104,4.480000,3.220000,-0.980000
6.357188,0.125416,-0.111264,0.915976,0.000000,-11.760000,-0.700000
6.361254,0.009760,-0.126880,0.746640,-6.580000,-26.460001,0.840000
6.365320,-0.199104,0.244000,0.809104,0.700000,-14.280000,0.420000
6.369386,0.117120,0.035136,1.136064,0.000000,-27.719999,-0.280000
6.373452,0.017568,-0.153720,0.781776,-4.480000,-41.020000,-0.420000
6.377519,-0.159576,0.085400,0.745176,0.000000,-33.320000,1.400000
6.381585,0.139080,-0.003416,0.994056,-2.380000,-31.780001,4.340000
6.385651,0.126880,-0.070272,1.183400,-1.260000,-31.780001,3.220000
6.389717,-0.051728,0.092720,0.792512,4.480000,-19.180000,1.260000
6.393783,0.092232,0.133224,1.068232,0.980000,-18.200001,1.680000
6.397849,0.069784,-0.076128,0.851560,-3.920000,-19.460001,2.520000
6.401915,-0.024888,0.027328,0.722240,1.820000,-16.100000,0.280000
6.405981,0.024888,0.068320,1.185352,1.400000,-16.379999,-1.120000
6.410047,-0.070272,0.015128,1.037000,-2.100000,-26.880001,0.560000
6.414113,-0.021472,-0.049288,0.538752,-1.820000,-23.799999,2.800000
6.418179,0.135176,0.105408,1.228296,-2.940000,-17.080000,2.520000
6.422245,0.003904,0.140544,1.306376,2.520000,-19.740000,0.980000
6.426311,0.016104,-0.153232,0.730048,2.520000,-18.620001,1.120000
6.430377,-0.032696,-0.021472,0.976000,-1.120000,-15.400000,1.540000
6.434443,0.163480,0.134200,1.307352,0.560000,-18.059999,0.000000
6.438510,0.024888,0.042944,0.958432,-0.980000,-17.780001,0.420000
6.442576,-0.057096,0.082472,0.906216,0.700000,-13.160000,0.000000
6.446642,0.039040,-0.081008,1.148264,-0.140000,-19.740000,-0.140000
6.450708,0.070760,-0.136640,0.976976,-2.100000,-25.480000,2.520000
6.454774,0.199104,0.084912,1.124840,0.420000,-5.600000,1.820000
6.458840,0.080032,0.340136,1.259040,1.260000,11.340000,-1.540000
6.462906,-0.001464,-0.068320,1.059936,3.220000,3.920000,-2.100000
6.466972,-0.081496,-0.203496,0.686616,-0.280000,4.900000,-0.140000
6.471038,-0.015616,0.018544,1.136064,-1.680000,6.860000,-0.700000
6.475104,0.178608,0.197640,1.534760,0.000000,2.660000,-1.820000
6.479170,0.032696,0.130296,1.090680,-2.100000,4.480000,-0.420000
6.483236,-0.119560,0.055144,0.696376,2.380000,13.300000,-1.540000
6.487302,0.032696,-0.170312,1.191696,0.420000,0.980000,-3.220000
6.491368,0.153232,-0.140544,1.403000,-5.320000,-7.000000,-1.820000
6.495435,-0.103456,0.185928,0.897920,-2.660000,5.320000,0.420000
6.499501,-0.073688,0.270352,1.055544,4.200000,12.460000,-0.280000
6.503567,0.012200,-0.020496,1.302960,2.520000,-1.540000,-1.120000
6.507633,0.233264,-0.182512,1.079944,-4.340000,-11.060000,-0.140000
6.511699,-0.112728,-0.011224,0.931104,-1.820000,-0.700000,-0.420000
6.515765,-0.016104,0.149816,1.337608,3.500000,3.500000,-1.260000
6.519831,0.042456,0.017080,1.141432,-1.820000,-4.200000,0.000000
6.523897,0.071736,-0.109800,0.931104,-4.060000,-2.800000,1.400000
6.527963,-0.022448,0.200568,1.064816,-0.420000,6.020000,-0.980000
6.532029,0.029768,0.223504,1.476688,3.220000,2.800000,-3.640000
6.536095,0.092720,-0.133224,1.296128,-2.940000,-10.780000,-2.660000
6.540161,-0.060512,-0.200568,0.610488,-4.620000,-6.860000,0.280000
6.544227,-0.117120,0.079544,1.018944,2.940000,2.660000,-0.140000
6.548293,0.143472,0.133224,1.574776,1.540000,-3.220000,-0.840000
6.552360,0.189344,0.059536,1.220000,-7.980000,-5.320000,0.980000
6.556426,-0.153232,0.121512,0.850096,0.280000,5.600000,0.700000
6.560492,-0.065880,-0.001464,1.052616,4.620000,7.700000,-1.400000
6.564558,0.091256,-0.164944,1.436184,0.700000,-9.380000,-2.100000
6.568624,0.177632,-0.155184,1.158512,-6.160000,-12.740000,-0.420000
6.572690,-0.095160,0.333792,0.816424,-1.820000,2.240000,0.420000
6.576756,-0.077104,0.227408,1.239520,4.200000,8.820000,-0.560000
6.580822,0.021472,-0.150792,1.281976,-1.820000,-4.760000,0.140000
6.584888,0.146400,-0.186904,1.031144,-5.180000,-6.580000,0.980000
6.588954,-0.061488,0.160064,1.216584,0.420000,2.380000,-0.420000
6.593020,0.070760,0.167384,1.193648,2.380000,-0.280000,-2.100000
6.597086,0.057584,-0.214720,0.992104,-4.620000,-8.120000,-0.280000
6.601152,-0.037576,-0.035624,0.916464,-2.940000,1.680000,0.700000
6.605218,-0.091256,0.373808,1.358592,4.480000,11.340000,-0.980000
6.609285,0.145424,0.019520,1.500600,-0.280000,0.280000,-2.240000
6.613351,0.133224,-0.176168,0.889624,-7.700000,-10.640000,-0.560000
6.617417,-0.107848,-0.018544,0.751032,-2.660000,-0.700000,0.560000
6.621483,-0.099064,0.094672,1.335168,1.960000,6.300000,-0.700000
6.625549,0.122976,0.008296,1.400560,-0.560000,-4.620000,-1.260000
6.629615,0.194712,-0.048312,1.107272,-4.900000,-6.020000,0.420000
6.633681,-0.112240,0.305976,0.975512,-1.540000,11.620000,0.140000
6.637747,-0.136152,0.134200,1.138992,5.180000,8.260000,-1.120000
6.641813,0.018544,-0.347944,1.230736,-2.800000,-13.160000,-0.420000
6.645879,0.109312,-0.154696,0.951600,-6.580000,-15.260000,1.120000
6.649945,-0.073688,0.312808,1.038952,-0.420000,-6.860000,1.400000
6.654011,-0.131272,0.234240,1.270264,4.480000,-12.180000,1.120000
6.658077,0.089792,-0.199592,1.240984,-2.940000,-25.059999,1.260000
6.662143,0.076616,-0.106872,0.871568,-5.880000,-23.379999,1.820000
6.666210,0.045872,0.321592,1.354688,3.500000,-10.220000,-0.980000
6.670276,-0.027816,0.095160,1.309792,3.080000,-16.660000,-2.100000
6.674342,0.020496,-0.403576,0.809104,-7.560000,-29.540001,0.700000
6.678408,-0.140056,-0.040504,0.854976,-3.640000,-28.280001,2.520000
6.682474,-0.055144,0.400648,1.326872,5.180000,-20.299999,2.660000
6.686540,0.184952,0.109312,1.373720,-0.420000,-27.580000,1.960000
6.690606,0.088328,-0.152256,1.063352,-2.800000,-34.580002,1.960000
6.694672,-0.000488,0.003904,0.796416,-0.280000,-16.940001,1.260000
6.698738,-0.058560,0.062952,1.315160,3.780000,-8.540000,-0.980000
6.702804,0.080520,-0.118096,1.300032,0.140000,-21.420000,0.560000
6.706870,0.072224,0.017568,0.918416,-1.680000,-17.500000,3.360000
6.710936,-0.022936,0.249368,1.227320,-0.700000,-6.860000,3.360000
6.715002,-0.084424,0.205448,1.134112,4.200000,-12.740000,0.000000
6.719068,0.141520,-0.335256,0.987224,-2.800000,-25.480000,0.000000
6.723135,0.029768,-0.086864,0.970144,-5.320000,-21.420000,0.840000
6.727201,0.063928,0.306952,1.350296,0.560000,-9.240000,-0.560000
6.731267,-0.066856,-0.017568,1.231712,-0.420000,-14.560000,0.280000
6.735333,0.037576,-0.136640,0.828136,-2.240000,-13.580000,1.540000
6.739399,0.042944,0.190320,1.130208,1.400000,-5.320000,-0.140000
6.743465,0.141032,0.145912,1.656272,1.540000,-5.180000,-2.100000
6.747531,0.003416,-0.153232,0.921344,-4.200000,-14.420000,-0.560000
6.751597,-0.057096,-0.162992,0.642696,-3.640000,-9.800000,0.840000
6.755663,-0.055144,0.250832,1.220976,3.640000,1.260000,-0.140000
6.759729,0.237168,0.053192,1.604056,0.700000,-2.800000,-0.420000
6.763795,0.059048,-0.065880,1.117032,-4.480000,-0.280000,-0.420000
6.767861,-0.005856,0.110288,0.892552,1.120000,13.580000,-3.220000
6.771927,-0.058072,0.060512,1.232200,1.260000,5.880000,-2.940000
6.775993,0.036600,-0.170800,0.966728,-3.080000,-6.580000,0.700000
6.780059,-0.096136,-0.101992,0.850584,-3.360000,-3.220000,1.960000
6.784126,-0.007320,0.265472,1.365424,4.480000,2.940000,-0.420000
6.788192,0.190808,0.188856,1.555744,-0.140000,-1.960000,-1.120000
6.792258,0.076616,-0.093696,0.704672,-5.320000,0.140000,0.420000
6.796324,-0.167384,-0.055632,0.772016,1.680000,7.420000,-1.680000
6.800390,0.113704,-0.022936,1.261480,0.840000,3.220000,-3.080000
6.804456,0.077592,-0.004880,1.208288,-6.580000,-5.600000,-0.560000
6.808522,-0.066368,0.147376,0.812520,-1.820000,4.760000,-0.140000
6.812588,-0.112728,0.144936,0.997472,0.560000,7.420000,-2.100000
6.816654,0.102480,-0.127368,1.043344,-0.560000,-5.880000,-2.100000
6.820720,0.055144,-0.054168,0.824720,-2.940000,-9.380000,0.280000
6.824786,-0.042456,0.090768,1.010648,-2.240000,4.480000,0.140000
6.828852,0.091744,-0.056120,0.894504,-0.840000,-1.820000,-0.980000
6.832918,0.078568,0.081496,0.846192,-0.840000,2.100000,-0.560000
6.836984,-0.166896,0.167872,0.859856,-0.280000,9.100000,-1.960000
6.841051,0.109800,-0.225944,0.833016,-2.100000,-11.200000,-0.280000
6.845117,0.064416,0.061976,0.685640,-3.780000,-1.120000,1.260000
6.849183,0.021960,0.138104,1.008208,-0.420000,7.000000,-0.840000
6.853249,-0.013664,-0.088328,0.827160,1.960000,-4.900000,-0.560000
6.857315,-0.094672,0.081984,0.677344,0.560000,5.040000,-0.700000
6.861381,0.125416,-0.024888,0.933544,-3.780000,-1.680000,-1.260000
6.865447,-0.040504,0.028792,0.587552,-2.380000,-2.380000,0.280000
6.869513,0.085400,0.009760,0.673440,-2.520000,2.660000,-2.100000
6.873579,-0.003904,-0.013176,0.774944,-3.500000,-4.200000,0.280000
6.877645,-0.022936,0.103456,0.881328,1.540000,4.200000,0.560000
6.881711,0.171776,-0.220576,0.912560,-3.360000,-2.520000,-0.700000
6.885777,-0.207400,0.171288,0.571936,2.800000,2.940000,0.280000
6.889843,0.050264,0.119072,0.879864,4.060000,8.120000,0.000000
6.893909,0.170312,-0.224480,0.717360,-3.920000,-7.840000,0.280000
6.897976,-0.080520,0.228872,0.695888,2.520000,5.880000,-0.980000
6.902042,0.045384,-0.031720,0.858392,1.120000,0.280000,-0.700000
6.906108,0.065392,-0.117608,0.711016,-3.780000,-7.840000,0.000000
6.910174,-0.063928,0.196176,0.746152,-1.680000,3.780000,-2.660000
6.914240,-0.056608,-0.067832,0.696864,-2.100000,-4.620000,-0.280000
6.918306,0.111264,-0.009760,0.708088,-0.980000,0.000000,0.420000
6.922372,0.105408,-0.039040,1.009672,-4.060000,1.400000,0.000000
6.926438,-0.221064,0.110288,0.644648,6.160000,2.800000,0.840000
6.930504,0.205936,-0.008296,0.756400,2.520000,8.260000,0.420000
6.934570,0.043432,-0.068320,0.823256,-4.200000,-3.640000,0.980000
6.938636,-0.174216,0.192272,0.656848,8.400000,7.000000,-0.420000
6.942702,0.250832,-0.150792,0.854488,-3.080000,-1.820000,-0.420000
6.946768,-0.059536,0.050264,0.760792,-2.520000,-4.480000,-1.400000
6.950834,-0.064416,0.189344,0.813496,1.680000,4.060000,-2.800000
6.954901,0.060024,-0.253272,0.773480,-6.300000,-7.140000,-0.560000
6.958967,-0.095160,0.200080,0.726632,1.120000,-0.420000,0.980000
6.963033,0.197640,0.002440,1.053592,0.140000,3.500000,-0.560000
6.967099,0.053680,-0.146400,0.749568,-0.840000,-1.260000,-0.840000
6.971165,-0.122976,0.215696,0.710040,6.020000,10.640000,-0.840000
6.975231,0.113216,-0.126880,1.002840,-0.420000,0.560000,0.560000
6.979297,-0.052216,-0.047336,0.743224,1.540000,-6.020000,-0.560000
6.983363,0.006832,0.163480,0.831064,1.680000,4.480000,-1.260000
6.987429,0.005856,0.002440,0.950136,-0.140000,-2.520000,-0.140000
6.991495,0.047336,-0.088816,0.645624,-0.280000,-0.980000,0.280000
6.995561,0.105896,0.104432,1.006256,-2.100000,5.460000,-1.540000
6.999627,-0.110288,0.102968,0.846192,3.080000,2.520000,-2.520000
7.003693,0.123952,0.012200,0.724680,0.140000,8.540000,-0.140000
7.007759,0.274256,-0.151768,1.127768,-8.680000,8.120000,-1.960000
7.011826,-0.160552,0.089304,0.852048,2.520000,13.300000,-3.360000
7.015892,-0.015616,0.159576,0.938912,4.060000,26.600000,-1.820000
7.019958,0.202032,-0.213256,1.000400,-9.240000,18.620001,-1.260000
7.024024,-0.126392,0.108824,0.620248,2.240000,21.139999,-4.480000
7.028090,0.091256,0.082472,0.901336,2.240000,26.180000,-3.220000
7.032156,-0.090280,-0.131272,0.910608,-4.200000,11.620000,0.000000
7.036222,0.022448,0.033184,0.713456,3.360000,15.260000,-1.820000
7.040288,0.215208,0.136152,1.118984,-0.980000,20.020000,-3.360000
7.044354,-0.103944,-0.026840,0.839848,-0.560000,16.240000,-3.920000
7.048420,-0.124440,-0.073688,0.582184,0.980000,12.460000,-1.960000
7.052486,0.204960,0.088816,1.129232,-5.460000,14.560000,-0.560000
7.056552,0.000976,0.094184,1.056520,-1.400000,12.740000,-2.240000
7.060618,-0.031720,-0.053680,0.679784,1.540000,16.379999,-1.680000
7.064684,-0.012200,0.000976,0.990640,-0.420000,16.799999,-1.400000
7.068751,0.035624,0.011224,1.037000,-0.280000,11.060000,-0.280000
7.072817,0.121024,0.049776,0.812032,-1.960000,14.840000,-0.420000
7.076883,0.010248,0.085888,1.024800,-3.500000,23.799999,-2.380000
7.080949,-0.142496,-0.029280,0.940376,3.220000,9.100000,-4.480000
7.085015,0.017080,-0.057584,0.695888,-0.980000,6.160000,-1.120000
7.089081,0.062464,0.152744,1.172176,-7.840000,9.100000,0.000000
7.093147,-0.024888,0.052216,1.240496,1.680000,3.780000,-3.500000
7.097213,-0.043920,-0.145424,0.678320,1.540000,-8.820000,-1.540000
7.101279,-0.104920,0.049776,0.783728,-2.240000,-8.540000,2.240000
7.105345,0.019032,0.102480,1.011624,-0.420000,-11.060000,0.140000
7.109411,0.190320,-0.008296,1.169248,-2.940000,-18.900000,-1.120000
7.113477,0.002440,0.134200,0.892064,-1.260000,-5.880000,-0.280000
7.117543,-0.085888,-0.011224,0.982344,4.060000,-2.940000,-1.400000
7.121609,0.090768,-0.193248,0.926712,-3.500000,-14.140000,0.560000
7.125675,0.094672,0.057584,0.992104,-3.500000,-0.420000,1.540000
7.129742,0.036600,0.232288,1.204872,1.120000,10.360000,-0.980000
7.133808,-0.024888,-0.088816,1.140456,0.560000,-2.380000,-2.240000
7.137874,0.047824,-0.151280,0.681248,-3.780000,-7.420000,0.840000
7.141940,-0.044408,0.106384,0.898896,-0.840000,0.140000,1.400000
7.146006,0.079544,0.160064,1.395680,0.420000,3.360000,-1.960000
7.150072,0.218624,-0.061000,1.019432,-3.220000,-6.160000,-0.980000
7.154138,-0.166408,0.092720,0.632936,-1.260000,8.540000,-0.980000
7.158204,-0.060024,-0.053680,1.058960,2.660000,0.700000,-2.380000
7.162270,0.168848,-0.128344,1.115080,-3.920000,-7.700000,0.000000
7.166336,0.004392,0.284992,1.010648,-3.220000,5.460000,1.120000
7.170402,-0.033672,0.166408,1.089704,4.760000,11.760000,-1.400000
7.174468,-0.000976,-0.246440,0.947696,0.700000,-4.060000,-2.240000
7.178534,0.118584,-0.199104,1.014064,-4.060000,-9.660000,0.560000
7.182600,0.020496,0.280600,0.906704,-1.960000,8.820000,-0.700000
7.186667,0.025376,0.223016,1.340536,2.520000,5.740000,-2.660000
7.190733,0.060024,-0.189344,0.912072,-2.800000,-1.400000,-1.680000
7.194799,-0.085888,-0.086864,0.660264,-0.560000,-0.700000,-0.560000
7.198865,-0.037088,0.157624,1.192672,0.700000,2.100000,-0.420000
7.202931,0.194224,-0.020496,1.120936,-4.900000,-6.020000,1.960000
7.206997,-0.066856,0.034160,0.898896,-1.820000,6.580000,1.260000
7.211063,-0.028304,0.168360,1.057008,5.600000,9.100000,-2.520000
7.215129,0.163480,-0.092720,1.273192,0.140000,-4.760000,-2.800000
7.219195,0.019032,-0.122000,0.817400,-8.820000,-5.740000,1.260000
7.223261,-0.057096,0.109800,0.750056,1.400000,4.760000,-0.280000
7.227327,0.012200,0.221552,1.285880,2.940000,5.880000,-2.520000
7.231393,0.192760,-0.089792,1.189744,-2.240000,-7.140000,-0.840000
7.235459,-0.115656,-0.074664,0.705160,-4.760000,0.280000,0.840000
7.239525,-0.050752,0.043920,1.045784,2.800000,1.120000,-0.700000
7.243592,0.151280,-0.018544,1.183888,-1.960000,0.000000,-0.700000
7.247658,-0.004880,0.091744,1.111664,-0.980000,0.840000,0.280000
7.251724,0.033672,0.162504,1.055544,1.680000,10.780000,-1.260000
7.255790,0.015616,-0.085888,0.991616,1.960000,-2.800000,-2.800000
7.259856,0.076616,-0.158600,0.972584,-4.760000,-7.560000,0.140000
7.263922,-0.079056,0.041480,0.721264,-0.840000,1.540000,1.680000
7.267988,0.078080,0.345504,1.471808,1.260000,8.120000,0.560000
7.272054,0.107360,-0.028792,1.251720,-0.840000,-1.680000,-0.420000
7.276120,-0.055632,-0.242048,0.743224,-1.400000,-2.800000,-1.120000
7.280186,0.022936,-0.014640,0.929152,2.940000,0.700000,-2.800000
7.284252,0.122000,0.211792,1.390312,-2.660000,-1.820000,-2.520000
7.288318,0.052704,0.056120,1.161440,-3.360000,-3.500000,-1.260000
7.292384,-0.176656,0.033672,0.716872,0.840000,3.780000,0.000000
7.296450,0.060024,0.009272,1.202920,2.520000,5.180000,-1.260000
7.300517,0.129808,-0.053680,1.609912,-0.980000,-7.140000,-1.540000
7.304583,0.153720,-0.063928,0.897920,-5.600000,-8.400000,0.560000
7.308649,-0.166896,0.080032,0.603656,0.560000,7.420000,0.280000
7.312715,0.029280,0.219600,1.429352,6.020000,8.260000,-1.820000
7.316781,0.096136,0.037576,1.443504,-0.560000,-5.180000,-1.260000
7.320847,0.126880,-0.248880,0.929152,-4.480000,-6.720000,-1.260000
7.324913,-0.048312,0.109800,0.868152,-0.420000,4.200000,-1.680000
7.328979,0.042944,0.189344,1.258064,1.960000,3.220000,-1.400000
7.333045,0.000976,-0.179096,1.075064,-4.060000,-1.820000,0.420000
7.337111,-0.005368,-0.005368,0.969656,-1.680000,2.240000,0.000000
7.341177,0.140056,0.281088,1.410808,4.760000,9.100000,-2.240000
7.345243,0.152256,0.108824,1.480104,1.400000,6.440000,-2.520000
7.349309,0.059048,-0.324520,0.606584,-3.080000,5.320000,0.000000
7.353375,-0.075640,-0.041480,0.782752,1.260000,23.520000,-1.400000
7.357442,0.118096,0.327448,1.532320,5.740000,31.219999,-3.640000
7.361508,0.097600,0.071248,1.527928,2.240000,18.620001,-2.660000
7.365574,-0.058560,-0.198128,0.749568,0.280000,11.060000,-1.120000
7.369640,-0.167872,-0.017568,0.684176,4.620000,9.940000,-0.980000
7.373706,0.167872,0.063928,1.491328,3.220000,2.660000,-0.840000
7.377772,0.070272,-0.087840,1.458144,1.680000,3.080000,-0.560000
7.381838,0.091256,-0.004392,0.881816,9.660000,9.800000,-1.260000
7.385904,-0.038552,0.291824,1.067256,19.040001,25.480000,-2.800000
7.389970,-0.038064,0.001464,1.300520,13.440001,17.080000,-3.080000
7.394036,0.078568,-0.325984,0.976000,4.480000,-8.260000,0.000000
7.398102,-0.072712,-0.009760,0.865712,4.340000,1.260000,0.700000
7.402168,-0.070272,0.355752,1.228296,7.140000,5.600000,1.400000
7.406234,-0.028792,0.228872,1.292712,10.780000,-6.300000,1.540000
7.410300,0.056608,-0.289384,1.076528,8.680000,-20.580000,1.120000
7.414367,0.203496,-0.159088,1.067744,9.240000,-17.219999,0.420000
7.418433,0.020496,0.403576,1.288808,15.820000,2.380000,-1.960000
7.422499,-0.024400,-0.000976,1.236104,16.660000,-2.940000,-2.380000
7.426565,0.062464,-0.305488,0.712968,6.020000,-10.220000,1.820000
7.430631,0.025864,0.114192,1.000888,9.660000,3.500000,0.700000
7.434697,0.005368,0.464088,1.659688,16.520000,11.060000,-2.660000
7.438763,0.167384,-0.120048,1.332728,11.060000,-5.180000,-2.240000
7.442829,0.070760,-0.430416,0.668072,4.340000,-16.660000,0.140000
7.446895,-0.072712,0.208376,0.860344,11.060000,4.060000,-0.140000
7.450961,-0.046848,0.235216,1.461560,14.980000,9.240000,-1.540000
7.455027,0.197152,-0.076616,1.459608,9.660000,-3.360000,-1.680000
7.459093,0.075152,-0.074664,0.865712,6.860000,1.120000,-0.840000
7.463159,-0.070760,0.226920,1.077992,12.460000,10.780000,-0.700000
7.467225,-0.075640,0.106872,1.248792,13.440001,0.700000,-1.540000
7.471291,0.080520,-0.385520,1.061400,6.440000,-12.040000,-0.840000
7.475358,0.142496,-0.107848,1.079944,6.020000,-8.680000,0.280000
7.479424,0.047336,0.491416,1.235616,13.440001,12.460000,-1.400000
7.483490,-0.001464,0.178608,1.414224,12.880000,7.980000,-1.820000
7.487556,0.049776,-0.268400,0.745176,5.180000,-5.320000,-0.840000
7.491622,-0.056120,-0.104920,0.794952,4.480000,1.680000,-0.700000
7.495688,0.002928,0.208864,1.373232,9.240000,4.760000,-1.820000
7.499754,0.101504,-0.030256,1.366400,5.320000,-5.740000,-1.680000
7.503820,0.053192,-0.071248,0.769576,-1.120000,-9.520000,1.400000
7.507886,0.005856,0.213744,0.795440,3.220000,10.220000,1.260000
7.511952,-0.067344,0.201056,1.338096,7.840000,10.080000,-2.380000
7.516018,0.168848,-0.233752,1.208288,0.980000,-8.400000,-1.820000
7.520084,0.127856,-0.081008,0.785192,-5.180000,-3.080000,-0.140000
7.524150,-0.140544,0.183488,1.114592,-0.420000,8.540000,-0.700000
7.528216,0.011712,0.052216,1.170224,2.800000,0.560000,-2.240000
7.532283,0.137128,-0.093696,1.006256,-5.460000,-2.940000,-0.140000
7.536349,0.000000,0.160552,1.090192,-1.680000,4.620000,0.140000
7.540415,-0.027328,0.165432,1.254648,2.100000,2.240000,-1.540000
7.544481,0.145912,-0.309392,0.879376,-4.900000,-9.940000,0.280000
7.548547,-0.066368,-0.020496,0.796416,-5.180000,0.980000,1.680000
7.552613,0.020984,0.224968,1.175592,4.760000,10.920000,-0.560000
7.556679,0.102968,0.116632,1.480104,0.280000,0.700000,-2.240000
7.560745,0.154208,-0.168360,0.889624,-4.760000,-7.700000,-0.700000
7.564811,-0.190320,0.056120,0.508984,-0.140000,2.660000,-0.560000
7.568877,0.043920,-0.019520,1.134112,2.100000,-1.680000,-1.960000
7.572943,0.167384,-0.037576,1.113616,-5.600000,-6.440000,0.140000
7.577009,0.004392,0.192760,0.847168,-4.760000,3.360000,0.140000
7.581075,-0.019032,0.080032,0.948184,1.260000,9.940000,-2.940000
7.585141,0.078568,-0.236192,0.629520,-0.420000,-5.600000,-1.400000
7.589208,-0.053192,0.146888,0.700768,-2.800000,0.980000,0.980000
7.593274,0.124928,0.068320,1.107272,-4.200000,1.120000,-0.700000
7.597340,0.120048,-0.104920,0.864736,-4.620000,-5.880000,-1.260000
7.601406,-0.196176,0.204472,0.631472,0.700000,9.940000,-2.940000
7.605472,0.128344,-0.150304,0.911584,-4.760000,-0.140000,-0.280000
7.609538,0.063928,-0.139568,0.385032,-7.000000,0.560000,1.120000
7.613604,0.093208,0.246440,0.865224,1.260000,13.300000,-2.520000
7.617670,0.003416,-0.020008,0.769576,0.000000,6.300000,0.560000
7.621736,-0.055632,0.049288,0.514352,1.400000,13.580000,-2.660000
7.625802,0.250344,-0.182512,0.704672,-7.700000,2.660000,-0.280000
7.629868,-0.296704,0.261568,0.483608,2.380000,18.620001,-1.680000
7.633934,0.399184,-0.231800,0.801784,-3.080000,7.420000,-2.380000
7.638000,-0.223504,0.118584,0.276696,-6.860000,14.420000,0.840000
7.642066,0.131272,0.142496,0.919880,8.960000,18.900000,-5.320000
7.646133,0.161528,-0.383568,0.355264,-14.280000,6.300000,2.100000
7.650199,-0.259128,0.504592,0.761768,8.960000,26.880001,-4.760000
7.654265,0.441152,-0.441152,0.498736,-6.580000,9.380000,-0.560000
7.658331,-0.277184,0.382592,0.582672,-1.120000,30.100000,-3.220000
7.662397,0.274744,-0.220088,0.640256,0.560000,20.719999,-3.220000
7.666463,-0.147376,0.059536,0.417728,-6.300000,27.299999,-1.540000
7.670529,0.103944,0.039528,0.785680,2.380000,19.460001,-3.360000
7.674595,-0.082960,-0.034648,0.370392,-4.620000,23.379999,-1.400000
7.678661,0.094672,0.009272,0.852536,-1.960000,11.060000,-1.820000
7.682727,-0.164944,0.083448,0.101992,0.000000,20.440001,-1.400000
7.686793,0.319152,-0.083936,0.994544,-1.260000,12.880000,-2.520000
7.690859,-0.183488,0.021472,0.147376,-5.880000,15.540000,-0.420000
7.694925,0.085400,0.204472,0.997960,6.160000,24.219999,-5.320000
7.698991,0.092232,-0.375272,0.401624,-10.500000,6.020000,1.540000
7.703058,-0.227896,0.549488,0.668072,8.960000,27.020000,-5.320000
7.707124,0.363560,-0.524600,0.624640,-10.080000,1.960000,-0.140000
7.711190,-0.417240,0.407480,0.533384,2.800000,16.940001,-3.220000
7.715256,0.251808,-0.229848,0.657824,-0.980000,1.540000,-2.940000
7.719322,-0.080032,0.038064,0.465552,-5.600000,-5.600000,0.000000
7.723388,0.013664,0.179096,0.838384,4.900000,5.880000,-3.920000
7.727454,0.061488,-0.235216,0.659288,-5.320000,-10.640000,1.820000
7.731520,-0.038064,0.166408,0.576328,3.500000,0.140000,-2.940000
7.735586,0.123952,-0.075152,0.806664,-5.040000,-0.980000,0.560000
7.739652,-0.065392,0.095648,0.564128,3.220000,1.540000,-0.980000
7.743718,0.144448,-0.081984,0.941352,-3.080000,-2.800000,-0.420000
7.747784,-0.211792,0.081984,0.521672,0.560000,-7.420000,1.540000
7.751850,0.172752,0.047824,0.783240,2.100000,1.820000,-1.820000
7.755916,0.152744,-0.142008,0.766648,-8.960000,-9.520000,0.700000
7.759983,-0.230336,0.264496,0.620736,7.000000,3.360000,-1.400000
7.764049,0.314272,-0.165432,1.045784,-1.680000,-1.680000,-1.400000
7.768115,-0.084912,-0.046360,0.678320,-7.000000,-5.460000,0.420000
7.772181,-0.181048,0.294264,0.783728,8.120000,12.460000,-2.520000
7.776247,0.332816,-0.311344,0.834968,-6.020000,-7.000000,0.560000
7.780313,-0.180072,0.184952,0.603168,0.840000,2.240000,-0.140000
7.784379,0.063928,0.102480,0.978440,5.600000,6.020000,-1.260000
7.788445,0.218624,-0.238632,0.734440,-7.280000,-9.100000,0.140000
7.792511,-0.114192,0.234728,0.779824,0.700000,7.140000,-1.400000
7.796577,0.092232,-0.028304,1.065792,1.400000,0.280000,-0.140000
7.800643,-0.019520,-0.113704,0.722728,-1.120000,-4.900000,0.700000
7.804709,-0.008784,0.174216,0.904264,4.480000,9.380000,-1.120000
7.808775,0.116144,-0.025376,1.180472,-2.240000,-0.140000,-0.420000
7.812841,-0.068808,-0.108824,0.631472,3.360000,-1.260000,-1.400000
7.816908,0.041968,0.104920,0.826672,2.240000,6.300000,-0.560000
7.820974,0.049776,0.001464,1.058472,-2.520000,-2.100000,-0.700000
7.825040,-0.049776,0.015616,0.744688,3.220000,-4.060000,-1.820000
7.829106,0.139568,-0.005368,0.828136,-2.240000,1.260000,-0.980000
7.833172,-0.067344,0.066368,0.986736,0.560000,-0.280000,-1.120000
7.837238,0.065880,-0.035136,0.891576,0.280000,-3.780000,1.260000
7.841304,0.067832,0.006344,0.956480,-2.660000,4.760000,0.560000
7.845370,-0.024400,0.026352,1.148752,7.560000,1.400000,-2.940000
7.849436,0.028792,-0.003416,0.815936,8.260000,-1.540000,0.140000
7.853502,0.131760,0.003904,0.743712,-0.700000,2.800000,1.540000
7.857568,-0.028304,0.096136,1.249768,6.440000,-0.840000,-3.780000
7.861634,-0.055144,-0.033672,0.805688,6.300000,-1.260000,-1.260000
7.865700,0.050752,-0.036112,0.765184,2.800000,0.980000,3.220000
7.869766,0.097600,0.028304,1.187304,6.860000,-1.260000,0.840000
7.873832,0.033184,-0.023912,0.954040,9.380000,-0.280000,-0.840000
7.877899,-0.075640,0.088816,0.711992,10.780000,3.780000,0.700000
7.881965,0.065392,0.030256,1.107272,14.000000,0.980000,0.000000
7.886031,0.167872,-0.228384,1.037000,10.920000,-8.120000,0.280000
7.890097,-0.083936,0.132736,0.766648,20.580000,-0.980000,-0.980000
7.894163,-0.094184,0.175192,1.070184,26.600000,7.000000,-2.800000
7.898229,0.201544,-0.198128,0.944768,14.140000,-6.580000,-0.840000
7.902295,0.031720,0.075152,0.724192,9.800000,0.140000,-0.280000
7.906361,-0.024888,0.264496,1.161928,15.120000,10.640000,-3.080000
7.910427,0.115168,-0.207888,0.987712,9.380000,-6.860000,-0.840000
7.914493,-0.160552,-0.037576,0.630496,7.700000,1.120000,0.840000
7.918559,0.053192,0.120536,1.228784,12.600000,3.080000,0.000000
7.922625,0.193248,0.030744,1.313208,10.360000,-5.880000,-0.280000
7.926691,-0.024888,-0.059048,0.807152,11.760000,-2.800000,0.700000
7.930757,-0.156648,0.041968,0.830088,16.660000,5.740000,-0.140000
7.934824,0.185440,-0.032208,1.198040,11.760000,-5.320000,0.840000
7.938890,0.122976,0.053680,1.018944,5.460000,-2.380000,1.960000
7.942956,-0.052704,0.168848,0.902800,11.760000,11.200000,-0.420000
7.947022,-0.005368,-0.022936,1.008208,13.580000,-1.680000,-2.100000
7.951088,0.042944,-0.184464,0.996496,6.020000,-9.520000,-0.840000
7.955154,0.033672,-0.014152,0.837408,5.880000,0.980000,1.120000
7.959220,-0.036112,0.357704,1.415688,12.600000,5.460000,-0.420000
7.963286,0.131760,0.047336,1.179496,12.180000,-0.420000,-2.380000
7.967352,-0.110776,-0.343552,0.564616,6.860000,-0.840000,-0.840000
7.971418,-0.009760,0.057096,1.124352,6.300000,-6.720000,0.700000
7.975484,0.272304,0.250832,1.393240,4.060000,-2.100000,-0.840000
7.979550,-0.048800,0.102968,0.928664,-0.420000,5.460000,-1.400000
7.983616,-0.061488,-0.019032,0.710040,3.780000,4.200000,-0.420000
7.987682,0.013176,-0.001464,1.271728,4.760000,-0.420000,-1.680000
7.991749,0.141520,-0.138592,1.234640,0.840000,-11.480000,-0.980000
7.995815,-0.058560,-0.025864,0.849120,-0.420000,-2.100000,1.400000
7.999881,0.081008,0.252784,1.037976,0.980000,11.480000,1.260000
8.003947,-0.100040,0.052216,1.532808,6.300000,2.240000,-1.820000
8.008013,0.171288,-0.185928,0.990640,-0.700000,-8.540000,-1.120000
8.012079,0.037576,0.034160,0.833992,-4.480000,-4.480000,0.280000
8.016145,-0.069784,0.209352,1.319552,-0.980000,2.240000,-0.700000
8.020211,-0.003416,-0.105408,0.909632,-2.380000,-4.340000,-0.980000
8.024277,0.107848,-0.107848,1.044320,-6.860000,-0.280000,0.560000
8.028343,0.021472,0.323544,1.446920,-2.940000,8.680000,-1.260000
8.032409,0.113216,0.115656,1.427888,-2.240000,2.940000,-2.800000
8.036475,-0.013176,-0.345992,0.927200,-7.840000,-9.520000,-1.680000
8.040541,-0.069296,-0.086376,0.743224,-3.640000,-5.880000,0.140000
8.044607,-0.061976,0.283040,1.348344,4.480000,6.020000,-0.280000
8.048674,0.222040,0.052216,1.531832,-0.980000,-1.260000,-1.120000
8.052740,0.069784,-0.086864,0.956968,-5.740000,-6.300000,-0.560000
8.056806,-0.052704,0.052704,0.908168,0.420000,4.620000,-0.140000
8.060872,-0.154208,0.142984,1.286856,2.520000,10.080000,-0.840000
8.064938,0.121024,-0.238632,1.281000,0.420000,-11.340000,-0.700000
8.069004,0.201056,-0.164456,1.006744,-6.720000,-15.540000,1.680000
8.073070,-0.013176,0.327936,0.932080,-0.980000,7.980000,1.120000
8.077136,-0.119560,0.311832,1.546472,8.400000,11.340000,-1.120000
8.081202,0.074664,-0.217160,1.178032,-0.140000,-4.760000,-1.120000
8.085268,0.114192,-0.323056,0.808616,-7.140000,-8.960000,-0.280000
8.089334,-0.008784,0.208864,1.152656,0.280000,4.760000,-1.820000
8.093400,-0.020984,0.245952,1.303448,2.800000,4.480000,-2.100000
8.097466,0.051728,-0.152744,1.193160,-2.660000,-8.960000,0.000000
8.101532,0.041968,-0.088816,0.881816,-6.020000,-1.120000,1.680000
8.105599,-0.105408,0.290360,1.134112,4.480000,11.760000,-1.120000
8.109665,0.118584,0.029280,1.611864,5.180000,-1.820000,-3.220000
8.113731,0.203984,-0.239120,0.932568,-7.280000,-12.880000,-0.980000
8.117797,-0.073688,-0.084912,0.865712,-5.320000,-0.420000,0.700000
8.121863,-0.215696,0.322568,1.035536,7.560000,12.320000,-0.420000
8.125929,0.163480,0.032208,1.566968,0.980000,-0.420000,-0.560000
8.129995,0.170800,-0.153720,1.186328,-8.260000,-9.800000,0.140000
8.134061,0.008296,0.165920,0.874496,-2.520000,2.520000,0.280000
8.138127,-0.155184,0.091256,1.129720,6.440000,10.080000,-1.680000
8.142193,0.096624,-0.202032,1.222928,0.140000,-7.000000,-0.980000
8.146259,0.116144,-0.186904,0.974536,-7.140000,-9.240000,0.420000
8.150325,-0.058560,0.262056,1.130696,0.980000,5.320000,-0.280000
8.154391,-0.078568,0.386984,1.409344,6.720000,7.280000,-2.240000
8.158457,0.156160,-0.199104,1.181936,-2.520000,-9.940000,-0.700000
8.162524,0.020008,-0.275232,0.738344,-6.020000,-13.020000,0.980000
8.166590,-0.060512,0.067344,0.894992,1.400000,1.540000,-0.140000
8.170656,-0.023424,0.154696,1.611376,3.220000,-1.400000,-1.260000
8.174722,0.189832,0.019520,1.359080,-2.100000,-11.200000,-0.560000
8.178788,-0.030744,0.000000,0.819352,-0.280000,-7.980000,1.120000
8.182854,-0.125416,0.058072,0.867176,7.280000,4.060000,-1.260000
8.186920,0.048800,0.021472,1.545496,9.660000,-6.020000,-2.940000
8.190986,0.169336,-0.150304,1.408856,2.940000,-19.600000,-0.700000
8.195052,0.000976,-0.119560,0.798368,-1.960000,-8.680000,3.080000
8.199118,-0.194712,0.296216,0.728584,9.100000,8.260000,1.680000
8.203184,0.060512,0.165920,1.596736,12.320000,-0.980000,-0.140000
8.207250,0.196176,-0.141520,1.321504,-0.840000,-16.240000,0.840000
8.211316,0.074176,-0.181048,0.875472,2.100000,-11.760000,-0.280000
8.215382,-0.124928,0.180560,1.118984,8.820000,0.700000,-2.800000
8.219449,0.040016,0.108824,1.248304,6.860000,-5.320000,-1.960000
8.223515,0.029768,-0.268888,1.067744,-1.120000,-16.240000,1.540000
8.227581,0.007320,0.004880,0.827160,2.940000,-4.620000,1.260000
8.231647,0.015128,0.352824,1.660176,10.220000,5.320000,-1.120000
8.235713,0.111752,0.156160,1.423008,5.180000,-5.180000,-1.540000
8.239779,0.045384,-0.324032,0.762256,-0.840000,-15.120000,-0.420000
8.243845,-0.224480,-0.139568,0.698328,4.900000,-6.020000,-0.840000
8.247911,0.081984,0.230824,1.515240,8.820000,-3.500000,-0.700000
8.251977,0.186416,0.020984,1.648464,0.840000,-12.040000,0.560000
8.256043,0.014152,-0.083936,0.701744,-1.960000,-10.780000,2.240000
8.260109,-0.166408,0.167872,0.838384,3.220000,0.280000,1.960000
8.264175,0.007808,0.259128,1.432280,4.620000,2.520000,0.000000
8.268241,0.174216,-0.164456,1.567944,-3.640000,-13.720000,-0.700000
8.272307,0.069784,-0.292800,0.801296,-5.040000,-15.120000,-0.420000
8.276373,0.122976,0.126880,1.004792,-1.820000,1.120000,-0.700000
8.280440,-0.093208,0.340136,1.470344,0.560000,9.100000,-1.400000
8.284506,0.018544,-0.081008,1.081408,-0.980000,-0.560000,-0.420000
8.288572,-0.048800,-0.178608,0.899384,-2.940000,1.260000,0.420000
8.292638,0.084912,0.217160,1.214144,1.540000,10.640000,-2.100000
8.296704,0.088816,0.128832,1.767536,1.960000,-1.820000,-2.940000
8.300770,0.032696,-0.275232,0.898408,-6.860000,-13.580000,0.140000
8.304836,-0.103456,-0.177632,0.607560,-4.200000,-3.780000,1.260000
8.308902,-0.084912,0.344528,1.341024,5.740000,6.020000,-0.140000
8.312968,0.246440,0.169336,1.643584,0.560000,2.380000,-0.980000
8.317034,0.037088,-0.254248,1.028216,-5.600000,-6.720000,-0.840000
8.321100,-0.033672,0.068808,0.821304,1.960000,4.200000,-1.960000
8.325166,-0.110776,0.255224,1.469368,3.360000,8.680000,-1.260000
8.329232,0.084912,-0.145424,1.212192,-2.660000,-8.960000,0.700000
8.333298,0.075640,-0.328912,0.803248,-5.320000,-13.580000,1.540000
8.337365,-0.016592,0.134200,1.028704,0.560000,2.800000,0.700000
8.341431,0.099064,0.422608,1.737768,5.600000,9.520000,-1.400000
8.345497,-0.005856,0.013664,1.391776,-2.380000,-0.980000,-0.700000
8.349563,0.038064,-0.306952,0.482632,-1.960000,-6.860000,-0.980000
8.353629,-0.100040,0.077592,0.983320,1.400000,4.200000,-1.680000
8.357695,0.080520,0.137128,1.567456,0.280000,0.140000,-1.960000
8.361761,0.074176,-0.141520,1.271728,-5.180000,-12.040000,-0.420000
8.365827,0.010736,-0.069296,0.730048,-5.180000,-3.360000,1.120000
8.369893,-0.059536,0.342088,1.193648,1.540000,12.460000,0.420000
8.373959,0.051240,0.164944,1.471808,3.640000,4.900000,-2.100000
8.378025,0.099552,-0.348432,1.166320,-4.060000,-10.500000,-1.960000
8.382091,-0.021960,-0.176168,0.796904,-3.220000,-7.140000,-1.540000
8.386157,0.020008,0.326472,1.354688,1.680000,6.720000,-1.820000
8.390223,-0.026840,0.131272,1.347856,-0.560000,0.560000,-0.420000
8.394290,0.037088,-0.152744,0.722240,-3.780000,-6.020000,1.540000
8.398356,-0.061976,-0.040504,1.001864,-2.520000,2.520000,1.680000
8.402422,0.120048,0.305976,1.642120,4.480000,5.460000,-1.820000
8.406488,0.081496,-0.018544,1.484984,-0.700000,-5.180000,-2.240000
8.410554,0.071248,-0.395280,0.525088,-7.980000,-10.360000,0.140000
8.414620,-0.123952,0.194224,0.768600,0.840000,4.200000,-0.420000
8.418686,-0.026352,0.323056,1.571360,4.200000,11.200000,-1.680000
8.422752,0.126880,-0.082960,1.509384,-4.900000,-4.200000,-1.400000
8.426818,0.049288,-0.231800,0.787632,-5.180000,-7.280000,-1.400000
8.430884,-0.071736,0.274256,1.030656,0.140000,2.100000,-1.960000
8.434950,-0.078568,0.106872,1.271728,-0.700000,-2.660000,-1.260000
8.439016,-0.036112,-0.352824,1.011136,-3.640000,-23.520000,0.000000
8.443082,0.090768,-0.122488,0.918416,-5.880000,-25.900000,1.820000
8.447148,-0.013664,0.427488,1.171688,2.240000,-11.340000,1.680000
8.451215,-0.083448,0.272304,1.629920,2.520000,-12.600000,0.980000
8.455281,0.095160,-0.352336,0.903288,-4.340000,-28.559999,2.100000
8.459347,0.022448,-0.223992,0.711016,-4.480000,-24.920000,1.820000
8.463413,0.028792,0.286456,1.298568,0.700000,-9.380000,1.400000
8.467479,-0.078568,0.177144,1.276608,0.560000,-18.340000,1.820000
8.471545,0.159576,-0.209840,1.162904,-4.620000,-31.920000,2.240000
8.475611,-0.014640,0.013664,0.836432,-5.880000,-21.980000,2.240000
8.479677,-0.085400,0.274256,1.184864,5.040000,-9.520000,-0.840000
8.483743,0.096136,-0.047336,1.483032,0.280000,-27.440001,-1.960000
8.487809,0.157136,-0.250832,0.807640,-10.640000,-35.000000,1.820000
8.491875,-0.150304,0.060024,0.815936,-4.900000,-21.980000,3.920000
8.495941,-0.047336,0.307928,1.199992,4.620000,-10.500000,1.680000
8.500007,0.073688,0.000976,1.505480,0.840000,-23.379999,-0.280000
8.504073,0.232288,-0.267912,1.111664,-7.420000,-33.180000,1.120000
8.508140,-0.087352,0.132736,0.740296,-3.920000,-18.620001,1.400000
8.512206,-0.101016,0.130296,1.173152,4.340000,-13.020000,0.140000
8.516272,0.045872,-0.128832,1.226344,-0.420000,-24.639999,0.700000
8.520338,0.197640,-0.052704,1.079944,-6.580000,-23.940001,2.660000
8.524404,-0.150792,0.302560,1.076528,0.840000,-13.580000,1.680000
8.528470,0.056608,0.111752,1.271240,2.380000,-14.980000,0.420000
8.532536,0.109312,-0.262056,0.946720,-5.600000,-26.460001,2.800000
8.536602,-0.017080,-0.121512,0.894504,-3.640000,-16.379999,4.060000
8.540668,0.012688,0.221552,1.126792,2.660000,-0.560000,1.400000
8.544734,0.121512,0.160064,1.596736,0.000000,-7.980000,-0.840000
8.548800,0.159576,-0.081984,0.962336,-4.760000,-15.260000,0.000000
8.552866,-0.203984,-0.041480,0.593408,-2.380000,-9.520000,0.700000
8.556932,-0.058560,-0.012688,1.102880,3.640000,-10.780000,-0.840000
8.560998,0.143472,0.001464,1.508896,-3.360000,-19.460001,-0.280000
8.565065,0.183488,0.018056,0.937936,-5.740000,-16.660000,1.820000
8.569131,-0.183000,0.281088,0.956480,1.260000,-4.480000,0.280000
8.573197,-0.012200,0.005368,1.109224,4.060000,-6.720000,-2.380000
8.577263,0.055144,-0.292312,1.118496,-3.360000,-26.460001,-0.560000
8.581329,0.064904,-0.027328,1.084824,-3.220000,-18.900000,2.100000
8.585395,-0.076128,0.276696,1.024800,2.380000,-5.740000,1.400000
8.589461,0.102968,0.084912,1.317112,2.380000,-9.800000,1.260000
8.593527,0.065392,-0.127856,0.949648,-2.240000,-13.020000,2.660000
8.597593,-0.047336,-0.001464,0.828624,-0.140000,-7.560000,0.840000
8.601659,0.035136,0.053680,1.302960,4.620000,-9.380000,-2.660000
8.605725,0.079544,-0.014152,1.104832,-3.080000,-18.340000,-0.560000
8.609791,0.000976,-0.000488,0.636352,-4.200000,-10.920000,2.240000
8.613857,-0.119560,0.161528,1.159000,5.460000,-1.680000,-0.700000
8.617923,0.205936,-0.001464,1.400072,1.540000,-10.360000,-2.240000
8.621990,0.086376,-0.125416,0.719312,-5.040000,-9.940000,0.280000
8.626056,-0.133712,0.135176,0.920856,-3.780000,1.820000,1.260000
8.630122,0.081496,-0.053680,1.008696,1.120000,-1.260000,-1.260000
8.634188,0.085888,0.016104,0.927200,0.140000,-2.800000,0.420000
8.638254,-0.000976,0.170312,1.102392,-0.420000,6.580000,-0.980000
8.642320,0.072712,-0.094184,1.048712,-0.980000,1.540000,-1.260000
8.646386,-0.016104,-0.088328,0.538264,-1.820000,6.020000,0.000000
8.650452,0.053680,0.177632,1.016992,-1.820000,16.799999,-0.700000
8.654518,-0.026352,0.064904,1.207800,0.140000,9.100000,-2.660000
8.658584,-0.071248,-0.133712,0.539728,-0.560000,-2.520000,-0.560000
8.662650,-0.000488,-0.014152,0.894992,-3.780000,-4.760000,1.820000
8.666716,0.035624,0.115656,1.039928,-2.380000,-0.840000,-0.560000
8.670782,0.184464,-0.015616,0.847656,-0.840000,-4.900000,-0.140000
8.674848,-0.060024,0.080520,0.769088,0.000000,8.400000,-2.100000
8.678915,-0.080520,-0.118096,0.863272,0.280000,1.120000,-2.380000
8.682981,0.045872,0.056608,0.769088,-1.260000,-2.380000,0.420000
8.687047,0.173240,0.092232,1.017480,-3.360000,4.900000,-0.280000
8.691113,-0.117120,-0.069296,0.818864,0.420000,-0.840000,-1.960000
8.695179,-0.031720,-0.020496,0.601216,3.360000,-5.600000,0.840000
8.699245,0.061976,0.126880,1.050176,-1.400000,2.940000,0.560000
8.703311,0.119560,-0.081496,0.921832,-0.980000,-4.060000,-1.400000
8.707377,-0.001952,0.043920,0.597312,0.980000,0.840000,-1.540000
8.711443,-0.090280,0.122976,0.950136,-1.120000,1.120000,-1.680000
8.715509,0.073200,-0.064904,0.954528,-4.340000,-7.140000,0.560000
8.719575,0.055144,0.031232,0.826672,-2.940000,-0.280000,0.000000
8.723641,0.036112,-0.005856,1.025776,-0.560000,-0.560000,-2.520000
8.727707,-0.172264,0.010736,0.761768,1.260000,-1.820000,0.840000
8.731773,0.095648,0.002440,0.868152,-0.700000,3.500000,2.240000
8.735840,0.070760,-0.022936,1.086288,0.560000,-4.060000,-0.560000
8.739906,-0.020008,0.055632,0.601216,4.480000,-0.280000,-1.400000
8.743972,-0.063440,0.036600,0.713456,-2.660000,3.780000,-0.140000
8.748038,0.117608,-0.118096,0.980392,-4.760000,-8.820000,-0.980000
8.752104,0.050752,0.146400,0.722728,-2.100000,-2.380000,-1.820000
8.756170,0.004392,0.075640,0.851560,-1.400000,5.320000,-2.660000
8.760236,0.020984,-0.150304,0.776408,-2.520000,-8.680000,-0.560000
8.764302,0.116144,0.030256,0.838872,-1.400000,0.000000,-0.980000
8.768368,-0.050752,0.109800,1.161928,1.120000,6.440000,-2.660000
8.772434,-0.115168,-0.043920,0.718824,4.900000,-2.800000,-0.140000
8.776500,0.103944,-0.001464,0.736880,-0.560000,-0.560000,2.100000
8.780566,0.044896,0.040992,1.157048,-4.900000,-3.080000,-0.700000
8.784632,-0.106872,0.076616,0.801296,-0.560000,-3.500000,-0.560000
8.788698,0.020496,-0.034160,0.718336,-2.380000,-0.980000,-0.700000
8.792765,0.057096,-0.059536,0.868640,-3.640000,-5.320000,-1.680000
8.796831,0.061976,0.042944,0.724680,-3.080000,-2.660000,-0.980000
8.800897,0.031720,0.086376,0.939400,-2.240000,2.940000,-1.680000
8.804963,-0.020984,-0.105408,0.918904,0.980000,-2.660000,-2.380000
8.809029,0.020984,0.054656,0.671000,1.540000,2.800000,-0.140000
8.813095,0.105408,0.026352,1.016992,-1.960000,2.520000,-0.560000
8.817161,-0.041480,-0.057584,0.707600,-0.560000,-3.220000,-1.120000
8.821227,-0.055632,0.135664,0.805688,0.140000,1.120000,-0.140000
8.825293,0.070760,0.012200,1.059448,-5.880000,-1.960000,-0.140000
8.829359,0.025864,-0.039528,0.899872,-2.660000,-8.680000,-0.700000
8.833425,-0.024400,0.019520,0.747128,-3.640000,-0.560000,-2.100000
8.837491,-0.070272,0.026840,1.072624,-1.680000,-5.180000,-2.940000
8.841557,0.002928,-0.040504,0.710040,-1.260000,-8.540000,0.840000
8.845623,0.167384,-0.031720,0.893528,-3.920000,-0.420000,0.840000
8.849690,-0.054168,-0.003416,0.921832,2.100000,-1.820000,-2.240000
8.853756,-0.139080,0.092232,0.658312,4.060000,0.980000,1.120000
8.857822,0.094184,0.028304,0.870592,-2.240000,0.140000,2.380000
8.861888,0.101992,-0.093696,0.907680,-2.660000,-13.720000,0.000000
8.865954,-0.088816,0.083448,0.744200,0.280000,-10.640000,-0.560000
8.870020,-0.086376,0.098576,0.832528,-1.680000,-12.880000,0.840000
8.874086,0.144448,-0.133224,0.977952,-3.920000,-24.500000,1.260000
8.878152,0.115656,0.067832,0.812520,-7.000000,-10.500000,0.280000
8.882218,-0.026352,0.232776,1.160464,-0.560000,-0.560000,-3.500000
8.886284,0.053192,-0.231800,0.859368,-1.400000,-13.020000,-1.680000
8.890350,-0.089304,0.025864,0.686616,-2.240000,-5.740000,1.540000
8.894416,0.005856,0.078568,1.109224,0.000000,-10.360000,0.280000
8.898482,0.097600,0.024888,1.111176,-0.420000,-15.960000,-0.420000
8.902548,-0.003904,-0.080520,0.539240,-2.380000,-6.860000,0.000000
8.906615,-0.123464,0.039040,0.998448,3.640000,-12.880000,-0.700000
8.910681,0.170800,-0.073688,1.080432,-0.700000,-19.040001,1.820000
8.914747,0.004880,0.151768,0.781288,-2.660000,-7.420000,2.520000
8.918813,-0.055144,0.039528,0.961848,1.960000,-9.240000,-1.260000
8.922879,0.058560,-0.171776,0.862296,-3.780000,-21.420000,1.400000
8.926945,-0.003904,0.073200,0.752008,-3.220000,-7.840000,2.940000
8.931011,0.111264,0.075152,1.227320,-0.700000,-10.360000,0.700000
8.935077,-0.009272,-0.065392,0.852048,0.980000,-13.860000,0.000000
8.939143,-0.089792,0.034648,0.679784,1.680000,-8.400000,0.700000
8.943209,0.039040,0.031232,1.068232,-0.980000,-13.160000,1.540000
8.947275,0.166408,-0.098576,0.906704,-5.600000,-17.920000,2.940000
8.951341,-0.062464,0.167384,0.869616,2.100000,-4.900000,-0.140000
8.955407,0.006344,-0.010248,0.980392,4.760000,-7.420000,-2.940000
8.959473,0.012200,-0.118096,0.801296,-3.080000,-21.280001,0.980000
8.963540,0.024400,0.088328,0.872056,-4.480000,-6.580000,1.120000
8.967606,0.101504,0.069784,1.204384,1.960000,-8.260000,-1.120000
8.971672,0.006344,-0.025376,0.809592,3.640000,-13.160000,0.700000
8.975738,-0.105896,0.040992,0.817400,0.000000,1.120000,1.540000
8.979804,0.194224,-0.140544,0.990640,-2.660000,-6.300000,0.560000
8.983870,0.071248,0.067344,0.886208,-0.280000,-1.120000,-0.420000
8.987936,-0.211304,0.221064,0.880352,2.240000,6.020000,-0.980000
8.992002,0.064904,-0.173728,0.987224,0.140000,-16.660000,-0.280000
8.996068,0.065392,-0.133224,0.673440,-5.180000,-16.940001,0.700000
9.000134,-0.004392,0.280600,1.000888,-2.100000,2.520000,-1.960000
9.004200,0.178120,0.015128,1.098976,-3.220000,-1.960000,-2.380000
9.008266,0.024400,-0.040016,0.588040,-2.520000,9.240000,-0.140000
9.012332,-0.020984,-0.016592,0.954528,0.700000,15.680000,-1.820000
9.016398,0.145424,-0.121512,0.959896,-3.080000,5.740000,-0.980000
9.020465,-0.012200,0.239120,1.004304,-0.280000,17.219999,-1.680000
9.024531,-0.138592,-0.035624,0.805200,1.960000,9.240000,-2.800000
9.028597,-0.027328,-0.201544,0.885720,0.140000,-13.860000,-0.840000
9.032663,0.064904,0.067832,0.714920,-4.480000,-3.500000,1.400000
9.036729,-0.009272,0.239608,1.135088,-0.980000,4.620000,-0.700000
9.040795,0.116144,-0.162016,0.948184,-1.120000,-10.360000,-0.420000
9.044861,-0.034648,0.028792,0.755424,-0.280000,1.820000,-0.840000
9.048927,0.055144,-0.042456,1.071648,-3.220000,2.800000,-0.420000
9.052993,0.148840,-0.081008,0.956968,-4.340000,-6.300000,0.000000
9.057059,-0.097600,0.230336,0.894992,3.360000,9.240000,-2.380000
9.061125,-0.046360,-0.049776,0.881816,4.620000,-0.980000,-3.220000
9.065191,0.044896,-0.171288,0.864248,-3.920000,-15.820000,1.120000
9.069257,0.053680,0.047336,0.830088,-3.780000,0.000000,2.100000
9.073323,0.057584,0.184952,1.275144,3.500000,3.920000,-1.120000
9.077390,0.020008,-0.053680,0.867664,1.120000,-4.340000,0.000000
9.081456,-0.069784,-0.021472,0.725168,-1.960000,3.640000,1.120000
9.085522,0.113216,-0.047336,0.985272,-1.400000,-3.360000,-0.420000
9.089588,0.082472,0.030744,1.122888,-1.820000,-1.680000,-1.120000
9.093654,-0.076128,0.184464,0.892552,2.940000,7.140000,-1.540000
9.097720,0.017568,-0.074176,0.876936,3.500000,-3.080000,-2.940000
9.101786,0.008296,-0.193248,0.875472,-4.900000,-12.180000,0.140000
9.105852,0.016592,0.126880,0.858392,-1.820000,3.360000,0.560000
9.109918,0.107360,0.167384,1.302960,0.980000,2.240000,-0.700000
9.113984,-0.017080,-0.098576,0.824232,-0.700000,-3.780000,0.000000
9.118050,-0.084424,-0.007808,0.652944,0.840000,3.080000,-0.420000
9.122116,0.116144,-0.036112,1.105320,-2.660000,-5.180000,0.000000
9.126182,0.107360,0.072224,1.108248,-4.200000,-3.920000,0.140000
9.130248,-0.051728,0.126392,0.806176,3.220000,5.600000,-1.960000
9.134315,-0.008296,-0.059536,0.933056,2.380000,-0.280000,-3.920000
9.138381,0.030256,-0.178608,1.002352,-5.600000,-12.460000,0.560000
9.142447,0.042456,0.125904,0.843752,-2.380000,3.500000,1.960000
9.146513,0.103944,0.161040,1.172664,-0.140000,4.340000,-0.700000
9.150579,-0.001464,-0.055632,1.020896,0.140000,0.700000,-2.800000
9.154645,-0.015616,-0.114192,0.702720,0.840000,1.680000,-2.380000
9.158711,-0.069296,0.049288,1.101904,-1.960000,-2.240000,-0.700000
9.162777,0.174216,0.026352,1.287344,-3.080000,-6.160000,-0.700000
9.166843,-0.204960,0.059048,0.795440,0.560000,2.520000,-0.420000
9.170909,-0.020496,0.092232,1.048224,4.060000,-9.940000,-0.420000
9.174975,0.164456,-0.125904,1.311256,-5.320000,-22.120001,1.540000
9.179041,-0.037576,-0.179584,0.689544,-6.440000,-24.500000,2.800000
9.183107,-0.042456,0.145424,0.724680,2.520000,-13.440001,1.820000
9.187173,0.104920,0.255712,1.530856,1.820000,-12.180000,-0.140000
9.191240,0.086864,-0.085400,1.259040,-2.660000,-18.620001,-0.700000
9.195306,-0.148352,-0.196664,0.474824,-1.260000,-22.400000,0.280000
9.199372,0.102480,0.001952,1.262944,0.980000,-19.600000,0.140000
9.203438,0.016592,0.120536,1.338096,-2.800000,-16.940001,-0.700000
9.207504,0.124928,0.034648,1.030168,-0.700000,-22.120001,0.560000
9.211570,0.029768,0.141520,0.947208,-0.560000,-10.360000,0.700000
9.215636,0.007320,0.046360,1.141432,-0.560000,-8.680000,-1.400000
9.219702,0.031720,-0.267424,0.945256,-1.120000,-18.340000,-1.260000
9.223768,0.005368,-0.061488,1.009184,-1.260000,-15.820000,0.560000
9.227834,0.122976,0.303048,1.325408,-1.120000,-3.780000,0.280000
9.231900,-0.069784,0.142496,1.444480,0.140000,-11.620000,-0.420000
9.235966,0.074176,-0.265472,0.656360,-0.280000,-19.600000,0.420000
9.240032,-0.028792,-0.002928,0.898896,-2.380000,-10.780000,0.560000
9.244098,0.050264,0.139568,1.435696,0.560000,-11.480000,-0.280000
9.248165,0.095648,-0.012200,1.124352,-3.780000,-20.299999,0.980000
9.252231,0.065880,-0.053192,0.762744,-3.080000,-9.240000,1.400000
9.256297,-0.072224,0.227896,1.169736,2.380000,1.540000,-0.280000
9.260363,0.122488,-0.039528,1.480592,4.760000,-9.520000,-3.220000
9.264429,0.143960,-0.289384,1.047248,-4.060000,-17.780001,-1.260000
9.268495,0.098088,0.121512,0.854976,-5.600000,-1.260000,0.140000
9.272561,-0.092720,0.295240,1.123376,1.260000,13.300000,-0.420000
9.276627,0.054656,-0.016592,1.140944,3.500000,4.760000,-0.420000
9.280693,0.139568,-0.241560,0.974048,-2.100000,8.960000,-0.280000
9.284759,0.025864,0.064416,1.382992,-0.420000,12.320000,-3.220000
9.288825,0.078568,0.130784,1.333216,0.840000,7.140000,-3.920000
9.292891,-0.070272,-0.138592,0.756888,-3.360000,2.240000,-0.280000
9.296957,-0.073200,0.020008,0.662704,-1.540000,8.260000,0.700000
9.301023,-0.049288,0.334280,1.565992,5.600000,9.380000,-0.980000
9.305090,0.144448,-0.082960,1.399096,0.980000,-3.080000,-1.680000
9.309156,0.179584,-0.223016,0.806664,-7.420000,-8.960000,0.140000
9.313222,-0.085400,0.086864,0.777384,-0.700000,5.880000,0.840000
9.317288,-0.119072,0.193736,1.303448,4.760000,7.560000,-1.260000
9.321354,0.175680,-0.200568,1.247328,-2.380000,-7.000000,-0.700000
9.325420,0.093696,0.013664,1.095560,-2.380000,-4.340000,-0.420000
9.329486,0.000000,0.321592,1.104344,3.640000,10.500000,-2.800000
9.333552,-0.085400,0.018056,1.184864,2.800000,1.820000,-2.800000
9.337618,0.156648,-0.426024,0.809592,-6.160000,-14.560000,0.140000
9.341684,-0.069296,0.087352,0.978928,-3.780000,-0.140000,1.400000
9.345750,-0.004392,0.284504,1.336144,6.300000,13.580000,-1.540000
9.349816,0.235216,0.065392,1.534272,0.840000,-4.760000,-2.100000
9.353882,0.086864,-0.131760,0.830088,-4.900000,-3.640000,-0.840000
9.357948,-0.264496,-0.033672,0.645136,1.960000,3.220000,-0.560000
9.362015,0.049288,0.025376,1.364936,4.900000,-2.240000,-1.820000
9.366081,0.237168,-0.087352,1.556232,-6.440000,-11.760000,-0.420000
9.370147,0.040504,0.065392,0.823256,-5.180000,-3.080000,1.680000
9.374213,-0.144448,0.250344,0.886696,3.780000,11.480000,0.560000
9.378279,0.052704,0.069296,1.288320,4.060000,1.960000,-1.260000
9.382345,0.188368,-0.250832,1.312720,-4.060000,-8.960000,-1.400000
9.386411,0.022448,-0.202032,0.851072,-2.240000,-6.860000,-0.980000
9.390477,0.042944,0.310368,1.264408,3.500000,6.020000,-2.240000
9.394543,0.110776,0.145424,1.284904,-1.260000,9.240000,-2.100000
9.398609,0.016104,-0.048312,0.950136,-3.640000,7.560000,0.000000
9.402675,0.033672,-0.075152,0.782264,0.420000,18.900000,-1.260000
9.406741,0.081008,0.061488,1.478640,2.240000,18.620001,-4.200000
9.410807,0.240096,-0.033184,1.464976,-2.100000,12.320000,-3.920000
9.414873,-0.082960,-0.045384,0.805688,-3.640000,18.340000,-0.420000
9.418939,0.013664,0.143960,0.865224,3.780000,32.340000,-1.260000
9.423006,0.100040,0.151280,1.547448,2.520000,31.500000,-3.640000
9.427072,0.135176,-0.112728,1.078968,-2.380000,28.420000,-3.640000
9.431138,-0.029280,-0.159088,0.846680,-1.960000,33.040001,-3.640000
9.435204,0.053192,0.113216,1.206336,-2.100000,34.020000,-3.640000
9.439270,0.057584,0.057096,1.437160,-2.940000,26.320000,-2.240000
9.443336,0.007320,-0.043920,0.653432,-3.080000,27.860001,-0.420000
9.447402,-0.076128,0.107360,1.002840,1.960000,34.299999,-2.800000
9.451468,0.164944,0.052216,1.665056,2.100000,29.260000,-5.460000
9.455534,0.129320,-0.036112,1.316136,-4.200000,21.000000,-4.620000
9.459600,-0.027816,-0.206424,0.619272,-3.780000,26.460001,-1.960000
9.463666,-0.120536,0.194712,0.809104,1.540000,37.520000,-1.680000
9.467732,0.069296,0.211304,1.505480,2.100000,31.780001,-2.240000
9.471798,0.127368,-0.129320,1.252696,-2.380000,16.660000,-1.960000
9.475864,0.132248,-0.106384,0.874984,-3.500000,23.799999,-3.360000
9.479931,-0.078080,0.216672,1.309792,1.260000,34.020000,-4.200000
9.483997,0.048312,0.014640,1.190232,-0.420000,26.180000,-3.780000
9.488063,0.024888,-0.337696,0.785192,-4.900000,17.219999,-2.240000
9.492129,0.029280,0.096624,1.037488,-1.120000,29.540001,-2.100000
9.496195,0.037088,0.449936,1.662616,4.200000,36.680000,-3.500000
9.500261,0.120048,-0.062952,1.344928,-1.960000,25.480000,-3.360000
9.504327,0.012200,-0.282064,0.518744,-6.020000,12.880000,-2.240000
9.508393,-0.140056,-0.024400,0.868640,0.560000,21.000000,-1.540000
9.512459,0.008296,0.209352,1.520608,2.940000,20.020000,-1.960000
9.516525,0.180072,-0.085400,1.414712,-3.360000,8.260000,-2.100000
9.520591,0.086864,-0.018056,0.814472,-6.860000,8.260000,-0.700000
9.524657,-0.166408,0.247416,0.866200,1.820000,23.520000,-0.840000
9.528723,-0.025376,0.124440,1.440088,7.000000,21.000000,-3.360000
9.532789,0.192272,-0.260592,1.341024,-4.480000,-0.700000,-3.920000
9.536856,0.183976,-0.208864,0.839360,-9.380000,-5.320000,-1.820000
9.540922,-0.234728,0.254736,0.945744,0.000000,9.380000,-1.260000
9.544988,-0.129808,0.235704,1.188768,7.000000,10.500000,-1.540000
9.549054,0.230824,-0.128832,1.502552,-3.220000,-8.400000,-0.140000
9.553120,0.042944,-0.104920,0.906704,-6.300000,-10.220000,0.420000
9.557186,-0.036600,0.066368,1.038952,0.140000,-0.700000,-0.840000
9.561252,-0.064416,0.204472,1.336632,3.080000,-4.060000,-0.560000
9.565318,0.132248,-0.095648,1.085800,-4.200000,-16.100000,1.680000
9.569384,0.056608,-0.339160,0.711016,-7.560000,-23.240000,2.940000
9.573450,0.082960,0.207888,1.139480,2.100000,-1.960000,-0.140000
9.577516,0.072224,0.360144,1.730936,3.500000,9.800000,-1.680000
9.581582,0.180560,-0.067832,1.371768,-1.400000,-3.920000,-1.680000
9.585648,-0.019520,-0.378688,0.480680,-5.460000,-8.120000,-0.980000
9.589714,-0.085400,0.119560,0.813008,0.840000,7.420000,-0.560000
9.593781,-0.041480,0.307440,1.534272,4.060000,5.880000,-0.140000
9.597847,0.224480,-0.092720,1.488400,-3.500000,-7.280000,-0.280000
9.601913,0.078080,-0.118096,0.696864,-6.300000,-4.760000,0.840000
9.605979,-0.023912,0.268400,1.044320,1.540000,9.800000,-0.560000
9.610045,-0.050752,0.057096,1.284904,1.680000,6.860000,-1.680000
9.614111,0.118584,-0.365512,1.211216,-4.200000,-9.520000,-1.540000
9.618177,0.124928,-0.137616,0.991128,-7.000000,-3.220000,-0.420000
9.622243,0.022448,0.474336,1.149728,1.820000,11.760000,-1.260000
9.626309,-0.055632,0.273280,1.457168,4.060000,9.520000,-1.540000
9.630375,0.088328,-0.342088,0.942328,-5.040000,-7.560000,-1.260000
9.634441,0.061488,-0.282552,0.762256,-5.320000,-7.420000,-0.140000
9.638507,0.007320,0.289384,1.220488,2.800000,8.680000,-0.560000
9.642573,-0.010736,0.103456,1.361520,0.000000,4.340000,-0.840000
9.646639,0.188368,-0.109800,1.260504,-6.160000,-7.840000,0.980000
9.650706,0.004392,0.067832,0.772992,-3.640000,4.200000,1.120000
9.654772,-0.085400,0.161040,1.044808,7.140000,14.000000,-2.800000
9.658838,0.079544,-0.016592,1.476688,3.360000,-0.560000,-3.920000
9.662904,0.236192,-0.264496,1.178520,-8.120000,-14.000000,-1.260000
9.666970,-0.074176,0.011224,0.825208,-4.760000,-1.400000,1.680000
9.671036,-0.081984,0.327936,0.814472,4.900000,17.360001,0.140000
9.675102,0.021960,0.086864,1.454240,0.840000,7.560000,-0.560000
9.679168,0.279136,-0.215208,1.234152,-4.060000,-10.640000,-0.980000
9.683234,-0.026352,-0.104432,0.733464,-3.640000,-2.100000,-1.680000
9.687300,-0.093696,0.215696,1.131184,2.520000,9.660000,-1.820000
9.691366,0.066368,0.022448,1.183400,-0.280000,-1.540000,0.140000
9.695432,0.093696,-0.116632,0.934032,-4.480000,-6.020000,1.680000
9.699498,-0.005856,0.039528,0.918904,-2.100000,5.460000,-0.280000
9.703564,0.116144,0.273768,1.415200,2.100000,6.160000,-1.680000
9.707631,-0.002928,-0.138104,1.116544,-2.240000,-3.920000,-0.420000
9.711697,0.001464,-0.323544,0.565592,-5.040000,-9.800000,1.120000
9.715763,0.076128,0.188856,0.901824,1.260000,4.060000,-0.280000
9.719829,0.040992,0.366488,1.592344,-0.140000,11.060000,-1.260000
9.723895,0.123952,-0.145424,1.037488,0.140000,-7.980000,-1.960000
9.727961,-0.093696,-0.180560,0.436760,-2.660000,-0.700000,-1.120000
9.732027,0.006344,0.087840,1.100440,-0.840000,3.920000,-0.420000
9.736093,0.070272,0.062464,1.315648,-0.700000,-0.280000,-0.280000
9.740159,0.101992,0.029768,0.940376,-4.340000,-1.540000,1.120000
9.744225,0.077104,0.081984,0.876936,-1.400000,7.280000,0.140000
9.748291,-0.066368,-0.057584,0.950136,3.080000,2.100000,-3.080000
9.752357,0.088328,-0.183976,1.017480,-3.080000,-11.480000,-0.840000
9.756423,0.109312,0.136152,0.870104,-4.900000,0.140000,1.680000
9.760489,-0.109312,0.282552,1.138504,1.820000,11.060000,-0.560000
9.764555,0.060512,-0.152256,1.037488,1.680000,-5.180000,-1.960000
9.768622,0.151768,-0.244488,0.798368,-3.920000,-5.600000,0.560000
9.772688,-0.142984,0.193736,1.131184,-0.280000,8.120000,0.560000
9.776754,0.197152,0.050264,1.174128,3.220000,-2.940000,-0.280000
9.780820,0.188856,-0.115168,1.007232,1.540000,-3.220000,0.140000
9.784886,-0.256688,0.008296,0.714432,11.340000,7.980000,-1.260000
9.788952,0.007808,0.017080,1.226344,23.799999,-3.080000,-1.260000
9.793018,0.265472,-0.135664,1.314184,16.240000,-8.400000,0.560000
9.797084,0.060024,-0.079056,0.765672,14.840000,2.240000,0.280000
9.801150,-0.189832,0.303536,0.899872,31.080000,9.520000,-2.240000
9.805216,0.180072,-0.068808,1.166320,24.360001,-1.260000,-0.560000
9.809282,0.068808,-0.244488,0.851072,13.300000,-7.000000,2.100000
9.813348,-0.106872,0.150304,0.794464,26.880001,4.060000,-0.420000
9.817414,0.155672,0.191296,1.392264,32.480000,5.600000,-2.380000
9.821480,0.040016,-0.110776,1.203408,28.980000,-0.700000,-2.660000
9.825547,-0.101992,-0.223504,0.582184,31.780001,-8.960000,-0.280000
9.829613,0.078568,0.109800,0.878400,32.200001,0.140000,0.560000
9.833679,0.207400,0.200080,1.415688,25.200001,5.880000,-0.560000
9.837745,-0.020984,0.033184,0.903776,29.960001,-0.840000,-1.540000
9.841811,-0.036600,-0.124928,0.632936,31.920000,1.260000,-1.400000
9.845877,0.008784,-0.063928,1.055544,28.980000,-1.120000,-0.560000
9.849943,0.061976,0.050752,1.053592,30.520000,-7.420000,-0.420000
9.854009,0.151768,0.130296,0.982832,28.420000,1.120000,-0.140000
9.858075,-0.059536,0.131760,1.051152,29.260000,13.440001,-1.680000
9.862141,-0.056608,-0.242048,0.844240,31.360001,-6.860000,-1.960000
9.866207,0.125416,-0.110776,0.896944,23.660000,-8.540000,0.840000
9.870273,0.130296,0.237168,1.156072,21.700001,5.740000,0.140000
9.874339,-0.041480,0.192272,1.188280,28.420000,5.740000,-3.080000
9.878405,0.091744,-0.169824,0.724192,26.180000,-6.020000,-2.520000
9.882472,-0.024888,-0.039040,0.665144,17.639999,1.960000,-1.400000
9.886538,-0.009272,0.117120,1.244400,15.540000,-5.880000,-1.260000
9.890604,0.155184,0.018544,0.659288,6.020000,-4.900000,1.540000
9.894670,-0.036600,0.184952,0.890600,5.600000,9.520000,-0.280000
9.898736,0.076616,0.016104,1.167296,7.700000,0.700000,-3.500000
9.902802,0.082472,-0.096136,0.691496,-2.240000,-8.820000,-0.420000
9.906868,-0.005856,0.071736,0.840336,-3.640000,0.420000,-0.840000
9.910934,0.043920,-0.006832,1.079456,-0.280000,-0.420000,-1.960000
9.915000,0.087352,-0.020496,0.881816,-0.980000,-1.120000,-0.560000
9.919066,-0.060024,0.188368,0.908656,1.960000,7.140000,-0.280000
9.923132,0.064904,-0.074664,1.027240,2.940000,-1.120000,-1.540000
9.927198,0.079544,-0.163480,0.611952,-3.360000,-7.980000,1.680000
9.931264,-0.037088,0.276208,0.836920,-1.400000,8.540000,-1.260000
9.935330,0.160064,-0.002440,1.189256,-4.620000,-0.980000,-2.100000
9.939397,-0.118096,-0.139080,0.522160,-4.200000,-6.720000,-0.560000
9.943463,0.039528,0.112728,0.819352,-2.800000,3.220000,0.140000
9.947529,0.202032,-0.098576,1.120448,-8.120000,-3.640000,0.560000
9.951595,-0.114192,0.056608,0.531920,-0.700000,2.520000,0.000000
9.955661,0.069296,0.091744,0.939888,3.500000,6.580000,-1.120000
9.959727,0.070272,-0.027816,0.883768,-3.780000,-1.960000,0.280000
9.963793,0.022936,-0.039528,0.594872,0.280000,-1.400000,0.280000
9.967859,0.146888,0.020496,0.868640,-0.700000,1.680000,-1.260000
9.971925,-0.063440,0.040992,0.742248,-0.560000,-3.220000,-2.100000
9.975991,-0.023424,0.181536,0.813984,1.260000,2.940000,-1.540000
9.980057,0.230336,-0.203984,1.078968,-9.660000,-4.760000,-0.560000
9.984123,-0.101016,-0.004880,0.701744,-0.700000,-1.820000,-1.260000
9.988189,-0.005368,0.184464,0.866688,4.060000,7.700000,0.560000
9.992255,0.187880,-0.217648,0.919392,-5.040000,-4.200000,0.700000
9.996322,-0.048800,0.016592,0.634888,1.260000,-2.940000,-1.120000
10.000388,-0.056120,0.207400,0.721264,0.560000,7.840000,-1.400000
10.004454,0.088816,-0.084424,0.918416,-1.680000,-3.500000,-1.120000
10.008520,0.108824,-0.044896,0.610000,-1.960000,-4.480000,-0.280000
10.012586,-0.015128,0.131760,0.838872,-0.140000,7.140000,-2.380000
10.016652,0.017568,-0.016592,0.841800,1.120000,-4.060000,-0.420000
10.020718,0.193248,-0.094672,0.630008,-3.500000,-1.960000,-0.420000
10.024784,0.040016,0.083448,1.053104,-3.640000,3.500000,-2.380000
10.028850,-0.207888,0.069296,0.748104,4.620000,-1.680000,0.000000
10.032916,0.131272,-0.071248,0.742248,0.280000,2.380000,0.140000
10.036982,0.129808,-0.062464,1.051152,-4.900000,-6.300000,-1.540000
10.041048,-0.159576,0.139568,0.552416,1.680000,1.820000,-1.400000
10.045114,0.111264,-0.039040,0.828624,-0.560000,6.160000,0.280000
10.049180,0.209352,-0.175192,0.871080,-6.300000,-9.800000,0.140000
10.053246,-0.192272,0.279136,0.504592,3.920000,4.760000,-1.400000
10.057313,0.156648,0.005856,0.973560,-1.680000,3.780000,-1.120000
10.061379,0.111752,-0.206912,0.808128,-7.700000,-7.280000,-0.280000
10.065445,-0.115656,0.278648,0.828136,5.740000,4.900000,-1.960000
10.069511,0.074664,-0.019032,0.940376,1.260000,1.120000,0.000000
10.073577,0.048800,-0.147864,0.694912,-2.940000,-9.800000,1.400000
10.077643,0.037088,0.142984,0.848144,-1.960000,-0.560000,0.140000
10.081709,-0.007808,0.061976,1.085312,-2.940000,-4.760000,0.000000
10.085775,0.030744,-0.122976,0.745664,0.140000,-12.740000,-0.420000
10.089841,0.078080,-0.010736,0.763720,-2.520000,-6.580000,1.540000
10.093907,-0.044408,0.169824,1.001376,-0.140000,-5.460000,-0.420000
10.097973,0.119072,-0.113704,0.863272,1.540000,-18.059999,-1.260000
10.102039,-0.038064,0.028304,0.625616,-3.780000,-9.660000,0.140000
10.106105,-0.035136,0.159088,1.013576,2.380000,-9.520000,-1.120000
10.110171,0.198128,-0.118584,0.945744,-4.340000,-24.360001,-0.140000
10.114238,-0.110288,-0.018056,0.582184,-4.340000,-15.960000,0.000000
10.118304,-0.095648,0.135664,1.093608,4.760000,-15.820000,-0.560000
10.122370,0.162504,-0.120536,1.037000,-0.840000,-26.880001,3.080000
10.126436,0.046848,-0.038064,0.596336,-0.700000,-17.080000,2.800000
10.130502,0.062952,0.121024,0.987712,4.900000,-12.600000,0.000000
10.134568,-0.102480,0.046848,0.923296,1.540000,-20.719999,1.400000
10.138634,-0.022448,0.035136,0.594872,0.980000,-18.059999,3.500000
10.142700,0.290848,-0.095648,1.070672,-3.220000,-26.460001,2.100000
10.146766,-0.115168,0.105408,0.845704,1.260000,-23.799999,-2.100000
10.150832,-0.060024,0.026352,0.704184,0.140000,-23.520000,1.400000
10.154898,0.150792,-0.035136,0.929640,-7.000000,-24.920000,2.520000
10.158964,0.126880,-0.003416,1.039440,-0.700000,-26.740000,-1.120000
10.163030,-0.001464,0.120536,0.682224,2.380000,-12.320000,0.140000
10.167096,-0.017080,0.008296,0.883768,1.820000,-15.400000,1.680000
10.171163,0.149328,-0.173240,0.882792,-0.560000,-25.760000,1.540000
10.175229,-0.008296,0.117608,0.762744,-0.560000,-18.059999,1.820000
10.179295,-0.091256,0.169824,0.981856,4.620000,-13.720000,-0.140000
10.183361,0.193248,-0.190320,0.875472,-1.680000,-29.400000,2.940000
10.187427,0.046360,0.019032,0.610488,-3.500000,-20.440001,1.120000
10.191493,-0.013664,0.202032,1.046760,0.280000,-15.960000,-1.540000
10.195559,-0.002928,-0.052216,0.853024,-2.660000,-26.320000,1.540000
10.199625,0.104432,-0.060512,0.728584,-2.520000,-15.820000,2.940000
10.203691,0.181048,0.025864,1.293200,-1.400000,-12.600000,0.420000
10.207757,-0.012688,0.019520,0.810080,2.940000,-3.500000,1.120000
10.211823,0.054168,0.113704,0.744200,2.940000,11.200000,0.980000
10.215889,0.276696,-0.247904,0.912560,-4.340000,-0.420000,-0.700000
10.219955,-0.174216,0.192760,0.492880,0.840000,9.800000,-2.380000
10.224021,-0.019520,0.135664,0.940376,2.100000,11.060000,-2.520000
10.228088,0.203496,-0.200080,1.049200,-8.820000,-6.720000,-0.140000
10.232154,-0.098576,0.109800,0.656360,1.540000,4.620000,-2.940000
10.236220,0.102480,0.090280,0.956968,2.240000,7.840000,-1.960000
10.240286,-0.011224,-0.069784,0.854000,-2.800000,-3.640000,0.000000
10.244352,0.079544,-0.021960,0.685152,-4.200000,3.220000,-0.700000
10.248418,0.061000,0.200568,1.125816,-2.520000,5.180000,-2.800000
10.252484,-0.005856,-0.021960,0.999424,0.700000,-3.080000,-4.760000
10.256550,0.022448,-0.178608,0.629520,-4.620000,-6.300000,-1.960000
10.260616,0.026352,0.128344,1.085312,-5.880000,-0.280000,-1.400000
10.264682,0.008784,0.146888,1.228296,2.520000,-2.240000,-3.220000
10.268748,0.148352,-0.186416,0.630008,-3.080000,-6.580000,0.840000
10.272814,-0.120536,0.094672,0.670512,-2.520000,3.080000,0.980000
10.276880,0.130296,0.068808,1.286856,0.000000,-1.120000,-2.380000
10.280946,0.148352,-0.016592,0.962336,-5.600000,-7.560000,-0.980000
10.285013,-0.090280,0.060024,0.533872,-1.260000,2.380000,-1.960000
10.289079,-0.041968,0.007808,1.030168,0.420000,-4.060000,-2.520000
10.293145,0.189344,-0.096624,1.048712,-5.880000,-12.880000,-0.840000
10.297211,0.007808,0.169824,0.816424,-3.080000,2.800000,-1.680000
10.301277,0.048800,0.039528,0.972096,0.280000,3.500000,-3.220000
10.305343,-0.020496,-0.127368,0.828136,-2.520000,-7.140000,-1.960000
10.309409,0.023912,0.000488,0.853024,-1.540000,1.120000,0.000000
10.313475,0.120048,0.134200,1.256112,-0.560000,4.480000,-0.140000
10.317541,-0.013664,-0.022448,0.984296,4.620000,-0.700000,-1.820000
10.321607,-0.051728,-0.106872,0.590480,2.800000,-1.680000,0.280000
10.325673,0.137616,0.163968,1.105808,-0.280000,1.120000,1.820000
10.329739,0.116144,0.127368,1.318088,-1.400000,-1.400000,-1.820000
10.333805,0.024400,-0.139080,0.700280,-3.920000,-5.320000,-2.100000
10.337871,-0.088328,0.039040,0.735416,-2.660000,-2.240000,0.280000
10.341937,0.023424,0.101016,1.150216,-1.400000,0.000000,-0.140000
10.346004,0.222040,-0.013176,1.342976,-6.720000,-8.680000,-0.560000
10.350070,0.003416,0.049288,0.857904,-4.060000,2.520000,-0.420000
10.354136,-0.137616,0.014640,0.862784,8.400000,8.680000,-3.360000
10.358202,0.075152,-0.094672,1.275632,0.700000,-5.880000,-0.980000
10.362268,0.293288,0.034648,1.083848,-6.020000,-10.360000,1.400000
10.366334,-0.081496,0.210328,0.799832,0.980000,9.800000,-0.980000
10.370400,-0.162016,0.069784,1.023336,6.580000,6.020000,-2.940000
10.374466,0.208864,-0.244976,1.229760,-3.500000,-12.320000,-1.120000
10.378532,0.051240,-0.155184,0.944280,-8.260000,-7.420000,1.260000
10.382598,0.020984,0.362096,1.023336,1.540000,8.120000,0.280000
10.386664,0.070272,0.290848,1.234152,3.220000,4.760000,-1.120000
10.390730,-0.028304,-0.306952,0.979904,-2.660000,-6.300000,-2.100000
10.394796,0.038064,-0.284016,0.810080,-3.360000,-9.800000,-0.140000
10.398862,0.027816,0.273768,1.130696,2.520000,-4.200000,0.280000
10.402929,0.198128,0.339648,1.572824,1.260000,3.220000,-1.820000
10.406995,-0.038064,-0.138104,0.878888,-3.640000,-4.620000,-1.120000
10.411061,-0.045872,-0.179096,0.715896,-1.260000,-8.680000,0.000000
10.415127,0.043920,0.081984,1.195112,2.940000,3.360000,-0.140000
10.419193,0.073688,0.061000,1.464000,-2.380000,-3.640000,-0.420000
10.423259,0.273280,-0.040016,1.133136,-4.620000,-14.420000,0.980000
10.427325,-0.132248,0.162504,0.821792,-1.260000,5.600000,-0.140000
10.431391,-0.090768,0.120536,1.056520,8.540000,7.140000,-2.520000
10.435457,0.149328,-0.143472,1.376160,-0.280000,-10.220000,-1.960000
10.439523,0.256200,-0.200080,1.244888,-10.080000,-15.960000,0.000000
10.443589,-0.063928,0.166896,0.774456,-1.960000,7.840000,-0.980000
10.447655,-0.030256,0.348920,1.264408,5.740000,15.680000,-1.820000
10.451721,0.089304,0.074664,1.265872,-0.140000,3.080000,-1.540000
10.455787,0.006832,-0.410896,0.857904,-5.180000,-10.920000,-0.840000
10.459854,0.027328,-0.138592,0.936472,-1.820000,-6.160000,-0.980000
10.463920,0.058072,0.385520,1.419104,3.920000,2.940000,-0.140000
10.467986,0.061000,0.242048,1.354200,-0.280000,3.360000,0.420000
10.472052,0.007320,-0.208864,0.821792,-6.160000,-6.860000,1.680000
10.476118,0.066856,-0.132736,0.913536,-2.100000,0.420000,0.420000
10.480184,-0.057584,0.277184,1.288320,3.080000,9.520000,-0.840000
10.484250,0.093208,-0.005856,1.326384,1.120000,-3.920000,-1.260000
10.488316,0.168360,-0.212280,0.970632,-8.680000,-15.260000,1.820000
10.492382,0.072224,0.151280,0.956968,-3.500000,2.520000,0.700000
10.496448,-0.163968,0.355264,1.093120,7.980000,17.500000,-3.080000
10.500514,0.122976,-0.122000,1.380064,2.940000,-2.240000,-3.640000
10.504580,0.203008,-0.367464,1.085800,-9.940000,-15.680000,-0.980000
10.508646,0.017080,0.093696,0.918416,-5.740000,-1.540000,0.560000
10.512712,-0.164456,0.404064,1.006256,6.580000,17.360001,-0.560000
10.516779,0.071736,0.080520,1.373232,3.220000,3.780000,-0.700000
10.520845,0.189832,-0.308904,1.230736,-6.020000,-12.600000,-0.420000
10.524911,-0.008784,-0.121512,0.924760,-2.660000,-3.780000,-1.960000
10.528977,0.052216,0.278160,0.953552,2.940000,5.040000,-1.400000
10.533043,-0.033672,0.199104,1.425936,0.560000,1.260000,0.000000
10.537109,0.088328,-0.130784,0.953064,-5.600000,-3.640000,1.540000
10.541175,0.065880,-0.129320,0.914024,-3.500000,0.000000,0.560000
10.545241,0.083936,0.265472,1.220976,3.360000,8.540000,-2.940000
10.549307,-0.078568,0.098088,1.440576,3.080000,1.120000,-3.360000
10.553373,0.157136,-0.342088,1.026752,-5.740000,-13.580000,0.000000
10.557439,0.088328,-0.006832,0.688080,-6.160000,-4.340000,1.540000
10.561505,-0.148840,0.446032,1.211216,5.460000,18.340000,-0.280000
10.565571,0.074176,0.139080,1.453752,7.140000,6.860000,-2.660000
10.569637,0.280112,-0.400160,1.224392,-9.940000,-8.820000,-1.540000
10.573703,0.091744,-0.028792,0.759328,-7.420000,3.500000,-0.280000
10.577770,-0.185440,0.326960,1.000400,2.520000,22.540001,-0.700000
10.581836,0.079544,0.147864,1.287344,3.360000,18.620001,-1.820000
10.585902,0.165920,-0.230824,1.325896,-4.620000,2.520000,-1.680000
10.589968,0.115168,-0.081008,1.050176,-4.480000,6.580000,-1.960000
10.594034,-0.037576,0.222528,0.872056,3.500000,22.820000,-3.500000
10.598100,0.031232,0.090768,1.313696,2.100000,15.820000,-1.820000
10.602166,0.118584,-0.075640,0.978440,-7.140000,14.560000,0.700000
10.606232,-0.051728,-0.080520,0.995520,-2.380000,22.680000,-0.560000
10.610298,0.110288,0.261568,1.270264,5.460000,25.900000,-3.780000
10.614364,0.080520,0.047336,1.424472,0.280000,15.120000,-3.360000
10.618430,0.087352,-0.213256,0.942328,-8.680000,6.300000,-0.980000
10.622496,-0.061976,-0.100528,0.537288,-4.340000,17.500000,-0.700000
10.626562,-0.006832,0.381128,1.341512,5.320000,33.320000,-2.240000
10.630628,0.061000,0.193248,1.443016,2.240000,21.700001,-2.100000
10.634695,0.182024,-0.323056,1.115568,-7.700000,6.580000,-1.820000
10.638761,0.023912,-0.197640,0.675392,-5.600000,14.560000,-1.680000
10.642827,-0.097600,0.444568,1.159488,3.920000,28.980000,-1.540000
10.646893,0.002928,0.103944,1.245864,3.360000,23.660000,-2.100000
10.650959,0.162016,-0.236680,1.155584,-4.760000,7.980000,-1.120000
10.655025,0.161528,-0.016592,0.976488,-3.360000,15.260000,-1.400000
10.659091,-0.158112,0.327936,1.121912,3.920000,27.860001,-2.240000
10.663157,0.009272,-0.061488,1.010160,1.260000,19.040001,-1.680000
10.667223,0.111264,-0.312808,1.024800,-8.120000,5.880000,0.980000
10.671289,0.097600,0.150792,1.180472,-1.960000,20.440001,-0.700000
10.675355,-0.020496,0.426024,1.223416,7.700000,29.260000,-3.780000
10.679421,0.044896,0.000976,1.248792,1.120000,16.240000,-2.940000
10.683487,0.067344,-0.412848,0.675880,-9.800000,-0.140000,0.280000
10.687553,-0.072712,-0.013664,0.867176,-0.700000,10.920000,-0.560000
10.691620,0.045872,0.356728,1.287832,3.920000,23.240000,-1.540000
10.695686,0.193248,0.230336,1.527440,-1.820000,14.280000,-2.380000
10.699752,0.023912,-0.239608,0.831552,-3.920000,3.220000,-2.240000
10.703818,-0.188856,-0.194224,0.689544,0.280000,7.560000,-1.960000
10.707884,-0.060024,0.217160,1.089216,1.680000,8.540000,0.140000
10.711950,0.069296,0.102480,1.344440,0.140000,-12.040000,1.540000
10.716016,0.097112,-0.097112,0.998936,-6.020000,-15.260000,2.100000
10.720082,0.013664,0.030744,0.714920,-2.240000,-6.860000,1.820000
10.724148,-0.012688,0.274744,1.208776,6.160000,6.580000,-1.680000
10.728214,0.049288,-0.117120,1.299544,0.420000,-10.080000,-1.820000
10.732280,0.258640,-0.198128,0.913536,-8.820000,-20.160000,1.960000
10.736346,-0.051240,0.156160,0.581696,-4.340000,4.060000,1.680000
10.740412,-0.109312,0.278160,1.269288,8.120000,11.060000,-3.220000
10.744478,0.189832,-0.093696,1.413248,0.980000,-8.260000,-2.940000
10.748545,0.106872,-0.173240,0.529968,-8.540000,-6.580000,0.280000
10.752611,-0.138592,0.133224,1.007232,-2.100000,3.500000,1.120000
10.756677,0.120536,0.094672,1.120448,1.820000,5.180000,-1.260000
10.760743,0.179584,-0.002928,1.010648,-2.800000,-2.940000,-0.700000
10.764809,-0.101992,0.081984,0.793488,-0.700000,7.980000,-1.540000
10.768875,0.002440,-0.021472,0.937936,-1.400000,-0.560000,-1.540000
10.772941,0.069296,-0.128832,0.950624,-4.200000,-8.680000,1.120000
10.777007,-0.028304,0.122488,0.813496,-1.260000,5.600000,1.820000
10.781073,0.119072,0.194224,1.182912,3.220000,7.140000,-1.120000
10.785139,0.074664,-0.091256,0.973560,-2.660000,-2.240000,-1.680000
10.789205,-0.075152,-0.147376,0.637816,-2.660000,-2.100000,-0.420000
10.793271,0.107848,0.129808,1.064328,-1.120000,9.380000,-0.420000
10.797337,0.118096,0.100528,1.275632,-0.140000,1.960000,-1.540000
10.801403,-0.080520,-0.035624,0.643184,1.260000,-2.100000,-1.400000
10.805470,0.014152,-0.020984,0.724680,-0.560000,0.560000,-0.140000
10.809536,0.124928,0.064904,1.135576,-3.500000,-0.560000,0.700000
10.813602,0.049776,0.017568,0.947696,-1.540000,-0.840000,0.840000
10.817668,0.029768,0.082960,0.811544,0.980000,7.560000,0.700000
10.821734,-0.036112,0.054168,0.894992,3.500000,5.040000,-1.260000
10.825800,0.082472,-0.087352,0.860344,-1.120000,-4.760000,-0.140000
10.829866,0.102480,0.077104,0.827160,-6.300000,4.480000,1.400000
10.833932,-0.013664,0.149816,1.168272,1.680000,6.580000,-2.100000
10.837998,-0.017080,-0.119072,0.851560,5.040000,-2.520000,-3.220000
10.842064,0.035136,-0.080032,0.694912,-2.240000,-1.400000,1.820000
10.846130,0.000976,0.174704,1.054568,0.420000,5.180000,1.120000
10.850196,0.158600,-0.002440,1.081896,1.960000,-2.660000,-1.120000
10.854262,0.025864,-0.007808,0.658312,0.700000,1.820000,-1.540000
10.858328,-0.081496,0.091256,0.864248,-2.800000,8.120000,-0.980000
10.862394,0.157136,-0.062464,1.113616,-5.180000,-2.100000,-0.840000
10.866461,0.149328,0.029768,0.785680,-4.060000,7.140000,-1.680000
10.870527,-0.058560,0.195200,1.007232,3.780000,18.620001,-3.220000
10.874593,0.007808,-0.140544,0.955504,2.940000,6.160000,-0.980000
10.878659,0.136640,-0.041968,0.738832,-2.800000,11.340000,1.260000
10.882725,0.069296,0.193736,1.029192,0.420000,21.280001,-3.220000
10.886791,0.038552,-0.010248,1.012112,3.220000,13.860000,-4.480000
10.890857,-0.089304,-0.051240,0.605608,0.840000,11.200000,0.420000
10.894923,0.087352,0.027816,1.009672,2.940000,16.799999,-0.840000
10.898989,0.128832,0.026840,1.126304,-0.700000,12.740000,-1.680000
10.903055,-0.025864,0.080032,0.656360,0.700000,17.219999,-1.120000
10.907121,-0.027816,0.082960,0.821792,-0.140000,19.040001,-2.520000
10.911187,0.137128,-0.135176,0.995032,-5.740000,6.020000,-1.820000
10.915253,-0.061976,0.150304,0.678808,-2.800000,12.600000,-0.980000
10.919319,0.091744,0.111264,1.188768,0.000000,11.060000,-3.360000
10.923386,0.073200,-0.149816,0.970632,-4.760000,5.460000,-3.500000
10.927452,-0.070272,0.019032,0.577304,1.820000,13.860000,-2.660000
10.931518,0.158112,0.092720,1.172176,-2.240000,14.000000,-2.240000
10.935584,0.071248,-0.019032,0.970632,-4.620000,10.360000,-3.080000
10.939650,-0.175680,0.080520,0.605608,5.180000,18.340000,-3.220000
10.943716,0.161528,0.011224,1.013576,1.680000,13.720000,0.000000
10.947782,0.104920,-0.050264,0.977952,-3.360000,7.980000,-0.140000
10.951848,-0.018544,0.063440,0.697352,2.660000,17.780001,-2.660000
10.955914,0.016592,0.094672,1.023336,0.700000,16.520000,-3.360000
10.959980,-0.026352,-0.020496,0.854488,-1.960000,7.000000,-1.680000
10.964046,0.027816,0.032696,0.717360,-3.360000,8.120000,0.420000
10.968112,0.108824,0.060024,1.061888,-3.360000,8.540000,-0.980000
10.972178,-0.121024,0.080032,0.954040,3.780000,4.340000,-2.240000
10.976244,0.057584,-0.097600,0.687592,1.260000,5.600000,1.540000
10.980311,0.100528,-0.043432,0.996008,-4.480000,4.900000,0.840000
10.984377,-0.052704,0.138104,1.122888,4.620000,-1.260000,-3.080000
10.988443,-0.046360,0.034160,0.667584,1.680000,-3.080000,0.280000
10.992509,-0.020008,-0.027816,0.730048,-2.100000,-4.620000,2.660000
10.996575,0.164944,0.021472,1.245864,-0.280000,-12.460000,0.000000
11.000641,0.098088,0.111264,0.878400,-1.400000,-5.600000,-0.280000
11.004707,-0.042456,0.101504,0.869128,1.540000,6.300000,-1.400000
11.008773,0.086864,-0.185440,1.107272,-0.840000,-5.460000,-0.840000
11.012839,0.042944,0.043432,0.862784,-3.220000,-0.140000,1.120000
11.016905,0.055632,0.278648,1.055056,2.520000,8.400000,-2.380000
11.020971,0.142008,-0.071736,1.163392,-1.960000,-0.420000,-3.080000
11.025037,-0.090280,-0.128344,0.817400,-2.380000,-4.620000,-1.120000
11.029103,-0.033672,0.049288,0.742736,2.380000,1.960000,0.140000
11.033169,0.057096,0.277184,1.577704,1.680000,2.240000,-0.280000
11.037236,0.210816,0.020496,1.419104,-1.960000,-0.980000,-0.840000
11.041302,-0.062464,-0.149816,0.653432,-0.840000,-5.460000,-0.140000
11.045368,-0.040016,-0.086376,0.803248,2.660000,0.980000,-0.420000
11.049434,0.096136,0.207400,1.578192,-0.420000,4.200000,-0.560000
11.053500,0.121024,0.091744,1.652856,-1.120000,-3.220000,-0.980000
11.057566,0.095648,0.018056,0.792512,-1.820000,0.840000,-1.400000
11.061632,-0.179584,0.143472,0.992104,4.480000,5.600000,-1.400000
11.065698,0.062952,0.109800,1.507920,4.340000,0.280000,-1.540000
11.069764,0.172264,-0.286944,1.350296,-4.480000,-11.760000,-1.680000
11.073830,0.113704,-0.137616,1.016016,-4.480000,-9.240000,-2.940000
11.077896,-0.040504,0.182512,1.348344,2.520000,5.460000,-3.080000
11.081962,0.048800,0.462136,1.365424,6.580000,12.740000,-2.380000
11.086028,-0.057584,0.020984,1.317600,-2.100000,1.540000,0.560000
11.090094,0.097600,-0.300608,1.025288,-4.340000,-8.820000,0.280000
11.094160,0.074664,0.072712,1.076040,-0.560000,1.400000,-1.400000
11.098227,-0.110776,0.272792,1.263432,6.020000,7.560000,-1.820000
11.102293,0.088816,-0.131272,1.378112,0.420000,-5.180000,-1.260000
11.106359,0.203008,-0.162016,1.175592,-8.120000,-12.460000,0.280000
11.110425,0.009272,0.077592,0.793976,-6.020000,-0.840000,1.400000
11.114491,-0.098576,0.437248,1.055544,6.300000,14.000000,-0.560000
11.118557,-0.061976,0.021960,1.318088,4.900000,7.700000,-2.940000
11.122623,0.245464,-0.334280,1.226832,-7.560000,-17.780001,-1.400000
11.126689,0.151280,-0.044408,0.719800,-9.660000,-7.840000,0.420000
11.130755,-0.178120,0.352336,0.854976,2.660000,11.900000,-0.140000
11.134821,0.031720,0.140544,1.126304,2.240000,10.920000,-0.980000
11.138887,0.130296,-0.193248,0.973072,-6.580000,-10.360000,0.140000
11.142953,0.023424,-0.045384,0.578280,-4.760000,-3.080000,-0.560000
11.147019,-0.015616,0.144936,1.123376,-2.800000,5.600000,-0.560000
11.151085,0.080032,-0.007320,1.009184,-0.560000,-1.260000,-0.280000
11.155152,-0.032696,0.029280,0.667096,1.680000,4.060000,-0.140000
11.159218,0.083448,0.062464,0.849120,-0.700000,4.060000,-1.260000
11.163284,0.004392,-0.087840,0.645624,-3.920000,-4.760000,-0.140000
11.167350,0.079056,0.129320,0.693936,-1.400000,1.260000,-0.280000
11.171416,0.049288,0.047824,1.053592,-5.180000,2.380000,0.140000
11.175482,-0.163968,0.055144,0.562176,1.680000,-5.180000,-0.140000
11.179548,0.218624,-0.013176,0.818376,-1.680000,0.420000,0.560000
11.183614,0.049288,-0.093208,0.919392,-8.820000,-0.700000,0.140000
11.187680,-0.200080,0.142496,0.514840,4.200000,0.840000,-0.280000
11.191746,0.263520,-0.010736,0.730048,-1.120000,2.240000,-1.260000
11.195812,0.018056,-0.032696,0.790072,-7.280000,-1.260000,-0.560000
11.199878,-0.136152,0.160552,0.551928,4.900000,3.780000,-0.140000
11.203944,0.233752,-0.092720,0.923296,-2.800000,-4.760000,0.140000
11.208010,-0.015616,0.047336,0.792024,-4.900000,-2.660000,0.980000
11.212077,-0.129808,0.127856,0.611464,4.480000,6.860000,-1.960000
11.216143,0.320128,-0.172752,0.981368,-4.060000,-7.000000,-1.540000
11.220209,-0.154208,0.127368,0.499712,-3.220000,4.760000,-1.260000
11.224275,0.008784,0.090768,0.789096,3.920000,6.160000,-2.240000
11.228341,0.211304,-0.165920,0.864248,-5.740000,-8.820000,0.700000
11.232407,-0.162016,0.230824,0.628056,-0.280000,9.660000,0.000000
11.236473,0.111752,-0.056120,1.002352,1.400000,0.560000,0.420000
11.240539,0.046360,-0.096624,0.743224,-3.500000,-9.660000,0.980000
11.244605,-0.050752,0.277184,0.837408,2.520000,8.260000,-0.560000
11.248671,0.155184,-0.018056,1.018456,-4.200000,0.000000,-0.560000
11.252737,0.059536,-0.138592,0.741272,-3.080000,-9.100000,-1.680000
11.256803,-0.112240,0.239120,0.718336,3.080000,6.580000,-0.980000
11.260869,0.121024,-0.015616,1.174128,-1.680000,1.540000,0.000000
11.264935,0.031720,-0.087840,1.048224,-1.540000,-6.300000,-1.400000
11.269002,-0.021472,0.041480,0.632936,3.360000,3.780000,-2.240000
11.273068,-0.034648,0.130784,1.041392,-1.680000,1.960000,0.420000
11.277134,0.019520,0.022448,1.122400,-1.400000,-6.300000,0.420000
11.281200,0.203008,-0.120048,0.915000,-2.240000,-5.320000,0.560000
11.285266,-0.023424,0.152744,1.019920,2.100000,5.880000,-2.240000
11.289332,-0.068320,0.080520,1.185840,3.500000,1.960000,-2.520000
11.293398,0.203008,-0.150304,0.738344,-5.740000,-7.000000,2.380000
11.297464,0.050752,0.125416,0.916952,-2.520000,6.160000,0.560000
11.301530,-0.190808,0.222040,1.261968,5.320000,12.040000,-3.780000
11.305596,0.154208,-0.147376,1.065304,-0.420000,-14.560000,-1.260000
11.309662,0.082960,-0.162504,0.786168,-7.980000,-9.660000,2.800000
11.313728,-0.124440,0.237656,1.015528,2.940000,11.760000,0.000000
11.317794,0.138592,0.204472,1.398120,5.600000,0.000000,-2.380000
11.321860,0.223016,-0.147376,1.124352,-5.740000,-6.300000,-1.120000
11.325927,-0.177632,-0.045384,0.673440,-3.220000,3.360000,-1.260000
11.329993,-0.079056,0.099064,0.966240,3.220000,1.540000,-0.700000
11.334059,0.180560,0.082472,1.486936,-0.980000,-3.080000,0.000000
11.338125,0.033672,0.017080,0.982832,-4.620000,-3.640000,0.700000
11.342191,0.019520,0.126880,0.921832,2.100000,0.560000,-1.120000
11.346257,-0.033184,0.064904,1.209752,1.820000,2.380000,-1.400000
11.350323,0.142984,-0.178120,1.233664,-4.060000,-7.840000,-0.840000
11.354389,0.039528,-0.079544,0.762256,-4.480000,-3.920000,-1.260000
11.358455,0.033184,0.282552,1.326384,3.500000,8.120000,-2.800000
11.362521,-0.018544,0.368928,1.456192,2.240000,10.640000,-2.380000
11.366587,0.044408,-0.238632,1.186816,-2.240000,-7.280000,-0.420000
11.370653,-0.010248,-0.328912,0.534848,-4.340000,-11.900000,0.700000
11.374719,-0.021960,0.192272,1.180960,1.540000,1.820000,0.980000
11.378785,0.017080,0.363560,1.596736,2.800000,7.420000,0.700000
11.382851,0.242536,-0.035624,1.258552,-3.500000,-3.640000,-0.560000
11.386918,0.039528,-0.154696,0.780800,-6.160000,-2.660000,-1.540000
11.390984,-0.142496,0.168848,1.027240,2.520000,7.000000,-2.240000
11.395050,-0.068808,0.101504,1.423496,5.460000,1.540000,-2.660000
11.399116,0.207888,-0.170800,1.179984,-5.880000,-13.580000,-1.540000
11.403182,0.043920,-0.047336,0.935984,-9.800000,-13.720000,0.280000
11.407248,-0.116632,0.255712,1.158512,1.260000,1.120000,0.840000
11.411314,-0.229848,0.326960,1.009672,7.420000,-2.940000,0.560000
11.415380,0.058072,-0.147864,1.339072,1.960000,-26.600000,1.120000
11.419446,0.298656,-0.252784,1.358104,-10.080000,-39.060001,1.540000
11.423512,0.040016,0.068808,0.807152,-4.620000,-28.840000,0.560000
11.427578,-0.196664,0.227408,1.110688,4.480000,-13.020000,0.420000
11.431644,-0.021960,0.157624,1.122888,3.500000,-12.740000,2.240000
11.435710,0.175680,-0.097600,1.433744,-6.020000,-26.180000,3.500000
11.439776,0.145424,-0.095648,0.966240,-6.440000,-27.020000,1.260000
11.443843,-0.092232,0.175192,1.134600,2.380000,-18.480000,-0.840000
11.447909,-0.068320,0.183488,1.219512,4.620000,-22.960001,-0.140000
11.451975,0.096624,-0.109312,0.883280,-5.740000,-32.060001,2.240000
11.456041,0.056608,-0.251808,1.155584,-7.840000,-33.320000,2.100000
11.460107,0.121512,0.244000,1.246352,1.260000,-16.379999,-0.140000
11.464173,0.022936,0.412848,1.463512,4.900000,-5.600000,-1.120000
11.468239,-0.061488,-0.043920,1.091656,-1.540000,-20.860001,0.840000
11.472305,0.032696,-0.479216,0.726632,-7.840000,-36.400002,1.960000
11.476371,0.006832,0.058072,1.007720,-2.940000,-29.680000,2.240000
11.480437,-0.074176,0.520208,1.158024,5.740000,-17.500000,1.820000
11.484503,0.077592,0.062464,1.423008,0.700000,-23.940001,1.540000
11.488569,0.215208,-0.233752,1.135088,-6.860000,-37.099998,0.840000
11.492635,0.056120,0.004880,0.805200,-5.040000,-25.059999,0.000000
11.496701,-0.173728,0.164456,0.931104,2.380000,-8.680000,-0.840000
11.500768,-0.055144,0.074176,1.372256,2.100000,-21.559999,0.420000
11.504834,0.290848,-0.106384,1.329312,-8.680000,-33.320000,3.360000
11.508900,-0.016104,0.115656,0.862784,-5.600000,-25.059999,3.920000
11.512966,-0.122488,0.203008,0.830576,5.180000,-15.400000,1.820000
11.517032,-0.016104,-0.034648,1.357128,4.480000,-21.420000,0.420000
11.521098,0.284504,-0.157624,1.303448,-9.240000,-32.759998,2.100000
11.525164,0.073688,-0.060024,0.921832,-7.840000,-24.639999,2.240000
11.529230,-0.094184,0.359656,1.080432,2.100000,-6.440000,0.000000
11.533296,-0.041480,0.281088,1.232200,6.720000,-5.600000,-0.840000
11.537362,0.140056,-0.228384,1.238544,-4.340000,-24.780001,0.560000
11.541428,0.084912,-0.314272,0.883768,-7.840000,-29.540001,0.560000
11.545494,0.090768,0.082472,1.356640,1.260000,-13.720000,0.000000
11.549560,0.139080,0.513376,1.271240,4.620000,5.740000,-0.700000
11.553626,0.008296,0.166408,1.388848,-1.680000,7.700000,-0.560000
11.557693,0.070760,-0.394304,0.867664,-6.300000,-5.460000,-0.280000
11.561759,-0.063928,-0.066368,1.022360,-0.140000,-0.560000,-2.380000
11.565825,-0.105896,0.337696,1.184864,4.620000,4.480000,-1.120000
11.569891,0.110288,0.006344,1.598200,-0.980000,-7.840000,1.400000
11.573957,0.233264,-0.061976,0.979904,-7.420000,-10.640000,1.960000
11.578023,0.074176,0.082472,1.124840,-2.520000,5.320000,-0.560000
11.582089,-0.005856,0.254248,1.141432,2.520000,26.740000,-2.520000
11.586155,-0.142496,0.136152,1.375672,4.060000,19.600000,-3.360000
11.590221,0.028792,-0.295240,1.055544,-3.360000,-6.160000,-1.960000
11.594287,0.216184,-0.207888,1.332728,-8.260000,-12.880000,-0.840000
11.598353,-0.050264,0.373320,1.000888,-3.080000,-1.540000,-0.420000
11.602419,-0.130296,0.267424,1.256600,4.060000,5.880000,1.260000
11.606485,-0.042456,0.072712,1.023824,2.100000,2.940000,1.260000
11.610551,0.243512,-0.251808,1.294176,-7.000000,-9.660000,0.420000
11.614617,0.176168,-0.052216,1.232200,-8.540000,-3.500000,-1.960000
11.618684,-0.052704,0.162016,0.987712,0.840000,5.740000,-2.520000
11.622750,-0.256688,0.272304,0.872056,6.160000,5.040000,-1.540000
11.626816,0.103944,-0.040504,1.110688,-3.220000,-4.480000,1.400000
11.630882,0.209352,-0.105408,1.232688,-7.980000,-14.560000,0.560000
11.634948,-0.009272,0.020496,0.939400,-1.960000,-4.900000,-0.980000
11.639014,0.006344,0.263520,0.836432,1.540000,7.280000,-0.980000
11.643080,0.039528,0.032696,1.037488,-2.800000,2.800000,1.260000
11.647146,0.028304,-0.180560,0.865224,-4.480000,-7.700000,1.400000
11.651212,0.066856,0.036112,0.798856,-0.280000,-0.420000,-0.280000
11.655278,-0.061976,0.286456,1.057496,0.980000,7.280000,-1.540000
11.659344,-0.002928,-0.041968,0.813008,1.400000,-10.220000,-1.680000
11.663410,0.174216,-0.133712,0.688568,-8.260000,-9.240000,-0.140000
11.667476,-0.007320,0.210328,0.813496,-5.740000,3.220000,-2.100000
11.671542,-0.047336,0.072224,1.051152,1.260000,-3.220000,-3.080000
11.675609,0.095160,-0.052216,0.667096,-3.640000,-2.380000,0.140000
11.679675,0.072224,0.018544,0.843264,-7.000000,2.240000,0.000000
11.683741,-0.032696,0.045384,0.905728,1.120000,-2.520000,-1.680000
11.687807,0.036600,-0.028304,0.635864,-0.140000,2.380000,-0.140000
11.691873,0.060024,0.099064,0.942816,-1.960000,6.020000,-0.840000
11.695939,-0.036600,0.008296,0.918904,2.520000,-7.140000,-1.120000
11.700005,0.035624,-0.024400,0.585112,-1.680000,-3.080000,1.260000
11.704071,0.055632,0.136152,0.847656,-1.680000,6.720000,-1.120000
11.708137,0.105408,0.065392,1.057496,-2.940000,-5.600000,-1.820000
11.712203,-0.067344,0.025864,0.432368,-0.700000,2.520000,-1.260000
11.716269,0.097600,0.013664,0.876936,-2.800000,2.100000,-0.980000
11.720335,0.084424,-0.021472,1.001864,-3.920000,-4.340000,-0.140000
11.724401,-0.091256,0.070760,0.657824,1.960000,4.620000,0.000000
11.728467,0.066368,0.054168,0.902800,2.240000,2.940000,-0.700000
11.732534,0.060024,0.042456,1.023336,-0.840000,-1.540000,0.280000
11.736600,-0.078080,0.037576,0.660752,1.540000,1.120000,0.840000
11.740666,0.172752,-0.006832,0.912072,-0.700000,2.520000,-0.840000
11.744732,-0.043920,0.034648,1.001376,-2.380000,-3.920000,-0.980000
11.748798,-0.019520,0.100040,0.824720,-0.140000,2.100000,-0.280000
11.752864,0.138104,0.039040,0.975024,-4.620000,1.260000,-0.280000
11.756930,-0.002928,0.008296,0.995032,0.280000,-2.520000,-3.500000
11.760996,-0.050264,0.034648,0.677344,-1.120000,-3.220000,0.000000
11.765062,0.075640,0.100528,0.947208,-6.020000,-3.220000,2.660000
11.769128,0.056608,0.059048,1.205848,-1.960000,-3.780000,-0.700000
11.773194,0.061488,-0.071736,0.873520,-0.280000,-9.520000,-1.400000
11.777260,-0.051728,0.099552,0.689544,-4.340000,0.980000,1.960000
11.781326,0.009760,0.174704,1.085312,-3.500000,4.340000,1.540000
11.785392,0.202520,-0.061000,1.318576,-3.500000,-5.040000,-1.260000
11.789458,-0.015128,-0.067832,0.839848,-6.440000,2.800000,-2.100000
11.793525,-0.089304,0.151280,0.875960,-1.540000,0.420000,-1.400000
11.797591,0.137616,0.101992,1.191208,-3.780000,-6.720000,-0.560000
11.801657,0.082472,-0.062952,1.145824,-8.540000,-2.660000,-0.280000
11.805723,0.004880,0.111752,0.921344,-2.660000,4.200000,-1.540000
11.809789,-0.061488,0.101992,1.236592,2.800000,7.700000,-3.080000
11.813855,0.140056,-0.081496,1.217072,-8.260000,-2.940000,-0.280000
11.817921,0.062952,-0.013664,0.757376,-12.180000,-6.160000,2.240000
11.821987,-0.159576,0.127368,1.070184,-0.980000,9.100000,0.420000
11.826053,0.030744,0.295728,1.434232,3.920000,7.840000,-2.100000
11.830119,0.223016,0.013664,1.391288,-4.200000,-7.280000,-0.280000
11.834185,0.047824,-0.289872,0.976488,-10.080000,-10.220000,1.260000
11.838251,-0.095648,-0.057584,0.821792,-0.140000,1.960000,0.140000
11.842317,-0.066856,0.338672,1.158512,11.200000,8.960000,-0.560000
11.846383,0.145912,0.216672,1.712392,4.480000,-0.140000,1.120000
11.850450,0.233752,-0.212280,1.120936,-4.340000,-7.140000,0.000000
11.854516,-0.091256,-0.040016,0.777384,1.260000,-4.480000,-2.520000
11.858582,-0.037576,0.212768,0.888648,3.500000,7.140000,-2.240000
11.862648,-0.014152,0.078568,1.546472,0.980000,1.960000,-0.280000
11.866714,0.159088,-0.141032,1.288320,-5.320000,-9.100000,-0.140000
11.870780,0.124440,-0.018056,0.819352,-6.020000,-4.620000,0.560000
11.874846,-0.153232,0.430416,1.134600,6.020000,10.920000,-1.400000
11.878912,0.011712,0.136152,1.279048,5.460000,7.140000,-1.540000
11.882978,0.081984,-0.363072,1.042368,-4.340000,-13.160000,-1.540000
11.887044,0.150304,-0.176168,0.941840,-7.420000,-13.860000,0.000000
11.891110,0.006344,0.430416,0.922320,-1.820000,7.420000,0.840000
11.895176,-0.121024,0.347456,1.419592,6.440000,12.880000,-0.560000
11.899242,0.097600,-0.306464,1.107760,-2.100000,-7.140000,0.140000
11.903308,0.157136,-0.238632,0.656848,-8.820000,-12.880000,1.120000
11.907375,-0.073200,0.285968,1.029680,2.100000,5.740000,-0.140000
11.911441,-0.080520,0.279136,1.279536,3.780000,5.600000,0.000000
11.915507,0.198616,-0.108336,1.064816,-2.940000,-8.120000,0.980000
11.919573,0.077104,-0.072712,0.807640,-4.200000,-1.680000,0.140000
11.923639,-0.114192,0.139568,1.120448,4.480000,8.540000,-2.940000
11.927705,0.119072,0.098088,1.265384,-0.840000,-2.940000,-1.960000
11.931771,0.120048,-0.094672,0.755912,-7.560000,-6.440000,1.680000
11.935837,-0.144936,0.113704,0.772992,-0.140000,7.840000,0.840000
11.939903,0.066368,0.170312,1.396168,5.600000,4.060000,-1.820000
11.943969,0.138592,-0.022936,1.230248,-3.920000,-5.600000,-1.260000
11.948035,0.023424,-0.185440,0.667584,-4.620000,-10.780000,1.120000
11.952101,-0.065392,0.148352,0.819840,3.080000,8.540000,-0.700000
11.956167,0.108824,0.236192,1.461072,0.420000,3.920000,-2.100000
11.960233,0.120048,0.033672,1.141920,-2.940000,-2.940000,-1.540000
11.964300,-0.105408,-0.155672,0.628544,-1.120000,-1.540000,-0.840000
11.968366,-0.081008,0.032208,1.117032,2.800000,0.840000,0.140000
11.972432,0.191784,0.166896,1.392264,-2.520000,-3.500000,1.960000
11.976498,0.103456,0.029280,1.114592,-3.080000,-4.200000,2.100000
11.980564,-0.041480,0.087352,1.032608,2.520000,4.340000,-0.280000
11.984630,0.010248,0.212768,1.224880,6.720000,5.740000,-2.100000
11.988696,0.043432,-0.200080,1.268800,-2.520000,-5.040000,-1.260000
11.992762,0.167872,-0.233264,1.168272,-4.480000,-15.120000,-1.680000
11.996828,0.040016,0.153720,1.397632,0.280000,1.820000,-2.520000
12.000894,-0.029280,0.484584,1.169248,5.740000,13.720000,-2.520000
12.004960,-0.064416,0.141520,1.586488,2.380000,4.060000,0.000000
12.009026,0.142496,-0.187880,1.072624,-3.500000,-6.580000,0.000000
12.013092,0.059048,-0.084424,1.289784,-1.680000,-2.100000,-2.380000
12.017158,0.004392,0.204472,1.541104,6.300000,7.140000,-3.780000
12.021224,-0.055144,0.154696,1.458632,5.880000,0.420000,-1.960000
12.025291,0.120536,-0.230336,1.463512,-3.500000,-9.520000,0.420000
12.029357,0.101504,-0.052704,1.109712,-7.700000,-11.340000,0.560000
12.033423,0.154696,0.109312,1.479616,-0.980000,-2.380000,-0.420000
12.037489,-0.096624,0.207888,1.214144,3.080000,5.320000,0.000000
12.041555,-0.142496,0.079544,1.323456,1.960000,2.520000,1.680000
12.045621,0.025864,0.093696,1.196088,0.840000,-0.420000,2.240000
12.049687,0.080032,0.031232,1.645048,-0.840000,-0.700000,0.560000
12.053753,0.253760,0.126392,1.409344,-1.540000,-1.120000,-2.660000
12.057819,0.087840,0.077592,1.327848,0.840000,0.420000,-4.060000
12.061885,-0.003904,0.046360,1.180472,0.280000,3.780000,-2.240000
12.065951,-0.139568,0.066856,1.017968,-0.700000,0.840000,0.280000
12.070017,0.040504,-0.138104,1.044320,-4.760000,-6.720000,1.120000
12.074083,0.207888,-0.058072,1.361032,-6.580000,-6.580000,0.840000
12.078149,-0.019520,0.178120,0.903288,-0.560000,3.360000,-0.420000
12.082216,-0.000488,0.180072,1.199016,4.900000,8.120000,-1.260000
12.086282,0.040504,0.122976,1.317112,-0.140000,1.960000,-1.680000
12.090348,0.156648,-0.164456,1.023336,-5.740000,-8.400000,-1.120000
12.094414,-0.049288,-0.137616,0.589504,-3.220000,-2.520000,-0.840000
12.098480,-0.107848,0.270840,0.999912,3.780000,7.840000,-1.260000
12.102546,0.201544,0.150304,1.310280,-3.220000,-0.700000,0.420000
12.106612,0.122976,-0.043432,0.901336,-7.700000,-7.140000,1.400000
12.110678,-0.096136,-0.040016,0.595360,-2.100000,4.620000,-0.420000
12.114744,0.035136,0.057096,1.077016,2.520000,5.880000,-2.520000
12.118810,0.025864,0.075640,1.090680,-3.080000,-4.340000,0.420000
12.122876,0.060512,0.038064,0.812032,-2.520000,-0.280000,0.980000
12.126942,0.081496,0.044408,0.953064,-1.680000,6.440000,-0.840000
12.131008,-0.029768,0.005368,1.003328,3.500000,-2.240000,-1.960000
12.135074,-0.030744,-0.003416,0.729072,0.000000,-2.520000,0.840000
12.139141,0.198616,0.100040,1.039440,-7.560000,3.220000,0.560000
12.143207,0.065880,0.060512,1.150216,-2.240000,1.120000,-2.940000
12.147273,-0.035136,0.008784,0.759816,3.220000,-0.840000,-1.680000
12.151339,-0.016592,0.015616,0.849608,-2.940000,2.800000,2.380000
12.155405,0.086864,0.034160,1.174616,-3.780000,-0.140000,1.260000
12.159471,0.146400,0.059536,1.080432,1.260000,-4.340000,-1.260000
12.163537,-0.043920,0.094184,0.824720,0.140000,7.840000,-0.840000
12.167603,-0.047336,0.055144,1.121912,0.980000,0.560000,0.420000
12.171669,0.067344,-0.102480,1.177056,-0.140000,-7.000000,-0.140000
12.175735,0.192760,-0.022448,0.969656,-4.760000,-3.500000,0.280000
12.179801,-0.033672,0.318176,1.193160,2.940000,7.700000,-1.540000
12.183867,-0.002440,0.174704,1.497184,9.800000,5.180000,-3.640000
12.187933,0.116144,-0.313784,0.967704,0.280000,-9.660000,-2.380000
12.191999,0.067832,-0.195688,0.848144,-1.960000,-9.380000,-0.700000
12.196066,-0.100040,0.341600,1.193160,8.400000,6.860000,-0.840000
12.200132,0.065392,0.297680,1.564040,10.780000,10.500000,-1.540000
12.204198,0.142496,0.011224,1.243424,-0.280000,-3.640000,-1.120000
12.208264,0.116144,-0.170312,0.999424,-0.980000,-7.280000,-1.120000
12.212330,-0.101504,0.022448,1.026264,4.340000,5.460000,-1.120000
12.216396,-0.095160,0.153232,1.148752,9.800000,6.440000,-2.240000
12.220462,0.144936,-0.088328,1.442040,3.640000,-10.080000,-0.420000
12.224528,0.294264,-0.039040,1.341512,-3.780000,-12.180000,0.560000
12.228594,-0.066856,0.241072,0.824232,0.560000,6.160000,0.000000
12.232660,-0.180072,0.255712,0.951600,12.040000,13.300000,-1.540000
12.236726,0.062952,-0.047824,1.467904,7.980000,2.520000,-1.540000
12.240792,0.248392,-0.144936,1.314672,-4.060000,-10.780000,-0.420000
12.244858,0.104432,-0.102480,0.739808,-2.100000,-8.120000,-0.140000
12.248924,-0.173240,0.237656,1.079456,7.980000,7.140000,-0.980000
12.252990,0.015616,0.264008,1.148752,7.980000,9.240000,-0.560000
12.257057,0.104920,-0.052216,1.293688,-0.420000,-6.720000,0.560000
12.261123,0.187392,-0.202032,0.862784,-2.380000,-9.380000,-0.420000
12.265189,-0.023912,0.229360,0.779336,1.680000,4.340000,-2.100000
12.269255,-0.001464,0.191784,1.255136,5.180000,6.440000,-1.820000
12.273321,-0.017080,-0.145912,0.946720,-2.100000,-3.500000,-0.560000
12.277387,0.115656,-0.085400,0.772504,-5.040000,-3.780000,0.700000
12.281453,0.074664,0.364536,1.145336,-1.680000,10.780000,-1.400000
12.285519,0.002928,0.050752,1.182424,-2.100000,-1.120000,-1.540000
12.289585,-0.013176,-0.253760,0.628544,-5.320000,-8.960000,1.680000
12.293651,0.090768,0.010736,0.704184,-3.920000,0.560000,3.080000
12.297717,0.011224,0.336232,1.231712,0.840000,5.180000,0.560000
12.301783,0.088816,-0.032696,1.057984,-0.840000,-1.960000,-1.540000
12.305849,-0.067832,-0.134688,0.584136,-2.240000,-6.020000,0.280000
12.309915,-0.084424,0.136640,0.882304,2.800000,-7.980000,0.000000
12.313982,0.201544,0.099064,1.343464,-2.100000,-13.580000,-0.980000
12.318048,0.111752,-0.025376,0.804712,-7.000000,-9.660000,-0.420000
12.322114,-0.113216,0.109312,0.674904,2.240000,-3.780000,-2.800000
12.326180,0.135664,-0.001952,1.173152,-1.960000,-8.540000,-0.840000
12.330246,0.102968,-0.038552,0.915000,-7.420000,-2.800000,2.940000
12.334312,0.021960,0.117608,0.874984,-0.140000,6.160000,-0.420000
12.338378,0.087840,0.073688,1.076528,4.900000,1.960000,-3.920000
12.342444,-0.098088,-0.061488,0.792024,-1.260000,-2.940000,0.420000
12.346510,0.026840,0.024888,0.703696,-1.680000,-6.300000,3.080000
12.350576,0.092720,0.205936,1.226832,2.100000,-1.400000,-1.260000
12.354642,0.096136,-0.020984,1.212192,-1.540000,-7.000000,-1.960000
12.358708,-0.064904,-0.080520,0.695888,-2.520000,-6.860000,1.260000
12.362774,0.066856,0.073688,0.858880,-1.540000,0.980000,1.400000
12.366840,0.151280,0.150792,1.367864,-1.260000,0.140000,-0.560000
12.370907,0.043432,0.021960,1.009672,1.680000,-2.660000,-2.100000
12.374973,-0.051240,-0.084912,0.646112,-1.260000,-1.820000,-1.120000
12.379039,0.033184,0.100040,1.134600,0.560000,-5.880000,-0.140000
12.383105,0.040016,0.034648,1.314672,-0.560000,-5.180000,-0.700000
12.387171,0.135664,-0.019032,0.922808,-3.080000,-9.240000,0.000000
12.391237,0.105408,0.292312,1.013088,1.120000,4.060000,-1.540000
12.395303,-0.094184,0.091744,1.060424,0.700000,2.800000,-2.940000
12.399369,0.098088,-0.360632,1.004792,-3.640000,-11.480000,-1.400000
12.403435,0.089792,0.018544,0.899384,-4.480000,0.000000,-0.840000
12.407501,0.017080,0.466040,1.350296,1.820000,16.379999,-1.960000
12.411567,-0.004392,0.140544,1.262456,4.620000,3.360000,-1.820000
12.415633,0.046360,-0.387472,0.736392,-5.740000,-11.200000,-0.140000
12.419699,-0.000488,-0.063440,0.784216,-2.240000,-6.300000,1.820000
12.423765,-0.039040,0.348920,1.342488,3.640000,5.600000,0.980000
