Time [s],lsm6dsv16x_acc_x [g],lsm6dsv16x_acc_y [g],lsm6dsv16x_acc_z [g],lsm6dsv16x_gyro_x [dps],lsm6dsv16x_gyro_y [dps],lsm6dsv16x_gyro_z [dps]
137.764568,-0.167384,0.246440,0.600728,2.100000,4.760000,-1.680000
137.768635,0.233264,-0.281576,0.651480,-8.400000,-7.420000,-0.840000
137.772701,-0.247904,0.229360,0.571936,-2.380000,5.040000,-1.120000
137.776767,0.119560,-0.135176,0.705160,0.420000,-2.660000,-2.240000
137.780833,-0.083448,-0.026840,0.545584,-6.300000,1.680000,0.700000
137.784899,0.031720,0.031232,0.851560,0.840000,0.000000,-1.120000
137.788965,-0.068808,-0.042456,0.303536,-1.820000,4.480000,0.700000
137.793031,0.112240,0.028792,0.908656,-1.540000,-1.540000,-0.560000
137.797097,-0.247416,0.031232,0.427488,-1.960000,4.060000,1.400000
137.801163,0.227408,-0.049288,1.048712,0.700000,-0.840000,-2.380000
137.805229,-0.174704,-0.063928,0.410896,-8.820000,-1.680000,2.100000
137.809295,-0.096624,0.268400,0.963800,9.660000,8.680000,-4.060000
137.813361,0.296216,-0.447008,0.846680,-12.320000,-8.960000,2.240000
137.817427,-0.479216,0.407968,0.661728,6.720000,9.940000,-2.380000
137.821493,0.358192,-0.277184,0.962824,-0.980000,-5.600000,-0.840000
137.825559,-0.142984,0.063440,0.575840,-5.180000,0.560000,-0.840000
137.829626,-0.024400,0.183488,1.216096,3.080000,7.140000,-3.920000
137.833692,0.067344,-0.233264,0.837408,-2.380000,-8.960000,-1.820000
137.837758,-0.121024,0.062464,0.969168,0.560000,4.340000,-1.120000
137.841824,-0.137128,0.047824,1.442040,1.960000,4.620000,-0.700000
137.845890,0.124928,0.074176,1.296128,-0.420000,-6.160000,-0.280000
137.849956,-0.135176,-0.083448,0.743224,0.140000,2.240000,0.420000
137.854022,-0.134688,-0.061976,1.310280,3.220000,3.220000,0.140000
137.858088,0.019520,-0.031232,1.661152,1.960000,-8.400000,-0.980000
137.862154,0.220088,0.003416,1.382992,-4.760000,-8.540000,-1.260000
137.866220,-0.140544,0.129320,1.325896,0.420000,2.240000,-1.400000
137.870286,-0.236192,0.219600,1.168272,5.600000,9.520000,-1.120000
137.874352,-0.033672,0.022448,1.630896,2.940000,-3.220000,-0.140000
137.878418,0.016104,-0.162016,1.595272,-3.780000,-8.960000,-0.560000
137.882484,0.059048,-0.048312,1.237080,-2.380000,-3.500000,-1.400000
137.886550,-0.168848,0.143472,1.631872,7.840000,5.460000,-2.660000
137.890617,-0.108824,0.057096,1.601616,7.840000,3.780000,-1.960000
137.894683,0.059536,-0.247416,1.667984,-2.800000,-10.500000,0.280000
137.898749,0.118584,-0.146888,1.625528,-7.280000,-11.340000,-0.140000
137.902815,-0.000976,0.058072,1.281976,-2.380000,-0.560000,-2.520000
137.906881,-0.054656,0.057096,1.603080,4.060000,5.040000,-3.360000
137.910947,-0.140544,-0.019032,1.355176,0.560000,-1.540000,-1.260000
137.915013,-0.018056,-0.044896,1.585024,-5.180000,-8.540000,0.280000
137.919079,0.075640,0.058560,1.336632,-6.720000,-5.320000,-0.980000
137.923145,-0.139568,0.020496,1.129720,-2.100000,1.260000,-1.400000
137.927211,-0.138104,0.067344,1.274168,2.940000,4.480000,-0.840000
137.931277,-0.129808,0.157136,1.433744,1.540000,4.620000,0.000000
137.935343,0.080032,0.061976,1.521096,-4.200000,-2.100000,0.140000
137.939409,0.081496,-0.173240,1.576728,-3.220000,-4.620000,-1.260000
137.943475,0.019520,-0.004880,0.945256,-1.540000,-0.420000,-2.240000
137.947541,-0.144448,0.055632,1.075552,3.640000,5.320000,-2.660000
137.951607,0.003416,0.005856,1.377136,-0.560000,-4.060000,-1.400000
137.955674,0.008296,-0.113704,1.129232,-8.960000,-10.220000,1.260000
137.959740,-0.061976,0.027816,0.580720,-5.600000,4.480000,1.820000
137.963806,-0.169336,0.148840,1.129232,4.060000,13.020000,-1.820000
137.967872,0.215208,-0.031232,1.447408,0.560000,-2.940000,-3.220000
137.971938,0.023424,-0.150792,0.768112,-6.160000,-5.740000,-0.560000
137.976004,-0.183976,-0.008296,0.622200,-0.560000,4.060000,0.000000
137.980070,-0.032696,-0.037088,1.005280,2.240000,0.000000,-1.400000
137.984136,0.033672,0.124440,0.774944,-1.540000,0.420000,0.000000
137.988202,0.023912,0.120536,0.766648,-3.220000,2.660000,-0.980000
137.992268,0.016592,-0.220576,0.813984,-4.760000,-2.380000,0.140000
137.996334,-0.078080,0.027816,0.685152,0.420000,3.220000,0.700000
138.000400,-0.002928,0.063928,1.143384,0.140000,5.180000,-0.560000
138.004466,-0.177144,-0.032208,0.742248,2.100000,-1.540000,0.560000
138.008532,0.045384,-0.021960,0.759816,0.700000,5.040000,-1.260000
138.012598,0.110288,-0.166896,0.630984,-5.040000,-3.360000,0.140000
138.016665,-0.175680,0.197640,0.607560,3.360000,4.060000,-0.560000
138.020731,0.102968,-0.076616,0.824232,-2.800000,-1.960000,-2.240000
138.024797,-0.085400,0.007808,0.709552,-6.020000,-0.840000,0.000000
138.028863,-0.068808,0.062464,0.843264,0.420000,4.200000,-1.820000
138.032929,0.035624,-0.185928,0.539240,-2.520000,-4.340000,1.120000
138.036995,0.000976,0.152256,0.701256,-0.420000,2.100000,-0.280000
138.041061,-0.023424,-0.047336,0.979416,-4.060000,-1.540000,-0.280000
138.045127,-0.131272,0.017080,0.640256,1.540000,1.120000,-0.140000
138.049193,0.174216,-0.095160,0.992104,-2.100000,0.840000,-0.420000
138.053259,-0.183488,0.007320,0.726632,1.680000,-2.520000,0.560000
138.057325,0.008784,0.078080,0.721264,3.640000,5.320000,-0.980000
138.061391,0.060512,-0.032696,0.918904,-4.480000,-4.900000,0.000000
138.065457,-0.074176,0.137616,0.864736,3.080000,-1.960000,-1.680000
138.069523,0.039040,-0.072712,0.839360,-2.940000,1.540000,-2.520000
138.073589,-0.119560,-0.124440,1.077504,-1.960000,-5.180000,-3.780000
138.077656,-0.031232,0.113216,0.916464,1.400000,0.000000,-2.100000
138.081722,0.119560,0.056608,1.080920,-3.360000,4.060000,-0.140000
138.085788,-0.162992,-0.112240,0.979416,2.660000,-3.360000,-1.540000
138.089854,-0.048312,-0.038064,0.793000,5.180000,-0.980000,-0.420000
138.093920,0.095160,0.042456,1.138504,-0.700000,5.320000,0.280000
138.097986,-0.049288,0.035624,1.422032,0.700000,-2.800000,-2.100000
138.102052,0.082960,-0.044408,0.874008,3.500000,-1.680000,-2.100000
138.106118,-0.157624,0.034648,0.984784,0.000000,7.280000,-1.400000
138.110184,-0.110288,-0.118096,1.319552,2.940000,-4.900000,-1.820000
138.114250,0.081008,-0.212280,1.087752,-1.960000,-10.500000,-0.140000
138.118316,0.063928,0.297680,1.191696,-1.960000,4.480000,-0.140000
138.122382,-0.079544,0.290848,1.277096,4.340000,11.060000,-2.800000
138.126448,-0.052216,-0.242536,0.936472,1.680000,-4.900000,-2.660000
138.130514,-0.051728,-0.319640,0.600728,-2.240000,-6.160000,-0.280000
138.134580,-0.085400,0.180072,1.468392,1.820000,2.660000,-0.700000
138.138647,0.026352,0.041968,1.531832,1.120000,0.000000,-1.260000
138.142713,0.025376,-0.081984,1.080432,-1.120000,-5.460000,-0.840000
138.146779,0.020008,0.180072,0.843752,0.700000,6.020000,-0.420000
138.150845,-0.111752,0.076128,1.221464,1.400000,5.460000,-1.820000
138.154911,-0.027816,-0.263032,0.803736,0.280000,-7.280000,-0.980000
138.158977,-0.032208,-0.142984,0.855952,-2.100000,-3.920000,0.980000
138.163043,0.098088,0.290360,1.309792,1.820000,5.180000,-0.420000
138.167109,-0.064904,0.042456,1.245864,1.260000,0.980000,-1.680000
138.171175,-0.008784,-0.147376,0.605608,-0.560000,-2.380000,-0.280000
138.175241,-0.026352,0.022936,0.770064,-1.540000,3.080000,-0.980000
138.179307,-0.117608,-0.146400,0.974048,-0.980000,-3.780000,-0.700000
138.183373,0.071248,0.159088,1.056032,0.000000,-1.260000,0.420000
138.187439,0.112728,0.021472,1.087752,-6.580000,1.540000,-0.140000
138.191505,-0.291336,-0.044408,0.628056,1.680000,-1.540000,-1.260000
138.195571,-0.003416,0.022936,0.596824,1.820000,4.200000,-0.560000
138.199637,0.181536,-0.188368,0.627568,-10.500000,-4.340000,1.960000
138.203704,-0.144448,0.171288,0.628544,-0.980000,4.340000,-0.560000
138.207770,0.123952,-0.077592,0.951600,-3.360000,-4.340000,-0.420000
138.211836,-0.239608,0.040504,0.314760,-4.200000,4.900000,1.120000
138.215902,0.162016,-0.069296,0.929152,0.420000,-4.480000,-1.260000
138.219968,-0.035136,-0.108824,0.439688,-8.120000,-3.080000,1.400000
138.224034,-0.117120,0.283528,0.834480,4.340000,7.980000,-2.660000
138.228100,0.158600,-0.345992,0.439688,-7.700000,-8.540000,1.960000
138.232166,-0.267912,0.322080,0.682224,2.100000,9.660000,-1.960000
138.236232,0.286456,-0.406992,0.427000,-6.440000,-8.960000,1.400000
138.240298,-0.291336,0.344528,0.620736,-0.280000,6.580000,-0.700000
138.244364,0.244488,-0.218136,0.652456,-1.120000,-3.360000,-0.840000
138.248430,-0.184952,0.075152,0.531432,-5.460000,3.640000,0.000000
138.252496,0.095160,0.004392,0.712968,4.060000,-3.500000,-2.380000
138.256562,-0.089304,-0.051240,0.383568,-7.140000,5.600000,0.700000
138.260628,0.074664,0.002928,0.797880,1.960000,-7.980000,-2.240000
138.264695,-0.187392,0.074664,0.358680,-3.780000,10.640000,0.140000
138.268761,0.224968,-0.156160,0.943792,0.700000,-9.940000,-2.100000
138.272827,-0.267424,0.116632,0.378200,-4.060000,9.240000,0.420000
138.276893,0.174216,-0.071248,0.876936,3.640000,-3.920000,-1.540000
138.280959,-0.086864,-0.082960,0.424560,-7.840000,-1.400000,1.820000
138.285025,-0.039528,0.245464,1.036512,7.420000,5.600000,-3.220000
138.289091,0.073200,-0.335744,0.336720,-8.820000,-6.720000,2.100000
138.293157,-0.154696,0.316224,0.944280,5.740000,5.460000,-3.920000
138.297223,0.175192,-0.289872,0.709552,-6.580000,-6.300000,1.680000
138.301289,-0.308416,0.276208,0.729072,5.880000,7.840000,-1.680000
138.305355,0.342576,-0.322568,0.798856,-5.040000,-10.500000,0.980000
138.309421,-0.312808,0.293288,0.709552,1.820000,4.200000,0.000000
138.313487,0.159576,-0.097600,1.262944,1.120000,0.840000,-1.120000
138.317553,-0.092720,-0.204472,0.569984,-3.220000,-6.720000,0.280000
138.321619,-0.103944,0.283040,0.970144,6.440000,10.220000,-3.920000
138.325686,0.100040,-0.168360,0.894504,-4.340000,-2.660000,0.420000
138.329752,-0.063928,0.088816,0.729560,1.260000,1.120000,-0.420000
138.333818,0.027328,-0.043920,0.986248,2.660000,4.200000,-1.960000
138.337884,-0.026352,-0.114680,1.142896,-0.560000,-6.020000,-0.280000
138.341950,-0.137616,0.162504,0.776896,1.400000,1.540000,1.120000
138.346016,0.139080,0.033184,1.108248,-1.260000,2.800000,-1.120000
138.350082,-0.063928,-0.120536,1.148264,-1.260000,-6.300000,-0.840000
138.354148,-0.176656,0.033672,0.853512,2.100000,1.540000,-0.420000
138.358214,0.137616,0.023424,1.180960,-5.600000,-2.240000,0.840000
138.362280,-0.078080,0.099064,1.281000,-3.080000,-0.700000,-0.700000
138.366346,-0.066856,0.047824,0.811544,1.120000,5.040000,-1.400000
138.370412,-0.076128,-0.102968,0.993080,2.380000,0.980000,-2.940000
138.374478,0.096136,-0.119560,1.525976,-1.540000,-8.400000,-2.800000
138.378544,0.073200,0.000000,0.930616,-5.740000,-7.280000,-0.140000
138.382610,-0.222528,0.164456,1.023824,0.840000,11.200000,0.420000
138.386677,-0.052216,0.116144,1.176080,2.380000,6.580000,-1.400000
138.390743,0.031720,-0.203496,1.223904,-1.960000,-6.160000,-1.120000
138.394809,0.021960,-0.029768,0.891088,-4.620000,-4.340000,-0.560000
138.398875,-0.058072,0.087352,1.149240,0.560000,3.500000,-2.240000
138.402941,-0.013664,0.046848,1.351760,-1.400000,-2.100000,-1.960000
138.407007,-0.021472,-0.058072,0.902800,-3.780000,0.280000,-0.280000
138.411073,-0.158600,0.014152,1.093608,-0.560000,5.180000,-1.260000
138.415139,0.015616,0.068320,1.413736,3.080000,-0.420000,-3.780000
138.419205,0.098576,-0.145424,1.206824,-4.760000,-11.200000,-1.820000
138.423271,-0.054656,0.055632,0.697840,-3.920000,-1.400000,0.280000
138.427337,-0.228384,0.097112,1.057984,2.520000,9.100000,-0.280000
138.431403,0.042456,0.039528,1.482544,2.800000,-0.140000,-2.380000
138.435469,0.068320,-0.198616,1.204872,-3.640000,-6.860000,-0.700000
138.439535,-0.110288,0.098088,0.985272,0.000000,-0.980000,-1.260000
138.443601,-0.017080,0.061488,1.133136,-1.120000,1.120000,-1.540000
138.447668,-0.008784,-0.016104,1.008696,-3.080000,-5.460000,-0.140000
138.451734,-0.020008,-0.078080,0.813496,-3.920000,0.280000,1.680000
138.455800,-0.108824,0.115168,1.249280,0.840000,10.640000,-1.680000
138.459866,0.016104,-0.035624,1.523536,2.520000,-4.340000,-4.480000
138.463932,0.095648,-0.142984,1.037976,-5.880000,-10.360000,-1.540000
138.467998,-0.192272,0.101504,0.616344,-5.180000,1.260000,0.840000
138.472064,-0.097112,0.188368,1.206336,2.100000,4.340000,-0.560000
138.476130,0.081008,-0.115656,1.118008,-3.080000,-5.600000,-0.560000
138.480196,0.012688,0.000976,0.848632,-1.540000,-0.840000,-0.420000
138.484262,-0.065880,-0.000976,1.109712,-1.260000,2.800000,-1.540000
138.488328,-0.013176,0.002928,1.010160,-1.960000,-6.160000,-0.560000
138.492394,0.009760,-0.008296,0.736392,-3.640000,-0.140000,1.120000
138.496460,-0.137128,0.025376,1.137040,0.280000,7.980000,-0.980000
138.500526,-0.008784,-0.013176,1.275144,2.100000,-4.480000,-2.520000
138.504592,0.068320,-0.081984,0.785192,-6.300000,-6.440000,1.680000
138.508659,-0.115656,0.093208,1.007720,-3.640000,9.660000,0.560000
138.512725,-0.039040,0.046848,1.181936,2.100000,0.420000,-2.660000
138.516791,0.106384,-0.124928,0.889624,-0.700000,-3.780000,-2.240000
138.520857,-0.228384,0.062464,0.971120,-4.760000,6.300000,-0.840000
138.524923,-0.026352,0.053192,1.244400,1.120000,-5.880000,-0.980000
138.528989,0.136640,-0.050264,0.811056,-5.040000,-4.200000,1.120000
138.533055,-0.170800,0.066368,0.771528,-0.980000,6.860000,-0.700000
138.537121,-0.054168,0.006344,1.373720,2.800000,0.420000,-2.520000
138.541187,0.067344,-0.043920,0.891576,-5.320000,-6.720000,1.120000
138.545253,-0.026840,0.094672,0.629032,-4.060000,5.320000,2.100000
138.549319,-0.104920,0.060512,1.219024,3.640000,4.760000,-2.100000
138.553385,-0.000976,-0.063928,0.972096,-0.840000,-3.500000,-2.100000
138.557451,0.056608,0.048312,0.719800,-6.580000,-1.820000,1.260000
138.561517,-0.100040,0.118584,1.190720,-1.820000,8.960000,-0.560000
138.565583,-0.005856,-0.112728,1.011136,0.560000,-3.920000,-2.520000
138.569650,0.052704,-0.011224,0.817400,-2.240000,-0.140000,-2.520000
138.573716,-0.210816,0.039040,1.097512,0.140000,7.560000,-1.960000
138.577782,0.070760,-0.018056,1.401048,-0.980000,-7.000000,-0.840000
138.581848,0.096136,-0.008296,0.924272,-3.780000,-3.220000,0.420000
138.585914,-0.295240,-0.004392,0.937448,3.360000,7.560000,-1.960000
138.589980,-0.023424,0.024400,1.437160,3.920000,-3.220000,-3.220000
138.594046,0.126392,-0.109800,1.331752,-4.620000,-11.760000,-1.120000
138.598112,0.023912,0.187880,0.991616,-3.360000,1.120000,0.840000
138.602178,-0.295728,0.196176,0.889136,6.580000,13.440001,-0.700000
138.606244,-0.040016,-0.081496,1.480104,3.640000,-2.940000,-1.120000
138.610310,0.100040,-0.281576,1.486448,-5.320000,-15.820000,-0.420000
138.614376,0.119072,-0.045872,1.003816,-5.180000,-5.600000,-0.560000
138.618442,-0.183976,0.250344,1.251720,7.140000,8.260000,-3.640000
138.622508,-0.042456,0.197152,1.621136,3.080000,6.440000,-3.780000
138.626574,0.057096,0.026840,1.321992,-3.500000,-5.180000,-1.960000
138.630641,-0.044896,-0.242048,0.860344,-7.000000,-5.320000,-0.140000
138.634707,-0.284504,0.055632,1.218048,3.780000,0.840000,-0.700000
138.638773,-0.060512,0.185928,1.447408,9.100000,3.080000,-2.800000
138.642839,0.120048,-0.164944,1.581120,-3.080000,-10.920000,-1.120000
138.646905,0.101992,-0.183000,1.283440,-8.820000,-10.220000,-0.980000
138.650971,-0.012688,0.220088,1.199504,1.820000,6.020000,-2.520000
138.655037,-0.265472,0.228872,1.359568,7.700000,12.880000,-2.800000
138.659103,-0.055144,0.007808,1.535736,1.960000,-2.520000,-0.700000
138.663169,0.188368,-0.127368,1.166808,-9.660000,-12.880000,0.980000
138.667235,-0.047336,-0.113704,1.031632,-7.140000,-5.040000,-1.540000
138.671301,-0.231800,0.088816,1.199016,4.340000,7.000000,-2.800000
138.675367,-0.162504,0.162992,1.332728,5.320000,1.260000,-0.980000
138.679433,0.118096,-0.034648,1.581608,-3.220000,-2.520000,-0.280000
138.683499,0.164944,-0.109800,1.427888,-7.280000,-5.320000,-1.400000
138.687565,-0.091744,0.041480,1.142896,-1.540000,-1.680000,-2.660000
138.691632,-0.181536,0.037088,1.042368,5.040000,4.620000,-3.500000
138.695698,0.037576,0.077592,1.203896,1.820000,-1.120000,-1.680000
138.699764,0.014640,-0.056608,1.324432,-7.000000,-8.820000,0.140000
138.703830,-0.054168,-0.044408,1.022360,-6.860000,-1.680000,-0.140000
138.707896,-0.156648,0.121512,1.036512,4.340000,8.120000,-2.660000
138.711962,-0.039528,0.145424,1.351760,5.600000,6.720000,-3.080000
138.716028,0.146888,-0.129808,1.443016,-3.220000,-7.560000,-1.260000
138.720094,0.040504,-0.320616,1.013088,-10.360000,-14.140000,-0.140000
138.724160,-0.091256,0.213256,0.920368,-0.700000,6.580000,-0.700000
138.728226,-0.176168,0.378688,1.244400,5.740000,15.680000,-1.680000
138.732292,0.033184,-0.052216,1.279048,-0.560000,-4.200000,-1.680000
138.736358,0.000488,-0.422120,0.750544,-7.420000,-13.720000,-0.840000
138.740424,0.003416,-0.005856,0.765184,-4.480000,-0.280000,-0.560000
138.744490,-0.037576,0.418216,1.516216,2.520000,11.620000,-1.960000
138.748556,0.054656,0.044896,1.370792,0.140000,0.280000,-2.240000
138.752622,-0.013664,-0.435296,0.543144,-7.000000,-8.680000,-0.700000
138.756689,-0.083936,0.128832,0.613904,-2.940000,3.360000,0.560000
138.760755,-0.018544,0.149816,1.419104,3.640000,7.280000,-2.380000
138.764821,0.037088,-0.074664,1.124840,-1.400000,-5.320000,-2.520000
138.768887,0.008784,0.013176,0.415776,-4.200000,-3.780000,0.280000
138.772953,-0.099552,0.048312,1.000888,-1.400000,7.420000,-0.420000
138.777019,0.023424,-0.137128,1.080432,-2.240000,-3.080000,0.280000
138.781085,0.013176,0.112728,0.696864,0.000000,3.920000,0.560000
138.785151,-0.114680,0.147864,0.991616,1.960000,9.660000,-0.420000
138.789217,0.082472,-0.251320,1.114592,-0.420000,-4.060000,-0.560000
138.793283,-0.098576,-0.063928,0.584624,-2.380000,-0.840000,-0.140000
138.797349,-0.051728,0.264984,0.630496,2.520000,9.380000,-1.680000
138.801415,0.166408,-0.137616,0.856440,-3.220000,-6.580000,1.400000
138.805481,-0.131272,0.041968,0.667584,-0.280000,0.700000,0.000000
138.809547,0.009272,0.003904,1.218536,0.280000,4.340000,-2.240000
138.813613,0.010248,-0.199104,0.701744,-2.660000,-3.500000,-1.120000
138.817680,-0.126392,0.218624,0.575352,1.260000,7.980000,-0.420000
138.821746,0.068320,-0.089792,0.862296,-0.980000,-5.320000,0.560000
138.825812,-0.047824,0.022936,0.578768,0.560000,-1.820000,0.420000
138.829878,0.057096,0.095648,0.698816,1.260000,6.580000,0.000000
138.833944,0.013176,-0.137128,0.696376,-2.380000,-3.080000,0.420000
138.838010,-0.029768,0.049288,0.985272,1.960000,2.660000,-0.140000
138.842076,0.045384,-0.143472,0.942816,-2.660000,-0.700000,-0.560000
138.846142,-0.268400,0.150792,0.449448,3.080000,2.940000,0.560000
138.850208,0.166896,-0.020008,0.793976,0.560000,-0.560000,0.140000
138.854274,0.051240,-0.112240,0.806664,-4.760000,-4.900000,0.420000
138.858340,-0.189344,0.253272,0.422120,6.160000,6.160000,-0.280000
138.862406,0.214720,-0.169824,0.828136,-1.820000,-1.820000,-0.280000
138.866472,-0.115656,-0.070760,0.900360,-3.500000,-4.340000,0.980000
138.870538,-0.158600,0.141032,0.630496,6.440000,8.400000,-1.680000
138.874604,0.164944,-0.220088,0.766160,-4.340000,-4.900000,1.540000
138.878671,-0.147376,0.107848,0.653920,1.680000,-1.540000,0.700000
138.882737,0.104920,0.014152,0.966240,1.960000,5.740000,-1.540000
138.886803,0.001952,-0.107848,0.486536,-4.060000,-7.140000,1.260000
138.890869,-0.146888,0.219600,0.671976,5.180000,7.560000,-2.100000
138.894935,0.214720,-0.241072,0.812032,-3.780000,-5.040000,0.280000
138.899001,-0.131272,0.116144,0.407480,-0.140000,1.260000,-0.140000
138.903067,0.008784,0.073688,1.160952,3.780000,6.020000,-1.400000
138.907133,0.038064,-0.311344,0.762744,-3.360000,-10.080000,0.700000
138.911199,-0.160064,0.215696,0.809104,4.200000,9.520000,-2.380000
138.915265,0.071736,-0.090768,0.732000,-1.680000,-3.220000,0.840000
138.919331,-0.073688,0.101992,0.648064,1.120000,-0.560000,1.820000
138.923397,0.146888,-0.018544,1.106296,0.840000,3.500000,-0.280000
138.927463,-0.088328,-0.159576,0.846680,1.540000,-3.780000,0.140000
138.931529,-0.075640,0.148840,0.685152,4.900000,6.580000,0.000000
138.935595,0.236192,-0.111752,0.908168,-5.740000,1.120000,0.420000
138.939662,-0.209352,0.089304,0.964776,3.080000,-1.820000,-1.820000
138.943728,-0.057096,-0.011224,1.059936,7.000000,6.440000,-1.400000
138.947794,0.210816,-0.028304,1.098000,-5.460000,-1.820000,1.400000
138.951860,-0.243024,0.097600,0.846680,5.600000,0.840000,-1.120000
138.955926,0.033672,-0.043432,1.005768,5.180000,2.100000,-0.560000
138.959992,-0.033184,-0.032208,1.058960,-1.120000,-0.140000,-1.540000
138.964058,-0.094672,-0.117120,1.246840,1.400000,-8.540000,-0.980000
138.968124,0.159088,0.023912,0.845216,-1.260000,-5.320000,2.800000
138.972190,-0.189344,0.268888,1.092632,1.960000,10.640000,1.960000
138.976256,0.023424,-0.019032,1.135088,6.720000,1.540000,-0.560000
138.980322,0.054656,-0.361120,0.879864,-0.560000,-10.360000,0.420000
138.984388,0.025864,0.014152,1.052616,-2.380000,-3.500000,1.120000
138.988454,-0.028304,0.201544,1.358592,5.460000,3.780000,-2.660000
138.992520,0.100040,-0.051240,1.399584,0.000000,-4.340000,-2.380000
138.996586,-0.074664,-0.001952,0.954040,-2.240000,-2.800000,-1.120000
139.000653,-0.199592,0.081496,1.044808,2.520000,9.100000,-1.540000
139.004719,-0.039528,-0.087840,1.245376,0.000000,-6.720000,-1.540000
139.008785,0.117608,-0.179096,1.011624,-6.160000,-12.040000,0.980000
139.012851,-0.048800,0.106872,0.990152,-2.660000,2.100000,0.420000
139.016917,0.017080,0.194224,1.341512,5.180000,7.840000,-1.960000
139.020983,0.073688,-0.109800,1.533784,-1.260000,-5.880000,-2.240000
139.025049,0.022936,-0.137128,0.895480,-8.400000,-3.220000,0.420000
139.029115,-0.280112,0.079056,0.835456,-0.280000,2.520000,0.980000
139.033181,-0.005368,0.079544,1.204872,-0.420000,2.380000,-0.140000
139.037247,0.062952,-0.141032,1.270752,-5.320000,-9.380000,0.000000
139.041313,0.152744,-0.100528,0.990152,-4.900000,-4.200000,0.560000
139.045379,-0.128344,0.265960,1.166808,3.220000,8.960000,-2.520000
139.049445,0.020496,-0.015616,1.466928,3.920000,0.700000,-3.360000
139.053511,0.051240,-0.257176,0.916952,-6.580000,-14.140000,0.560000
139.057577,-0.234728,-0.009760,0.647576,-4.200000,1.820000,2.100000
139.061644,-0.099064,0.187392,1.163392,3.780000,8.120000,-0.140000
139.065710,0.163968,0.022936,1.585512,-1.820000,-2.240000,-1.540000
139.069776,0.055144,-0.079056,0.955016,-4.060000,-1.680000,-1.260000
139.073842,-0.087352,-0.006832,0.868152,-1.120000,3.500000,-1.540000
139.077908,0.036600,-0.022448,1.124840,-1.120000,-2.940000,-0.420000
139.081974,-0.024400,-0.048312,0.888648,-4.200000,-4.060000,2.380000
139.086040,-0.096624,0.033184,0.829600,-1.400000,5.320000,1.820000
139.090106,0.021472,0.049288,1.468880,2.100000,2.520000,-2.100000
139.094172,0.154208,-0.144936,1.217560,-3.920000,-10.780000,-1.960000
139.098238,-0.141520,-0.024400,0.728096,-4.760000,1.260000,-0.280000
139.102304,-0.083448,0.121512,0.998936,-1.120000,5.180000,0.420000
139.106370,-0.030744,0.023424,1.260992,-1.400000,3.080000,0.280000
139.110436,-0.059536,-0.088816,0.904752,-0.700000,1.680000,0.980000
139.114502,-0.042944,0.019520,1.078480,1.400000,4.480000,-0.280000
139.118568,0.120536,-0.031232,1.328824,-1.540000,-4.620000,-0.840000
139.122635,0.075640,0.077104,0.854976,-4.060000,2.800000,1.120000
139.126701,-0.135176,0.099064,0.771040,-0.280000,18.200001,-0.280000
139.130767,0.071736,-0.045872,1.234640,2.240000,9.800000,-2.660000
139.134833,-0.006832,-0.225456,1.104832,-3.360000,5.600000,-1.120000
139.138899,-0.015128,0.019032,0.878400,-2.940000,6.860000,0.560000
139.142965,-0.002440,0.192760,1.266360,-2.380000,12.040000,-0.280000
139.147031,-0.009760,0.017080,1.105320,-1.540000,4.200000,0.560000
139.151097,-0.148352,-0.111264,0.686616,-0.420000,8.260000,0.280000
139.155163,-0.069296,-0.087352,1.220976,1.400000,5.320000,-2.100000
139.159229,0.155184,-0.019032,1.618696,-3.920000,-1.120000,-2.100000
139.163295,-0.063928,0.023912,0.937448,-5.740000,7.840000,0.140000
139.167361,-0.116632,0.257176,0.937448,2.240000,15.260000,0.420000
139.171427,0.000000,0.041480,1.262944,0.140000,12.880000,-0.700000
139.175493,0.064416,-0.217160,1.060424,-2.380000,-2.100000,-0.840000
139.179559,-0.084912,-0.235704,1.025776,-2.800000,1.120000,-0.840000
139.183626,0.003904,0.171776,1.466440,1.960000,9.800000,-2.800000
139.187692,0.008784,0.144936,1.641144,0.000000,5.040000,-1.960000
139.191758,0.030744,-0.003904,0.848632,-3.920000,1.400000,0.700000
139.195824,-0.243512,-0.000976,0.792512,0.000000,10.780000,1.120000
139.199890,-0.083448,0.070272,1.497184,5.040000,10.080000,-0.980000
139.203956,0.132248,0.025376,1.902224,0.420000,-2.380000,-1.540000
139.208022,0.079056,-0.305000,1.194136,-4.900000,-10.780000,-1.400000
139.212088,-0.062952,-0.149328,1.281000,0.000000,-2.660000,-1.960000
139.216154,-0.177144,0.271328,1.382992,7.280000,7.000000,-2.240000
139.220220,0.010736,0.068808,1.622600,2.800000,-2.940000,-0.560000
139.224286,0.099552,-0.213256,1.516216,-5.600000,-10.360000,0.840000
139.228352,-0.081008,-0.032208,1.011136,-2.660000,-0.420000,-0.280000
139.232418,-0.232288,0.205936,1.501576,7.000000,7.980000,-0.560000
139.236484,-0.212768,0.216672,1.516704,8.400000,6.440000,1.120000
139.240550,0.046848,-0.137616,1.648464,-1.400000,-4.060000,3.780000
139.244617,0.057096,0.047824,1.628944,-2.940000,-6.720000,3.220000
139.248683,0.066856,-0.009272,1.534760,1.960000,0.700000,0.700000
139.252749,-0.086864,0.068808,1.491816,5.180000,3.640000,-1.120000
139.256815,-0.123952,-0.066856,1.715808,5.040000,0.560000,-0.560000
139.260881,-0.030744,0.050752,1.545496,2.240000,-0.420000,0.420000
139.264947,0.037576,0.046360,1.711416,-0.560000,0.280000,0.000000
139.269013,0.017080,0.056120,1.611376,-1.400000,1.820000,-1.260000
139.273079,0.003904,-0.141032,1.527440,-0.700000,-2.520000,-1.680000
139.277145,-0.032696,-0.040504,1.612352,-0.840000,-1.820000,-1.120000
139.281211,-0.164944,-0.008784,1.700680,2.940000,0.280000,0.000000
139.285277,-0.061000,0.113704,1.520120,2.380000,0.140000,1.260000
139.289343,0.012688,0.047336,1.656272,-0.560000,-2.380000,1.400000
139.293409,0.066368,0.023424,1.525976,-3.360000,-0.560000,0.840000
139.297475,-0.110776,-0.054168,1.479616,-1.400000,-3.220000,0.280000
139.301541,0.021960,0.015128,1.486448,1.540000,-1.960000,0.140000
139.305608,-0.203496,0.036112,1.603568,0.560000,0.000000,0.700000
139.309674,0.030744,0.055144,1.499136,0.420000,-1.820000,0.560000
139.313740,-0.004392,0.058072,1.577704,-3.780000,-2.240000,-0.560000
139.317806,0.069784,-0.058072,1.363960,-5.320000,1.400000,-2.240000
139.321872,-0.155184,0.025864,1.263432,-1.400000,2.240000,-1.820000
139.325938,-0.155184,0.013664,1.337608,0.280000,3.640000,0.420000
139.330004,-0.075152,-0.053192,1.643096,-1.680000,-1.960000,1.120000
139.334070,0.217648,-0.137128,1.524512,-4.620000,-8.400000,0.420000
139.338136,0.047336,-0.195200,1.479128,-4.900000,-5.880000,-1.260000
139.342202,-0.025864,0.018544,1.238544,-0.980000,2.940000,-1.680000
139.346268,-0.171776,0.099064,1.310768,4.060000,2.940000,-0.980000
139.350334,-0.036600,-0.061488,1.365424,-3.080000,-8.400000,0.700000
139.354400,0.128344,-0.181536,1.219024,-10.360000,-13.020000,0.980000
139.358466,-0.095160,0.028304,0.946720,-4.340000,0.280000,-0.560000
139.362532,-0.196176,0.357216,1.097512,2.380000,14.700000,-1.400000
139.366598,-0.022448,0.089792,1.426912,0.700000,6.720000,-0.840000
139.370665,0.056608,-0.413336,1.408368,-8.820000,-12.600000,0.560000
139.374731,-0.030256,0.022936,0.892064,-6.020000,-1.540000,-0.280000
139.378797,-0.030256,0.256200,1.269776,2.660000,9.800000,-1.960000
139.382863,0.006344,0.030256,1.229272,-0.840000,-3.360000,-0.420000
139.386929,-0.065880,-0.410408,0.721264,-8.540000,-7.980000,1.400000
139.390995,-0.106872,-0.000976,0.924272,-5.180000,2.660000,0.140000
139.395061,0.093208,0.330864,1.478152,0.280000,8.120000,-1.960000
139.399127,0.003416,0.044408,1.295152,-3.220000,2.940000,-0.420000
139.403193,-0.116144,-0.147376,0.527040,-4.760000,0.840000,0.980000
139.407259,-0.137616,-0.136640,1.062864,-3.080000,-3.360000,0.000000
139.411325,0.079056,-0.041480,1.384944,-3.920000,-9.100000,-0.280000
139.415391,-0.027816,0.124928,0.874008,-4.480000,0.420000,1.120000
139.419457,-0.052216,0.086376,1.089704,-0.560000,8.960000,-0.840000
139.423523,0.028304,-0.052216,1.237568,-1.680000,-1.400000,-1.260000
139.427589,-0.072224,-0.090768,0.898408,-4.200000,0.000000,0.140000
139.431656,-0.174216,-0.072224,1.062376,-2.800000,3.220000,0.280000
139.435722,0.034160,0.027816,1.196576,-1.540000,-5.460000,-0.280000
139.439788,0.140544,0.059048,0.874008,-3.640000,-7.140000,1.120000
139.443854,-0.084912,0.101504,1.069696,-4.060000,9.380000,1.120000
139.447920,-0.123464,0.047336,1.134112,0.560000,5.600000,-1.960000
139.451986,-0.020008,-0.303048,1.001864,-1.540000,-7.700000,-2.100000
139.456052,-0.000976,-0.009760,0.987224,-6.580000,-1.960000,0.280000
139.460118,0.012688,0.305976,1.020408,-4.340000,4.200000,0.280000
139.464184,-0.085888,-0.091744,0.977464,-0.420000,-1.540000,-0.140000
139.468250,-0.088328,-0.169336,0.959408,-2.660000,0.140000,0.140000
139.472316,0.056120,0.154696,1.179984,-3.920000,3.640000,-0.980000
139.476382,-0.042944,-0.039528,1.386408,-0.840000,-6.160000,-2.100000
139.480448,-0.101504,-0.163968,0.666608,-2.520000,-2.240000,0.280000
139.484514,0.015128,0.136640,0.737368,-1.820000,5.180000,0.140000
139.488580,-0.010248,0.023912,1.526952,-0.140000,0.140000,-0.700000
139.492647,-0.035624,-0.044408,1.210728,-1.680000,-4.340000,-0.840000
139.496713,-0.031720,0.056608,0.665632,-2.240000,2.380000,-1.260000
139.500779,0.003416,-0.101016,1.302960,-3.640000,-1.680000,-2.380000
139.504845,-0.049288,-0.009760,0.931592,-1.400000,-3.640000,-0.420000
139.508911,-0.070272,0.009272,0.849608,-1.120000,5.740000,0.420000
139.512977,-0.063928,0.072224,1.644072,0.980000,-0.420000,-1.120000
139.517043,0.105408,0.093208,1.059936,-1.260000,-5.880000,-0.840000
139.521109,-0.103944,-0.126880,0.647088,-1.820000,1.260000,0.140000
139.525175,-0.113704,-0.091744,1.095072,0.140000,0.980000,-1.400000
139.529241,0.012688,-0.092232,1.463024,0.420000,-6.440000,-2.380000
139.533307,0.072224,0.094184,1.259528,-4.060000,-2.380000,0.000000
139.537373,-0.046360,0.328912,0.922808,0.560000,9.940000,-0.420000
139.541439,-0.113704,-0.138592,1.171200,2.380000,1.260000,-1.820000
139.545505,-0.006344,-0.251808,0.936472,-1.680000,-10.220000,-0.980000
139.549571,-0.023912,-0.037088,1.078480,-1.540000,-4.340000,-0.280000
139.553638,0.051240,0.257176,1.349808,0.280000,2.380000,-1.540000
139.557704,-0.054168,-0.133224,1.137528,-0.700000,-3.500000,-1.400000
139.561770,-0.137128,-0.018056,0.928176,-2.240000,0.140000,0.700000
139.565836,-0.055144,0.186904,1.068232,1.120000,8.260000,0.560000
139.569902,0.012200,-0.043920,1.533784,1.400000,-2.800000,0.140000
139.573968,0.032696,-0.241072,0.948672,-0.560000,-12.320000,0.280000
139.578034,-0.007808,-0.029280,1.031144,-2.800000,-3.780000,-0.280000
139.582100,0.020008,0.331840,1.172664,-1.260000,6.160000,-1.680000
139.586166,-0.069296,-0.045384,1.138504,-1.120000,1.960000,0.000000
139.590232,-0.180560,-0.063440,0.784216,0.980000,2.940000,0.000000
139.594298,-0.009272,-0.063440,1.345416,0.420000,2.660000,-1.540000
139.598364,0.065880,0.036600,1.422520,-0.840000,-9.240000,-2.240000
139.602430,0.079056,0.013664,0.730536,-2.240000,-3.080000,-0.140000
139.606496,-0.228872,-0.011224,0.851072,-0.280000,7.700000,-0.280000
139.610562,-0.019520,-0.014152,1.370304,0.840000,0.140000,-1.400000
139.614629,0.020496,0.008296,1.177056,-0.980000,-2.520000,-0.140000
139.618695,-0.031720,0.090768,0.996496,-1.120000,2.800000,-0.140000
139.622761,0.014152,-0.003904,0.922808,0.000000,-1.540000,-0.980000
139.626827,-0.074176,-0.203984,0.822280,-2.240000,-5.880000,0.420000
139.630893,-0.019520,0.044896,0.955016,-0.560000,0.560000,1.680000
139.634959,0.004880,0.214232,1.368840,0.420000,4.480000,-1.680000
139.639025,-0.044408,-0.143960,1.021384,0.700000,-4.200000,-2.940000
139.643091,-0.042456,-0.020008,0.789584,-2.380000,0.560000,-1.680000
139.647157,-0.057584,0.043920,0.960872,-3.780000,1.400000,-0.420000
139.651223,-0.085400,-0.043432,0.756400,2.240000,-3.780000,0.140000
139.655289,0.089304,0.079056,1.008696,-0.140000,1.680000,0.560000
139.659355,0.051240,-0.037576,1.164856,-3.640000,0.980000,-1.260000
139.663421,-0.278160,-0.009272,0.460672,2.520000,0.420000,-1.540000
139.667487,0.118096,-0.027328,0.702720,0.980000,3.080000,-0.140000
139.671553,0.092232,-0.005856,1.098488,-8.120000,-2.940000,1.400000
139.675620,-0.219600,0.150792,0.721752,3.080000,4.480000,-1.960000
139.679686,0.072224,-0.140056,1.036512,0.980000,0.980000,-2.240000
139.683752,-0.029768,-0.150304,0.769576,-5.600000,-7.980000,1.540000
139.687818,-0.185440,0.252296,0.828624,3.640000,8.960000,0.000000
139.691884,0.206912,-0.176168,0.978440,-2.660000,-6.160000,-0.700000
139.695950,-0.196664,0.156648,0.563152,-0.280000,2.380000,-1.260000
139.700016,-0.046848,0.026840,0.890600,1.680000,9.100000,-1.400000
139.704082,0.126880,-0.307928,0.954040,-6.720000,-11.760000,2.240000
139.708148,-0.171288,0.162504,0.751032,3.220000,5.880000,-1.680000
139.712214,0.021960,-0.035136,0.966728,3.360000,5.320000,-2.240000
139.716280,-0.115656,-0.062464,0.532896,0.140000,0.140000,1.260000
139.720346,0.104920,0.032208,0.952576,0.000000,2.240000,-0.560000
139.724412,-0.019520,-0.084424,0.612928,-3.080000,-6.440000,-0.140000
139.728478,-0.148352,0.261080,0.672952,1.680000,4.340000,-0.700000
139.732544,0.126880,-0.162504,0.870592,-6.440000,-6.720000,0.280000
139.736610,-0.089792,-0.007808,0.784216,-3.220000,-5.600000,-0.700000
139.740677,0.018056,0.097600,1.047736,-0.280000,4.060000,-2.520000
139.744743,-0.078080,-0.134688,0.913536,-3.220000,-4.620000,0.560000
139.748809,-0.001464,0.071248,0.789096,3.080000,6.440000,-0.980000
139.752875,0.151768,-0.060512,1.007232,-2.520000,3.920000,-1.400000
139.756941,-0.222040,0.093696,0.697352,5.180000,6.440000,-1.820000
139.761007,-0.040016,-0.050264,0.889136,0.980000,14.560000,-1.400000
139.765073,0.139080,-0.178120,1.059448,-7.700000,-4.760000,0.420000
139.769139,-0.204960,0.290848,0.792024,4.480000,11.900000,-2.380000
139.773205,0.102480,-0.082472,0.974048,0.700000,8.960000,-1.820000
139.777271,-0.049288,-0.232288,0.918904,-5.320000,-4.760000,0.980000
139.781337,-0.165432,0.201544,0.882304,3.920000,15.120000,-1.260000
139.785403,0.159576,-0.098576,1.174128,-2.380000,9.380000,-1.400000
139.789469,-0.112728,0.026352,0.692960,-1.540000,-0.420000,0.140000
139.793535,-0.120536,0.080520,0.923296,4.900000,12.460000,-0.980000
139.797601,0.000488,-0.248880,1.045784,-3.640000,2.520000,-1.120000
139.801668,0.014152,0.145424,0.860832,-1.260000,1.540000,-1.120000
139.805734,0.007808,0.231800,1.199504,0.000000,15.960000,-2.940000
139.809800,-0.136152,-0.234728,1.025776,-0.840000,4.340000,-3.640000
139.813866,-0.094672,-0.028792,0.672464,2.100000,0.280000,-1.400000
139.817932,0.114680,0.075640,1.100440,-3.360000,9.940000,-0.560000
139.821998,-0.118096,0.020984,1.199504,-0.140000,4.900000,-1.120000
139.826064,0.017568,0.101992,0.782752,4.340000,9.940000,-1.540000
139.830130,0.014640,0.008784,0.977464,-1.260000,8.820000,-1.260000
139.834196,-0.195200,-0.300608,0.958920,-0.560000,0.560000,-1.400000
139.838262,0.045872,-0.020008,0.963800,-0.420000,0.420000,0.840000
139.842328,0.105896,0.313296,1.366400,-4.620000,12.460000,-0.280000
139.846394,-0.264008,0.004880,0.999912,2.380000,8.400000,-1.400000
139.850460,-0.141520,-0.206424,0.685152,2.100000,0.140000,-1.260000
139.854526,0.122976,-0.036112,1.124352,-4.900000,-7.000000,-0.840000
139.858592,-0.077104,0.077104,1.106784,-2.380000,-6.580000,-1.540000
139.862659,-0.092720,0.079056,0.788608,0.700000,2.660000,0.700000
139.866725,0.043920,0.081008,1.024312,-1.120000,5.320000,-0.840000
139.870791,-0.020008,-0.149816,1.014064,-1.960000,-2.660000,-0.700000
139.874857,-0.149328,-0.010248,1.084336,2.240000,1.400000,-1.400000
139.878923,0.069296,-0.081008,1.077504,-4.900000,-4.200000,-0.420000
139.882989,-0.098088,0.020496,0.944768,-1.960000,-7.840000,0.700000
139.887055,-0.199104,0.109312,0.928176,1.540000,6.160000,0.980000
139.891121,0.086864,0.057096,1.248792,0.840000,-1.540000,-0.980000
139.895187,0.085400,-0.122976,0.914024,-4.200000,-8.680000,-0.140000
139.899253,-0.089792,0.060024,0.913536,-0.840000,4.340000,-0.700000
139.903319,-0.058560,-0.077104,0.964776,-2.380000,3.780000,-1.260000
139.907385,-0.104432,-0.097600,0.937448,2.520000,-4.760000,-1.120000
139.911451,0.016592,0.177144,1.357616,-1.540000,5.880000,0.140000
139.915517,-0.057584,0.089792,1.140456,-0.280000,-0.980000,-0.420000
139.919583,-0.100528,-0.184952,0.622688,2.660000,-8.540000,-0.840000
139.923650,-0.026352,-0.074664,0.859856,-2.800000,1.960000,0.280000
139.927716,0.117120,0.138592,1.312720,-2.660000,0.560000,-0.280000
139.931782,-0.142496,0.079056,0.941352,2.660000,3.080000,-0.420000
139.935848,-0.042944,-0.066856,1.000888,0.840000,7.140000,-1.260000
139.939914,-0.063928,-0.094672,1.095560,-1.540000,-5.460000,-0.980000
139.943980,-0.083448,-0.051240,0.927688,1.540000,-7.980000,-0.700000
139.948046,-0.065880,0.016104,1.039928,-1.260000,2.380000,-0.700000
139.952112,0.162992,0.170312,1.134600,-2.660000,-3.500000,-0.700000
139.956178,-0.127856,0.079056,0.782752,1.400000,5.880000,-0.560000
139.960244,-0.138104,-0.152256,0.932568,2.660000,8.260000,-1.820000
139.964310,0.073200,-0.215696,1.184376,-2.380000,-10.640000,-0.840000
139.968376,-0.072712,0.056120,1.047248,-0.840000,-4.900000,0.840000
139.972442,-0.082960,0.193736,1.103368,-1.540000,6.720000,0.980000
139.976508,-0.027328,0.020008,0.887184,0.980000,0.700000,-1.400000
139.980574,-0.021960,-0.121512,0.813496,0.840000,-1.120000,-0.560000
139.984641,0.074176,0.093696,1.256600,-1.820000,4.760000,-1.120000
139.988707,-0.040504,-0.074664,1.055544,-1.820000,-5.180000,-1.680000
139.992773,-0.187880,-0.137128,0.749080,0.280000,0.000000,-0.420000
139.996839,0.068808,0.059536,1.099464,-3.220000,3.080000,0.420000
140.000905,-0.077104,0.188368,1.285392,-0.840000,2.660000,-0.840000
140.004971,0.004880,-0.066856,0.910608,1.120000,5.880000,-1.820000
140.009037,0.201056,-0.013664,0.991616,-4.900000,7.140000,-1.680000
140.013103,-0.086376,-0.084912,1.188280,-0.420000,12.320000,-1.540000
140.017169,-0.125904,0.061976,0.817888,1.260000,26.600000,-0.560000
140.021235,0.098576,-0.069784,1.245864,-1.400000,27.580000,-1.540000
140.025301,0.072224,0.079056,1.256600,0.280000,23.520000,-2.660000
140.029367,-0.061976,0.097600,0.926224,0.840000,31.360001,-2.660000
140.033433,-0.168848,-0.142984,1.044320,-3.360000,23.240000,-2.240000
140.037499,-0.094672,-0.153720,0.894016,-0.420000,10.500000,-3.920000
140.041565,0.028304,0.034648,0.946232,-3.780000,20.020000,-1.680000
140.045631,0.027328,0.341600,1.358592,-1.400000,30.380001,-2.240000
140.049698,-0.031232,-0.062464,1.099464,-0.980000,21.840000,-2.940000
140.053764,-0.159088,-0.234240,0.797880,-1.960000,20.020000,-2.380000
140.057830,-0.049776,0.043432,1.134600,-3.640000,20.580000,-1.960000
140.061896,-0.006832,0.021472,1.217560,-1.260000,11.480000,-2.520000
140.065962,-0.015616,-0.089792,0.953552,-3.080000,11.620000,-2.100000
140.070028,-0.030256,0.183000,0.902800,-1.680000,21.280001,-1.680000
140.074094,-0.060512,0.058560,1.498648,-2.380000,17.219999,-2.380000
140.078160,-0.096136,-0.135176,0.867664,-1.680000,14.000000,-1.820000
140.082226,0.012200,-0.043432,0.900848,-0.560000,18.760000,-3.220000
140.086292,0.081008,-0.092232,1.449360,-1.820000,9.800000,-3.920000
140.090358,-0.078568,0.126392,0.974536,-4.060000,14.140000,-1.680000
140.094424,-0.232776,0.082472,0.742736,-0.420000,17.920000,-0.140000
140.098490,-0.063928,0.006832,1.296616,0.140000,10.500000,-1.540000
140.102556,0.153232,-0.058560,0.982832,-2.800000,0.840000,-1.820000
140.106622,0.006344,0.001952,1.048224,-4.340000,10.640000,-0.980000
140.110689,-0.145912,0.015616,1.128256,-0.840000,11.480000,-2.940000
140.114755,-0.086864,-0.156648,0.828624,-2.240000,2.100000,-1.680000
140.118821,-0.088816,0.060024,0.908656,-3.220000,11.060000,-0.280000
140.122887,0.020984,0.264984,1.302960,-1.540000,10.640000,-1.400000
140.126953,-0.004392,-0.097112,0.933056,0.140000,-3.780000,-2.100000
140.131019,-0.078080,-0.255224,0.733464,-2.520000,-1.120000,-0.980000
140.135085,-0.075152,0.061000,1.235128,-2.800000,1.820000,-1.260000
140.139151,-0.037576,0.021472,1.117520,-2.100000,-3.920000,-0.700000
140.143217,-0.115656,0.007320,0.955504,-1.120000,-0.560000,0.000000
140.147283,-0.000976,0.154208,1.029680,-3.080000,3.640000,0.700000
140.151349,-0.006344,0.002440,0.940376,0.280000,-9.520000,0.140000
140.155415,-0.146400,-0.243024,0.697840,0.280000,-8.680000,0.840000
140.159481,0.094184,0.006832,1.302960,-2.380000,-6.580000,0.560000
140.163547,0.056120,0.166896,1.175592,-3.220000,-5.460000,0.280000
140.167613,-0.164456,0.061000,0.927200,0.420000,3.500000,-0.280000
140.171680,-0.048800,-0.067832,0.808616,0.840000,5.460000,-3.080000
140.175746,0.121512,-0.138592,0.909632,-3.360000,-9.100000,-1.960000
140.179812,-0.088328,0.097112,0.901824,-1.820000,1.820000,-0.140000
140.183878,-0.042944,0.067344,1.198528,-3.500000,3.780000,0.000000
140.187944,-0.047824,-0.083936,0.891576,0.280000,-6.020000,-1.540000
140.192010,0.026840,-0.014152,0.730536,-2.520000,1.680000,-0.280000
140.196076,-0.105896,-0.039528,1.250744,-2.520000,-0.140000,-0.420000
140.200142,-0.093208,-0.059048,1.047248,0.700000,-7.140000,0.140000
140.204208,0.040992,0.101504,0.778360,-3.080000,5.740000,-0.140000
140.208274,0.046848,0.140544,0.986248,-2.240000,1.540000,-2.100000
140.212340,-0.219600,-0.045872,0.663192,2.380000,-1.260000,-1.260000
140.216406,0.004392,-0.088816,0.923296,-3.080000,-0.140000,0.980000
140.220472,0.120048,-0.090768,1.065304,-7.700000,-4.340000,0.280000
140.224538,-0.182024,0.236192,0.649040,2.240000,4.200000,-3.220000
140.228604,0.135176,0.047824,0.806176,0.140000,4.900000,-2.380000
140.232671,-0.074176,-0.201544,0.765672,-7.280000,-3.920000,0.700000
140.236737,-0.132736,0.074176,0.852536,2.940000,1.120000,-0.840000
140.240803,0.164456,-0.112728,1.334192,-3.220000,1.400000,-1.260000
140.244869,-0.178608,0.011224,0.676368,-2.520000,0.140000,-0.420000
140.248935,-0.158600,0.132736,0.600240,3.500000,6.580000,-1.820000
140.253001,0.223992,-0.133712,0.987712,-6.720000,-6.860000,-0.140000
140.257067,-0.145912,0.168848,0.676856,-4.480000,2.800000,0.420000
140.261133,-0.073688,0.061000,0.849608,3.220000,7.420000,-2.380000
140.265199,0.067832,-0.208376,0.881816,-1.680000,-7.560000,-0.140000
140.269265,-0.095160,0.143472,0.945256,-1.540000,5.880000,-0.840000
140.273331,-0.018056,-0.178608,1.025776,-4.060000,-1.960000,-1.680000
140.277397,-0.147376,-0.021472,0.644160,0.980000,-2.940000,-1.120000
140.281463,0.019520,0.112728,1.021384,1.540000,8.400000,-0.840000
140.285529,0.017080,-0.154696,0.892552,-3.360000,-4.200000,0.560000
140.289595,-0.059536,0.104920,0.565592,4.340000,1.960000,-1.400000
140.293662,0.079544,-0.009272,0.874984,-3.220000,2.660000,-1.400000
140.297728,-0.145912,0.004392,0.502640,-1.960000,-1.400000,0.280000
140.301794,0.086864,0.050752,0.856928,0.000000,0.980000,-1.260000
140.305860,0.039528,-0.192272,0.790560,-6.300000,-3.780000,-0.700000
140.309926,-0.215208,0.196176,0.848144,6.580000,6.860000,-1.120000
140.313992,0.199104,-0.181048,1.109712,-3.640000,0.560000,0.420000
140.318058,-0.162504,-0.029768,0.607072,-1.540000,-5.320000,0.000000
140.322124,-0.128832,0.302560,0.710040,6.720000,8.540000,-2.660000
140.326190,0.168848,-0.189344,0.983808,-9.800000,-7.560000,0.980000
140.330256,-0.208864,0.200568,0.685640,0.840000,-0.140000,-1.540000
140.334322,0.147864,-0.031232,1.058472,1.680000,2.660000,-3.360000
140.338388,-0.090768,-0.117608,0.780800,-5.600000,-3.640000,0.840000
140.342454,-0.210328,0.102480,0.878888,7.420000,7.420000,-1.260000
140.346520,0.204960,-0.299632,1.045784,-4.620000,-7.000000,-0.140000
140.350586,-0.262056,0.172264,0.679296,1.960000,0.280000,-0.980000
140.354653,0.024888,0.081496,0.921344,2.100000,6.020000,-1.820000
140.358719,0.215696,-0.271816,0.824232,-8.820000,-10.780000,0.280000
140.362785,-0.202520,0.272304,0.637328,3.640000,5.880000,-3.360000
140.366851,0.056120,-0.058560,0.932568,2.100000,2.240000,-2.660000
140.370917,-0.073688,-0.113216,0.571936,-1.960000,-1.120000,0.980000
140.374983,0.001952,0.047336,0.860344,3.640000,3.920000,-1.260000
140.379049,0.002440,-0.074664,0.891088,-0.980000,-5.040000,-0.140000
140.383115,-0.174216,0.174704,0.792024,0.140000,1.680000,-0.140000
140.387181,0.143472,-0.060512,0.996984,-6.860000,-5.320000,-1.540000
140.391247,-0.085888,0.105408,0.704672,-6.720000,-3.220000,-2.380000
140.395313,-0.064416,0.204960,0.832040,-5.740000,4.620000,-4.060000
140.399379,-0.041968,-0.313784,0.893528,-13.860000,-5.600000,0.140000
140.403445,-0.112728,0.103944,0.878888,-10.220000,0.280000,-0.700000
140.407511,0.152256,-0.020496,0.729072,-19.180000,-3.780000,-1.680000
140.411577,-0.115656,0.246928,0.306464,-21.139999,1.260000,-1.820000
140.415643,0.092232,-0.021960,1.022848,-28.280001,-0.280000,-1.820000
140.419710,-0.145424,-0.194712,0.934520,-33.320000,-5.040000,0.560000
140.423776,-0.105408,0.249368,1.111664,-23.379999,7.000000,-2.800000
140.427842,0.101992,-0.210328,0.794952,-34.160000,-4.200000,0.980000
140.431908,-0.215696,0.154696,0.591456,-23.799999,3.920000,-0.280000
140.435974,0.267424,-0.117120,0.976000,-30.380001,0.140000,0.140000
140.440040,-0.123464,0.005368,0.724680,-30.660000,-6.160000,0.000000
140.444106,-0.149328,0.129808,0.623176,-23.520000,6.020000,-2.520000
140.448172,0.193736,-0.262544,1.015528,-37.799999,-9.100000,-0.280000
140.452238,-0.221552,0.215208,0.791048,-30.799999,0.000000,-1.960000
140.456304,0.050264,0.078080,0.992104,-30.380001,0.980000,-2.240000
140.460370,0.073200,-0.142008,0.800808,-37.660000,-10.500000,0.280000
140.464436,-0.236680,0.224968,0.707112,-27.719999,9.520000,-2.240000
140.468502,0.217648,-0.246440,1.166320,-36.959999,-5.180000,-0.840000
140.472568,-0.204960,-0.002928,0.741760,-31.360001,-0.700000,0.140000
140.476634,-0.074664,0.066856,0.976000,-25.340000,11.620000,-1.680000
140.480701,0.169824,-0.185440,0.829600,-35.139999,-10.080000,1.540000
140.484767,-0.145424,0.319152,0.523624,-33.040001,5.740000,-0.700000
140.488833,0.088816,-0.150304,0.693936,-38.080002,0.140000,-1.120000
140.492899,-0.104432,-0.035136,0.749080,-38.639999,-6.300000,1.400000
140.496965,-0.048800,0.141032,1.062864,-33.880001,6.720000,-0.840000
140.501031,0.141032,-0.209840,1.099464,-38.080002,-8.540000,-0.280000
140.505097,-0.206912,0.171288,0.695888,-31.360001,6.020000,-2.100000
140.509163,0.005368,0.004392,0.978440,-32.619999,1.820000,-1.960000
140.513229,-0.046360,-0.077592,0.716872,-35.279999,-7.980000,1.260000
140.517295,-0.009760,0.086376,0.747128,-32.200001,3.080000,-1.400000
140.521361,-0.000976,-0.155672,0.944280,-34.439999,-3.360000,-0.700000
140.525427,-0.027816,0.013176,0.912072,-31.219999,1.820000,-0.140000
140.529493,0.036112,-0.062952,1.100928,-33.740002,2.800000,-0.280000
140.533559,-0.162016,-0.072712,0.618784,-27.299999,-0.700000,0.560000
140.537625,-0.011712,0.220088,0.662704,-25.620001,4.760000,0.840000
140.541692,0.178120,-0.115168,0.774456,-35.700001,-7.000000,1.120000
140.545758,-0.141032,0.095160,0.575840,-28.139999,-0.560000,-1.680000
140.549824,0.083448,-0.079544,1.098976,-32.060001,-0.420000,-1.400000
140.553890,-0.159088,-0.045384,0.988200,-30.520000,-5.460000,0.000000
140.557956,-0.056120,0.062464,0.938912,-24.360001,1.680000,-0.700000
140.562022,0.090768,-0.122000,0.945744,-27.160000,-3.360000,0.280000
140.566088,-0.241560,0.093208,0.559736,-16.379999,1.820000,0.980000
140.570154,0.160064,0.102968,0.944280,-22.260000,2.100000,1.400000
140.574220,0.098576,-0.215208,0.994056,-27.020000,-6.160000,0.560000
140.578286,-0.325984,0.171776,0.813496,-13.300000,9.380000,-1.820000
140.582352,0.156160,-0.198616,1.199016,-19.740000,-1.960000,0.560000
140.586418,-0.151768,-0.071248,0.753472,-20.160000,-3.360000,2.380000
140.590484,-0.101992,0.088328,0.877424,-7.280000,5.880000,-0.560000
140.594550,0.144936,-0.092232,0.965752,-13.860000,-7.140000,1.260000
140.598616,-0.097112,0.019520,0.701256,-11.480000,4.200000,1.820000
140.602683,0.013664,-0.032208,0.951600,-2.800000,4.480000,-0.560000
140.606749,0.047824,-0.081008,0.911096,1.540000,-7.000000,-0.420000
140.610815,-0.113216,0.143960,0.793488,4.900000,6.860000,0.980000
140.614881,0.035624,-0.163968,1.055544,6.020000,-1.400000,-0.700000
140.618947,-0.051728,-0.098576,0.691984,6.440000,-6.720000,0.000000
140.623013,-0.101504,0.178120,0.914512,8.120000,6.300000,-0.560000
140.627079,0.062464,-0.187392,0.976976,1.960000,-2.660000,-0.140000
140.631145,-0.111752,0.010736,0.794464,5.180000,0.840000,-0.840000
140.635211,0.113704,0.007320,0.936960,4.620000,-0.140000,-1.540000
140.639277,-0.172752,0.040016,0.504104,2.940000,1.540000,0.980000
140.643343,0.090280,0.056608,0.688080,1.820000,5.460000,0.700000
140.647409,0.054656,-0.149816,0.732976,-1.680000,-7.700000,0.140000
140.651475,-0.199592,0.239120,0.798856,4.620000,5.740000,-1.260000
140.655541,0.089792,-0.167872,1.028216,-7.560000,-6.580000,0.840000
140.659607,-0.083448,0.016104,0.716384,-4.340000,-7.420000,-0.140000
140.663673,0.020008,0.231800,1.054568,1.260000,4.480000,-4.480000
140.667740,-0.029768,-0.142008,0.817400,-7.560000,-5.180000,-0.140000
140.671806,-0.192760,0.118584,0.785680,1.540000,3.780000,-0.840000
140.675872,0.231312,-0.204960,0.970632,-3.640000,-1.960000,0.560000
140.679938,-0.185928,0.098576,0.734440,0.000000,1.960000,0.700000
140.684004,-0.099064,0.061000,0.988200,4.620000,7.980000,-1.680000
140.688070,0.102480,-0.322568,1.053104,-6.580000,-7.980000,1.120000
140.692136,-0.203984,0.236680,0.933056,0.840000,7.280000,-1.680000
140.696202,0.064416,-0.121512,0.917440,-1.120000,-0.280000,-0.700000
140.700268,-0.108824,-0.014152,0.488976,-1.260000,-1.820000,0.280000
140.704334,0.012688,0.138592,0.869128,-0.700000,6.440000,0.140000
140.708400,0.061000,-0.149816,0.894992,-4.760000,-7.420000,1.820000
140.712466,-0.062464,0.068808,0.692472,-0.980000,1.960000,-0.140000
140.716532,0.008296,-0.168360,0.871080,-2.660000,-4.480000,-1.540000
140.720598,-0.138592,0.042944,0.767136,-0.840000,-1.960000,-0.420000
140.724664,0.123952,0.014152,1.177056,-3.080000,3.500000,-0.560000
140.728731,-0.075640,-0.066856,0.811056,-2.240000,-5.040000,-0.140000
140.732797,-0.171776,0.220088,0.650504,5.600000,8.540000,-2.800000
140.736863,0.186416,-0.169824,0.880352,-7.560000,-3.920000,1.400000
140.740929,-0.137616,0.100040,0.719312,-0.280000,-1.960000,0.140000
140.744995,0.053192,0.006832,1.048712,0.560000,3.640000,-3.920000
140.749061,-0.059536,-0.189832,0.931104,-5.460000,-6.720000,0.140000
140.753127,-0.289872,0.155672,0.843264,2.240000,5.180000,0.840000
140.757193,0.240096,-0.228872,1.002840,-5.040000,-7.980000,1.540000
140.761259,-0.088328,0.228872,0.709552,-1.260000,0.840000,-0.420000
140.765325,-0.022936,0.073688,0.949648,1.400000,7.140000,-1.260000
140.769391,-0.067344,-0.229360,0.762744,-3.080000,-6.860000,1.820000
140.773457,0.021472,0.078080,0.853512,0.140000,-0.840000,0.000000
140.777523,0.034648,-0.041480,1.082384,-1.540000,-1.820000,-0.980000
140.781589,-0.198616,0.004880,0.760304,2.380000,2.380000,-1.260000
140.785655,0.083936,-0.068320,1.168272,-1.400000,-2.380000,-0.840000
140.789722,-0.004880,0.055632,0.772992,-3.360000,-3.080000,-0.420000
140.793788,-0.087352,0.189344,0.782752,2.380000,9.660000,-2.940000
140.797854,0.077104,-0.244976,0.766648,-6.020000,-5.460000,-0.140000
140.801920,-0.197640,0.107360,0.850584,0.700000,0.840000,-0.980000
140.805986,0.072224,-0.119072,1.348344,-2.660000,3.500000,-0.560000
140.810052,-0.103944,-0.090768,0.862784,-3.500000,-7.280000,0.840000
140.814118,-0.132736,0.196664,0.664168,2.660000,5.600000,-1.680000
140.818184,0.122000,-0.063928,0.852536,-4.900000,-4.760000,0.700000
140.822250,-0.005368,0.130296,0.697352,-5.320000,3.500000,0.980000
140.826316,-0.017568,-0.031720,1.093120,-5.040000,1.260000,-0.700000
140.830382,-0.097112,-0.186904,0.812520,-4.200000,-3.780000,-1.680000
140.834448,-0.123464,0.074664,0.905728,-8.260000,5.880000,-0.840000
140.838514,0.107360,-0.067832,0.959896,-12.040000,-6.720000,0.840000
140.842580,-0.094184,0.241072,0.713944,-5.460000,2.520000,-1.400000
140.846646,0.093208,-0.056120,0.969168,-9.100000,4.200000,-2.240000
140.850713,-0.195688,-0.146888,0.813984,-10.640000,-5.180000,1.540000
140.854779,-0.115656,0.052216,1.082872,-5.460000,3.780000,0.840000
140.858845,0.236680,-0.117608,1.179496,-14.840000,-2.100000,-0.280000
140.862911,-0.199104,0.251320,0.589504,-7.420000,6.020000,-2.520000
140.866977,-0.017568,0.087352,0.716384,-5.040000,4.620000,-1.680000
140.871043,0.052704,-0.291824,0.990152,-13.440001,-7.700000,1.400000
140.875109,-0.094184,0.100528,0.982344,-8.400000,3.360000,0.560000
140.879175,0.054656,0.082472,1.319552,-5.040000,3.640000,-2.100000
140.883241,-0.038064,-0.089304,0.674416,-10.500000,-2.660000,-1.960000
140.887307,-0.051240,0.023424,0.643672,-9.660000,2.380000,-1.400000
140.891373,-0.045384,-0.154208,1.223416,-11.760000,-3.360000,-0.560000
140.895439,-0.129320,-0.017080,0.995032,-7.560000,0.280000,-0.560000
140.899505,0.020984,0.159088,1.154120,-8.960000,6.300000,-0.700000
140.903571,-0.049288,-0.030744,0.780312,-8.540000,-5.880000,-1.400000
140.907637,-0.065880,-0.082960,0.644648,-7.000000,-1.820000,-1.260000
140.911704,0.079056,-0.065880,1.344440,-13.860000,2.100000,0.560000
140.915770,-0.046848,0.189344,1.195112,-7.980000,0.980000,0.140000
140.919836,-0.105896,0.104920,0.616832,-3.080000,8.120000,-0.980000
140.923902,0.042456,-0.253272,1.040416,-10.780000,-3.080000,-1.120000
140.927968,-0.063928,-0.236680,1.303936,-11.620000,-11.200000,0.280000
140.932034,-0.112240,0.284504,0.961848,-10.220000,3.360000,0.560000
140.936100,0.029280,0.130296,0.956968,-8.960000,4.200000,-1.400000
140.940166,-0.087352,-0.123952,0.964776,-6.160000,-3.360000,-2.240000
140.944232,0.020008,-0.077104,1.223904,-8.680000,2.520000,-1.680000
140.948298,-0.090768,-0.069784,1.121424,-8.260000,-4.760000,-1.400000
140.952364,-0.109312,-0.046360,0.699792,-3.500000,-5.320000,0.560000
140.956430,-0.021472,0.075640,1.142408,-1.820000,4.340000,1.120000
140.960496,0.042944,0.102968,1.517192,-1.260000,-0.420000,-0.980000
140.964562,-0.057584,-0.082472,0.632936,-0.700000,-2.380000,-1.400000
140.968628,-0.035624,-0.173240,0.841312,-3.220000,-0.560000,-0.700000
140.972694,-0.124440,-0.045872,1.488888,0.000000,-4.620000,-0.840000
140.976761,-0.078080,0.162992,0.845704,1.120000,0.980000,1.120000
140.980827,0.126880,0.133712,0.925736,1.260000,2.940000,0.420000
140.984893,-0.062952,-0.142496,1.234640,2.100000,-3.080000,-2.100000
140.988959,-0.093696,-0.108336,0.903288,2.380000,0.140000,-1.680000
140.993025,-0.027816,0.022936,1.005768,-0.700000,-2.520000,-0.700000
140.997091,-0.035624,-0.047824,1.253184,-1.820000,-5.600000,-0.420000
141.001157,-0.058072,0.211792,0.931104,-1.120000,5.180000,0.560000
141.005223,0.060512,0.087352,0.973560,-0.560000,3.080000,-0.420000
141.009289,-0.103456,-0.285480,1.109712,-0.980000,-6.160000,-1.120000
141.013355,-0.049776,-0.131760,1.057984,-0.560000,-6.020000,-0.980000
141.017421,0.120048,0.211792,1.170712,-3.920000,-2.240000,-0.560000
141.021487,-0.196664,0.055144,1.067744,-0.280000,2.800000,-0.560000
141.025553,-0.098576,-0.078080,0.865712,1.540000,4.200000,-0.560000
141.029619,0.162504,-0.009272,1.180960,-2.100000,-3.780000,-2.240000
141.033685,-0.127856,-0.061976,1.159488,-2.100000,-5.740000,-1.260000
141.037752,-0.155184,-0.002440,1.036024,0.000000,-0.420000,-0.560000
141.041818,0.036600,-0.005856,0.874008,-2.800000,-1.260000,-0.560000
141.045884,-0.071736,-0.017080,0.987224,2.380000,-1.680000,-0.700000
141.049950,0.003416,0.136152,1.440576,-0.700000,3.780000,-0.560000
141.054016,-0.024888,-0.010248,0.955992,-3.360000,-1.260000,-1.820000
141.058082,-0.162992,-0.249368,0.643672,-1.260000,-6.860000,-0.980000
141.062148,-0.005856,0.061976,1.209264,-1.820000,1.540000,-0.280000
141.066214,0.082472,0.190808,1.196088,-3.360000,-0.980000,-1.120000
141.070280,-0.087352,-0.078568,1.044320,-1.120000,1.260000,-1.540000
141.074346,-0.060024,0.006344,1.163880,-2.100000,4.060000,-2.380000
141.078412,0.007320,-0.053192,0.919880,-1.120000,-5.460000,-2.660000
141.082478,-0.143472,-0.148840,0.973072,-0.700000,-3.640000,-0.560000
141.086544,0.041480,0.095160,1.196576,-2.380000,4.060000,-0.420000
141.090610,0.063440,0.127368,1.117032,-0.700000,-0.700000,-0.840000
141.094676,-0.162992,-0.013176,1.105808,1.680000,5.460000,-0.840000
141.098743,-0.082960,-0.043920,0.973072,-0.140000,5.880000,-1.820000
141.102809,-0.009760,-0.156648,1.043344,0.840000,-8.120000,-2.800000
141.106875,-0.000488,-0.064904,1.144360,-1.680000,-3.640000,-0.840000
141.110941,0.020008,0.304512,1.117032,-0.840000,7.280000,-0.560000
141.115007,-0.153720,-0.027328,1.098488,2.940000,0.420000,-1.680000
141.119073,-0.076128,-0.206424,0.935496,-0.280000,-0.420000,-1.820000
141.123139,0.119560,0.041480,1.167296,-4.620000,-1.120000,-2.940000
141.127205,-0.107360,-0.041968,1.289784,-0.420000,-3.220000,-2.800000
141.131271,-0.109312,0.007320,0.744688,0.840000,1.540000,-0.140000
141.135337,0.003416,0.091256,0.957456,-0.980000,5.460000,0.420000
141.139403,-0.091256,-0.088328,1.502552,2.940000,-2.380000,-1.400000
141.143469,-0.024400,0.002440,1.015040,1.820000,-1.540000,-1.680000
141.147535,0.019520,-0.043432,0.984296,-2.240000,-0.700000,-2.380000
141.151601,-0.046360,-0.018056,1.223416,-3.080000,-2.800000,-1.680000
141.155667,-0.106872,0.153720,0.565592,1.260000,6.440000,-0.140000
141.159734,-0.010248,-0.081008,1.272216,1.260000,7.560000,-1.820000
141.163800,0.007808,-0.078080,1.465952,-0.420000,-3.920000,-3.080000
141.167866,-0.046360,0.021472,0.844728,0.280000,-1.960000,-2.520000
141.171932,-0.161040,-0.034648,1.150704,-3.360000,2.240000,-1.680000
141.175998,-0.085888,-0.075152,0.989664,1.400000,-5.740000,-2.100000
141.180064,0.013664,0.022936,0.960872,-0.560000,-0.840000,0.280000
141.184130,0.030744,0.170800,1.342488,-0.700000,7.420000,0.140000
141.188196,-0.046360,0.015616,1.028216,2.800000,-3.360000,-1.680000
141.192262,-0.054168,-0.342088,0.714432,-1.680000,-3.780000,-0.140000
141.196328,-0.099552,0.078568,1.141432,-2.240000,2.800000,0.420000
141.200394,-0.054168,0.039528,1.399584,3.080000,-3.640000,-0.980000
141.204460,0.029280,-0.038064,1.131184,-0.700000,-1.540000,-1.540000
141.208526,0.028304,0.165432,0.893528,-2.520000,5.460000,-2.240000
141.212592,-0.145912,-0.043432,1.159976,1.680000,-1.540000,-3.360000
141.216658,-0.102480,-0.246928,0.587064,-0.420000,-4.480000,-1.120000
141.220725,0.065880,0.030256,1.143384,-0.560000,0.420000,-0.280000
141.224791,0.047824,0.134200,1.600152,-1.260000,0.420000,-2.380000
141.228857,-0.094184,0.044408,0.853024,0.420000,3.220000,-2.100000
141.232923,-0.184952,-0.157624,0.942328,0.700000,2.380000,-1.400000
141.236989,0.005368,-0.084912,1.162904,-1.680000,-5.740000,-0.980000
141.241055,-0.043920,-0.021472,0.972096,-0.560000,-4.620000,0.280000
141.245121,0.035136,0.186416,1.199992,-0.420000,6.440000,-0.700000
141.249187,0.067832,0.075152,1.143872,-0.700000,2.380000,-1.820000
141.253253,-0.094672,-0.211304,0.909144,0.140000,-4.060000,-1.260000
141.257319,-0.061976,-0.027328,0.731512,0.140000,2.520000,-1.680000
141.261385,-0.051728,-0.145424,1.392752,-0.420000,-2.380000,-3.080000
141.265451,0.111264,0.055144,1.231224,-0.840000,-6.020000,-1.960000
141.269517,-0.112240,0.246440,0.941352,-2.100000,10.640000,-1.400000
141.273583,-0.149328,-0.154208,1.221952,1.120000,-0.280000,-1.960000
141.277649,0.040504,-0.102968,0.714920,-2.660000,-7.280000,-0.140000
141.281715,-0.101016,-0.057096,0.958920,-4.060000,3.080000,1.260000
141.285782,0.083448,0.195200,1.405928,0.560000,2.100000,-0.840000
141.289848,0.037088,-0.086864,0.879376,-0.420000,-1.820000,-0.980000
141.293914,-0.107360,0.002440,0.983808,-1.820000,2.800000,0.280000
141.297980,-0.111264,-0.032696,0.874008,1.820000,2.380000,-1.680000
141.302046,-0.034160,-0.295240,1.285392,-2.520000,-8.120000,-0.420000
141.306112,0.087352,0.174216,0.963312,-4.480000,2.380000,0.140000
141.310178,-0.028792,0.203984,1.338096,-2.380000,9.940000,-1.960000
141.314244,-0.186904,-0.112728,1.037000,-0.280000,0.000000,-3.080000
141.318310,0.028304,-0.161528,0.446032,-2.800000,-4.480000,0.140000
141.322376,-0.099064,-0.012688,1.294176,-3.080000,2.100000,0.560000
141.326442,0.020496,0.062952,1.319064,-0.140000,-1.680000,-0.420000
141.330508,0.112728,0.028304,0.774456,-1.260000,-0.420000,-0.280000
141.334574,-0.163480,-0.057584,1.315160,-2.380000,9.940000,-0.980000
141.338640,-0.107848,-0.053192,0.880352,1.960000,0.840000,-2.660000
141.342706,-0.043432,-0.305976,1.000400,-1.400000,-8.120000,0.000000
141.346773,0.021472,0.209352,1.461560,-4.760000,6.720000,0.560000
141.350839,-0.017080,0.265472,0.958432,-0.980000,4.340000,-1.400000
141.354905,-0.123952,-0.293776,1.075064,1.960000,-3.220000,-1.820000
141.358971,0.010248,-0.054656,0.742736,-3.780000,0.700000,-0.700000
141.363037,-0.020984,0.093208,1.191696,-0.700000,1.260000,-1.540000
141.367103,0.020984,-0.153232,1.260504,-1.120000,-3.780000,-0.280000
141.371169,-0.007808,0.234240,0.657336,-2.660000,10.780000,-0.140000
141.375235,-0.098576,-0.078080,1.173152,0.420000,3.500000,-1.120000
141.379301,-0.117120,-0.278160,1.130696,2.800000,-7.280000,-1.820000
141.383367,0.070760,-0.018544,0.741272,-3.780000,-3.360000,0.280000
141.387433,-0.019520,0.132736,1.503040,-1.960000,5.600000,-0.980000
141.391499,-0.129808,0.090280,1.145336,1.400000,2.520000,-1.400000
141.395565,-0.095160,-0.070272,0.521184,-0.140000,1.680000,-0.980000
141.399631,-0.052216,-0.236680,1.252696,-1.960000,-0.980000,-0.840000
141.403697,0.009760,0.075640,1.261968,-1.120000,-7.560000,-0.840000
141.407764,0.062464,0.074664,0.701256,-1.260000,-0.840000,-0.140000
141.411830,-0.133224,0.040504,1.216584,0.700000,9.800000,-1.680000
141.415896,-0.020496,-0.053192,0.988688,0.280000,-2.800000,-1.820000
141.419962,-0.119072,-0.230336,0.836432,1.260000,-6.020000,-0.840000
141.424028,0.047824,-0.054168,1.280512,-4.200000,0.280000,0.420000
141.428094,0.023912,0.189344,1.181448,-0.980000,-2.940000,0.000000
141.432160,-0.161040,-0.008296,0.936960,0.980000,3.640000,0.140000
141.436226,-0.100528,-0.117120,0.930616,0.700000,4.060000,-0.840000
141.440292,0.049288,-0.076616,1.257088,-1.260000,-9.800000,-1.400000
141.444358,-0.048312,-0.108824,1.165344,-1.960000,-7.980000,-0.560000
141.448424,0.011224,0.237656,0.801784,-2.660000,8.260000,-0.560000
141.452490,-0.064416,-0.018056,1.104344,1.820000,0.560000,-1.540000
141.456556,-0.089304,-0.107848,1.025776,0.560000,0.280000,-1.400000
141.460622,-0.018544,-0.056120,0.688568,-0.280000,-0.280000,-0.560000
141.464688,0.018056,-0.081008,1.425936,-3.640000,-8.400000,-0.140000
141.468755,0.014640,0.030256,0.963800,-2.100000,-1.120000,1.540000
141.472821,-0.168848,0.207400,0.649040,0.420000,10.360000,0.700000
141.476887,-0.037576,-0.309880,1.455216,3.780000,-7.000000,-1.680000
141.480953,0.061000,-0.088816,0.976488,-4.480000,-4.200000,-0.700000
141.485019,-0.131272,0.060024,0.847168,-3.080000,1.120000,1.260000
141.489085,-0.037088,0.048312,1.555256,0.840000,0.840000,0.280000
141.493151,-0.015128,0.054656,0.581208,-3.500000,0.700000,0.700000
141.497217,-0.131760,-0.106384,1.053592,0.280000,1.820000,-0.140000
141.501283,-0.016104,-0.067344,1.309304,-1.400000,-6.580000,-1.960000
141.505349,0.132736,0.000976,0.679784,-5.600000,-8.680000,0.420000
141.509415,-0.184952,0.112728,1.041392,-1.820000,9.800000,0.000000
141.513481,-0.024400,0.000976,1.140944,2.380000,0.700000,-1.820000
141.517547,-0.043432,-0.151280,0.630984,-0.560000,-4.200000,-0.560000
141.521613,-0.011224,-0.160552,1.300032,-2.800000,-3.920000,1.260000
141.525679,-0.011712,0.150304,1.071160,-2.380000,0.000000,0.280000
141.529745,-0.042456,-0.031232,0.696864,0.420000,-0.280000,0.840000
141.533812,-0.071248,-0.063928,1.340048,-0.980000,5.740000,-0.980000
141.537878,-0.063928,-0.006832,1.099952,-0.420000,-5.880000,-2.100000
141.541944,-0.058072,-0.102968,0.843752,-1.260000,-7.980000,-0.140000
141.546010,-0.025864,0.009760,1.109224,-7.560000,4.620000,1.680000
141.550076,-0.059536,0.222040,1.030656,1.820000,0.700000,-0.980000
141.554142,-0.095648,-0.149816,0.727120,2.520000,0.560000,-1.260000
141.558208,0.092232,-0.181048,1.198040,-3.360000,-3.920000,-0.140000
141.562274,-0.008784,0.153720,0.972096,-5.180000,-4.340000,0.140000
141.566340,-0.090768,-0.039528,0.817888,1.680000,-0.280000,0.700000
141.570406,-0.051240,-0.052216,1.162416,-0.280000,9.520000,-0.700000
141.574472,0.048312,-0.061488,1.041880,-0.700000,-5.880000,-0.700000
141.578538,-0.153232,-0.052216,0.866200,0.420000,-2.380000,0.840000
141.582604,0.049776,-0.092720,1.192184,-5.320000,1.820000,1.260000
141.586670,-0.022936,0.179584,0.980880,-4.200000,0.280000,0.140000
141.590736,-0.140544,-0.039528,0.889624,4.340000,4.480000,-1.540000
141.594803,-0.035624,-0.105408,1.283928,-1.820000,0.840000,-1.960000
141.598869,0.075152,-0.026840,0.813984,-4.200000,-11.480000,-0.420000
141.602935,-0.070272,0.098576,0.746152,-2.800000,6.020000,0.840000
141.607001,-0.024400,-0.061488,1.254160,1.120000,5.320000,-2.100000
141.611067,-0.006344,0.005856,0.969656,1.680000,-3.220000,-2.100000
141.615133,0.002440,-0.086376,0.803248,-2.380000,0.000000,-0.280000
141.619199,-0.121512,-0.101992,1.353712,-1.540000,-0.140000,0.000000
141.623265,-0.019032,0.006832,0.750544,1.680000,-2.800000,-0.560000
141.627331,-0.001952,0.046848,1.006256,0.700000,6.160000,0.000000
141.631397,-0.119560,-0.058560,1.472784,0.980000,0.700000,-1.820000
141.635463,-0.029768,-0.074176,0.729560,0.140000,-6.300000,0.140000
141.639529,-0.107360,-0.008784,0.743712,-4.900000,3.360000,1.680000
141.643595,-0.002928,-0.005368,1.481568,0.840000,0.000000,-0.560000
141.647661,-0.089304,0.121512,0.698328,3.920000,6.020000,-3.360000
141.651727,0.090280,-0.062952,0.984784,-2.520000,-0.560000,-2.240000
141.655794,-0.143960,-0.123952,1.187792,-2.660000,-3.220000,-1.540000
141.659860,-0.125416,0.031720,0.491904,-0.280000,-1.820000,0.560000
141.663926,0.140544,0.016592,1.120936,-1.120000,3.780000,0.420000
141.667992,-0.023424,0.028304,1.470344,-1.680000,1.820000,-1.820000
141.672058,-0.098576,-0.024888,0.510936,3.080000,1.120000,-1.400000
141.676124,0.000976,-0.142008,0.867664,-2.100000,1.820000,-0.280000
141.680190,-0.076128,-0.137128,1.310768,-0.280000,-5.880000,0.000000
141.684256,-0.014640,0.238144,0.876936,2.940000,5.460000,-0.560000
141.688322,0.034160,0.035624,1.099464,-0.420000,2.800000,-1.120000
141.692388,-0.059048,-0.269376,1.159976,-1.960000,-4.760000,-0.700000
141.696454,-0.168848,0.063440,0.541680,0.140000,3.080000,-0.280000
141.700520,0.096136,-0.091256,1.244888,-0.420000,-0.700000,-0.840000
141.704586,-0.082960,-0.004392,1.405928,-2.240000,-0.280000,-0.560000
141.708652,-0.104432,0.246928,0.745664,1.680000,4.760000,-0.700000
141.712718,-0.057584,-0.171288,1.036024,-0.140000,-2.800000,-0.420000
141.716785,-0.122976,-0.264984,0.981856,-0.560000,-9.800000,0.560000
141.720851,0.023912,0.229848,0.940376,-1.960000,1.400000,1.260000
141.724917,0.039040,0.083936,1.038952,-1.680000,4.340000,-0.700000
141.728983,-0.101016,-0.122000,0.954040,2.380000,-0.560000,-0.980000
141.733049,-0.095160,0.002440,0.804712,-0.840000,4.620000,-0.280000
141.737115,-0.032696,-0.125904,0.855464,-0.280000,-8.400000,-0.140000
141.741181,-0.001952,-0.110288,1.102880,-1.120000,-5.880000,1.960000
141.745247,0.070272,0.277672,1.046760,-2.800000,6.580000,0.980000
141.749313,-0.045872,-0.037088,0.866688,2.240000,-2.100000,-0.140000
141.753379,-0.184464,-0.249368,1.036512,1.400000,3.360000,-1.540000
141.757445,0.140544,-0.099552,1.284904,-5.880000,-6.020000,0.000000
141.761511,-0.177632,0.162992,0.845216,-1.260000,-1.120000,1.540000
141.765577,-0.127856,0.027328,1.069696,-0.280000,7.420000,1.120000
141.769643,0.032696,-0.136152,1.224392,-0.980000,-3.640000,-0.560000
141.773709,-0.131760,0.082472,0.533384,0.280000,-4.620000,-0.140000
141.777775,-0.008784,-0.071736,1.077016,-0.420000,0.140000,-0.140000
141.781842,0.023912,-0.057096,1.123864,-7.280000,-4.200000,0.700000
141.785908,-0.043920,0.259128,0.710040,2.380000,4.060000,0.000000
141.789974,0.003904,-0.082960,1.040416,0.280000,8.120000,-1.820000
141.794040,-0.104432,-0.374296,1.278560,-1.680000,-9.940000,-0.420000
141.798106,-0.001952,0.183000,0.813008,-1.540000,0.560000,0.700000
141.802172,0.000976,0.011712,1.000888,-3.780000,-1.260000,1.260000
141.806238,-0.190808,-0.126880,1.171688,2.380000,0.980000,-1.120000
141.810304,0.000976,0.055632,1.085800,-1.960000,2.660000,-0.840000
141.814370,0.001952,0.040992,0.868640,-3.780000,-3.360000,-1.120000
141.818436,-0.203496,-0.111264,0.603656,0.700000,-1.120000,0.560000
141.822502,0.071736,-0.060024,1.264896,-1.540000,1.120000,0.840000
141.826568,0.048312,0.137616,1.179496,-1.540000,-2.660000,0.980000
141.830634,-0.101992,0.179096,0.680272,4.060000,9.100000,-0.840000
141.834700,0.050264,-0.376248,1.163880,-3.640000,-4.340000,-0.140000
141.838766,-0.153232,-0.129320,0.962336,-0.980000,-6.300000,1.260000
141.842833,-0.042944,0.229360,0.730048,0.980000,6.860000,0.560000
141.846899,0.122000,-0.078080,1.337120,-3.080000,-2.100000,-0.420000
141.850965,-0.212280,0.000000,0.968192,1.120000,3.360000,-0.280000
141.855031,-0.086376,-0.040016,0.916952,0.140000,2.800000,-0.560000
141.859097,0.011224,-0.141032,0.772016,-3.080000,-12.460000,0.700000
141.863163,-0.032696,0.055144,1.099952,-2.380000,2.100000,1.820000
141.867229,0.006344,0.161528,1.398608,-1.680000,3.080000,1.540000
141.871295,-0.103944,-0.006344,0.609024,3.640000,-0.840000,-0.280000
141.875361,0.006832,-0.171776,0.707112,-0.840000,1.120000,0.000000
141.879427,-0.010248,-0.226920,1.528416,-3.080000,-8.120000,-0.280000
141.883493,-0.193736,0.170312,0.737368,0.000000,0.560000,0.700000
141.887559,0.020496,0.147376,0.803736,0.280000,6.300000,0.000000
141.891625,-0.020008,-0.237656,1.227320,-3.640000,-5.880000,1.400000
141.895691,-0.188368,0.107848,1.178032,3.220000,2.380000,-0.980000
141.899757,0.130296,-0.089304,0.875960,-5.600000,-6.020000,0.420000
141.903824,-0.061488,-0.040016,0.715408,-0.980000,-5.040000,1.120000
141.907890,-0.104432,-0.013176,1.220976,0.560000,9.520000,0.420000
141.911956,-0.063440,0.002928,1.176568,-1.680000,-2.240000,0.280000
141.916022,-0.034648,0.075152,0.561688,-0.280000,-0.980000,-0.140000
141.920088,-0.031720,-0.071736,1.128744,-2.940000,-0.140000,0.420000
141.924154,-0.125904,-0.250344,1.240008,-1.120000,-10.220000,1.400000
141.928220,-0.037088,0.211304,0.887672,0.000000,4.480000,0.560000
141.932286,0.179096,0.166896,0.972096,-3.220000,3.220000,-0.560000
141.936352,-0.155672,-0.075152,0.874496,-1.540000,2.100000,-0.840000
141.940418,-0.186416,-0.247904,1.078968,1.400000,4.480000,-2.380000
141.944484,0.061000,-0.179584,1.141920,-7.420000,-9.660000,-0.840000
141.948550,-0.099064,0.348432,0.682712,-2.520000,2.380000,0.700000
141.952616,0.015616,0.150792,1.211216,0.140000,8.960000,-1.120000
141.956682,-0.117608,-0.292800,1.046272,-0.140000,-4.060000,-1.820000
141.960748,-0.086864,-0.045872,1.084336,-0.280000,1.260000,-1.820000
141.964814,0.076128,-0.003904,0.987224,-4.900000,-4.900000,0.280000
141.968881,-0.176168,0.066856,0.673928,1.680000,-0.420000,0.000000
141.972947,-0.090768,-0.066368,1.055056,1.820000,6.020000,-0.700000
141.977013,0.023424,-0.082472,1.449848,-2.800000,-5.460000,-0.280000
141.981079,-0.140544,0.230336,0.722728,0.840000,1.540000,-1.400000
141.985145,0.048312,-0.097600,0.675392,-3.500000,-1.820000,-1.120000
141.989211,-0.085400,-0.211304,1.144360,-2.660000,-10.360000,-0.420000
141.993277,-0.075152,0.136640,1.263920,0.980000,5.320000,-0.700000
141.997343,0.026352,0.081984,1.073600,-2.940000,0.140000,-1.540000
142.001409,-0.212280,-0.024400,0.493368,1.540000,-0.560000,-2.520000
142.005475,-0.038064,-0.142008,1.122400,-0.420000,-0.560000,-1.680000
142.009541,-0.047336,-0.139568,1.333216,-4.760000,-10.500000,0.840000
142.013607,-0.056120,0.318664,0.694424,0.560000,5.460000,-0.420000
142.017673,0.123952,0.046360,0.935008,-2.380000,3.220000,-1.540000
142.021739,-0.209840,-0.247904,1.137528,1.820000,-2.240000,-2.240000
142.025805,-0.170312,-0.099064,1.120936,0.560000,1.260000,-2.660000
142.029872,0.032696,0.000000,0.881816,-7.280000,-9.660000,0.560000
142.033938,-0.097600,0.227408,0.592432,-1.400000,0.140000,0.560000
142.038004,0.009272,-0.064904,1.443504,-1.400000,6.440000,-1.120000
142.042070,-0.073688,-0.135664,1.127280,-0.560000,-5.040000,-2.940000
142.046136,-0.029280,0.089792,0.484584,-1.540000,1.260000,-2.100000
142.050202,0.000000,-0.053680,1.135576,-5.320000,-3.220000,-0.140000
142.054268,-0.278160,-0.187880,1.134600,2.100000,-0.280000,0.140000
142.058334,-0.029280,0.108824,1.169248,0.420000,3.780000,-1.120000
142.062400,0.109800,0.137128,0.833504,-3.360000,-5.320000,-2.240000
142.066466,-0.188368,-0.052216,0.638304,-1.120000,1.680000,-1.680000
142.070532,-0.061488,-0.212768,1.203896,-1.820000,0.000000,-1.400000
142.074598,0.056608,0.018544,1.072624,-3.360000,-7.280000,-0.420000
142.078664,-0.055632,0.366976,0.937936,0.000000,9.940000,-1.260000
142.082730,-0.134688,-0.317688,1.209752,-1.120000,-1.540000,-1.960000
142.086796,-0.245464,-0.282552,0.960872,1.540000,-8.540000,-1.540000
142.090863,0.066856,0.258152,0.845704,-2.520000,3.500000,-0.840000
142.094929,0.123952,0.168360,0.946720,-4.900000,1.400000,-0.700000
142.098995,-0.272792,-0.052216,0.884256,4.480000,7.980000,-2.240000
142.103061,-0.014640,-0.243024,1.123864,0.840000,-0.420000,-2.100000
142.107127,0.006344,-0.039528,1.004304,-3.500000,-10.220000,-0.140000
142.111193,-0.081496,0.160552,0.932080,-0.280000,4.200000,0.140000
142.115259,-0.052216,-0.084912,1.455704,-1.820000,4.340000,-1.260000
142.119325,-0.161040,-0.000976,0.814960,2.940000,0.000000,-2.100000
142.123391,-0.008296,0.116144,0.599264,1.540000,2.380000,-1.120000
142.127457,0.005368,-0.234240,1.138504,-2.520000,-8.540000,-0.700000
142.131523,-0.096624,0.018544,0.964776,-1.120000,0.280000,-0.840000
142.135589,0.074664,0.187880,0.934520,-0.840000,8.260000,-2.660000
142.139655,-0.125904,-0.114680,0.995032,-0.980000,0.980000,-2.940000
142.143721,-0.210328,-0.213256,1.075552,2.240000,0.000000,-1.680000
142.147787,0.094184,-0.011224,1.311744,-6.440000,-2.940000,1.540000
142.151854,-0.143960,0.230824,0.663680,-0.700000,0.420000,1.540000
142.155920,-0.038552,0.000488,0.996008,5.600000,9.520000,-0.980000
142.159986,0.020008,-0.191296,1.378112,-2.660000,-2.660000,-2.380000
142.164052,-0.042456,0.051728,0.579256,-2.100000,-3.640000,-1.120000
142.168118,-0.110288,0.061000,0.616344,0.280000,6.860000,-0.840000
142.172184,-0.020496,-0.245952,1.530856,-0.980000,-2.660000,-0.980000
142.176250,-0.095648,0.168360,1.011624,1.960000,5.180000,-1.820000
142.180316,-0.020008,0.166408,0.870592,-0.420000,4.340000,-1.960000
142.184382,-0.101016,-0.387472,1.157536,-4.060000,-6.860000,-1.960000
142.188448,-0.134688,-0.050752,0.964288,-3.080000,-1.400000,-0.840000
142.192514,0.140056,0.365024,0.985272,-1.120000,9.520000,-0.980000
142.196580,-0.089304,-0.122976,1.240008,2.100000,3.640000,-1.680000
142.200646,-0.052216,-0.121512,0.968192,0.560000,7.700000,-1.680000
142.204712,-0.016104,0.000976,0.848144,-3.220000,6.160000,-1.120000
142.208778,-0.205448,-0.214232,1.323456,-0.840000,1.400000,-0.700000
142.212844,0.008296,0.161528,1.053104,-2.100000,13.580000,-0.560000
142.216911,0.073688,0.232776,1.098976,-2.940000,12.180000,-2.100000
142.220977,-0.121512,-0.200080,1.076040,1.960000,7.560000,-2.520000
142.225043,-0.087840,-0.122000,0.690032,0.980000,14.140000,-2.800000
142.229109,-0.010248,-0.121024,1.268800,-0.840000,7.840000,-2.660000
142.233175,-0.109312,0.019032,1.404464,1.540000,10.640000,-0.420000
142.237241,-0.073688,0.249368,0.902800,2.380000,20.440001,-0.700000
142.241307,-0.071736,-0.044896,0.803736,6.440000,12.600000,-3.220000
142.245373,-0.054656,-0.385032,1.072624,5.880000,0.700000,-2.660000
142.249439,0.035136,0.067832,1.162416,1.120000,10.500000,-0.140000
142.253505,-0.071248,0.173240,1.101904,6.580000,11.900000,-1.260000
142.257571,-0.168848,-0.210816,1.136552,9.520000,12.180000,-0.840000
142.261637,-0.015616,0.135176,0.982344,7.980000,16.940001,-1.260000
142.265703,0.029768,-0.034648,0.964776,8.120000,10.220000,-2.800000
142.269769,-0.124928,-0.254248,1.155584,7.840000,4.340000,-2.380000
142.273835,0.021960,0.174704,0.824720,1.820000,15.820000,-1.400000
142.277902,-0.076128,0.117608,1.105320,5.320000,12.460000,-2.800000
142.281968,-0.247416,-0.171288,1.208776,6.020000,10.780000,-1.820000
142.286034,0.016592,0.016104,0.944280,4.340000,8.820000,-2.380000
142.290100,0.066856,-0.053680,1.016504,-1.680000,-2.380000,-0.980000
142.294166,-0.185440,-0.017080,0.921344,0.700000,5.460000,-0.280000
142.298232,-0.012688,0.143960,0.840336,0.560000,13.580000,-0.140000
142.302298,-0.060512,-0.097600,1.221952,1.680000,1.400000,-0.980000
142.306364,-0.119072,-0.101016,1.342976,-0.280000,0.840000,0.140000
142.310430,-0.088816,0.123464,0.789584,-1.820000,-0.980000,0.700000
142.314496,-0.106384,-0.183976,1.010648,-0.280000,-13.020000,0.000000
142.318562,-0.064416,-0.159576,1.096536,-3.080000,-10.640000,0.840000
142.322628,0.067832,0.341112,0.988200,-1.260000,0.560000,0.700000
142.326694,0.009760,-0.028792,1.296616,1.120000,-3.920000,-1.400000
142.330760,-0.065392,-0.261568,0.829112,-2.940000,0.140000,-1.400000
142.334826,-0.116632,0.109800,0.885720,-0.140000,2.800000,-0.280000
142.338893,-0.125904,-0.212768,1.344440,0.840000,-5.740000,0.700000
142.342959,-0.034648,0.128832,1.011136,-0.140000,-0.420000,0.840000
142.347025,0.107848,0.231312,0.957944,-2.100000,1.400000,0.000000
142.351091,-0.070760,-0.206912,1.303448,0.980000,-2.800000,-1.540000
142.355157,-0.152744,-0.170312,0.633912,0.420000,0.140000,-0.560000
142.359223,-0.050264,-0.059536,1.204384,0.140000,-0.280000,-0.560000
142.363289,-0.026840,-0.025864,1.529392,-2.660000,-2.940000,0.840000
142.367355,0.018544,0.352336,0.695888,0.140000,6.860000,1.680000
142.371421,-0.155672,-0.153232,1.080920,0.140000,6.300000,-0.560000
142.375487,0.002440,-0.216672,1.213168,1.960000,-8.260000,-2.520000
142.379553,0.002928,-0.137128,0.946232,-3.360000,-6.440000,-1.400000
142.383619,-0.142984,0.083448,1.479616,-1.540000,1.400000,-2.100000
142.387685,0.029768,0.099552,0.915488,0.420000,-0.980000,-2.240000
142.391751,-0.136152,-0.178608,1.079456,-0.980000,0.700000,0.140000
142.395817,-0.062464,0.212768,1.204872,0.000000,7.700000,-0.140000
142.399884,-0.053192,-0.102968,1.584048,2.380000,-1.540000,-2.940000
142.403950,0.106872,-0.254736,1.011136,-2.380000,-5.740000,-2.240000
142.408016,-0.144448,-0.137616,1.266848,-0.420000,-0.840000,-1.400000
142.412082,0.028304,0.336232,1.307840,2.100000,2.520000,-2.660000
142.416148,-0.147864,-0.177144,1.070184,-0.280000,-0.700000,-0.980000
142.420214,-0.137128,-0.109312,0.784216,-1.820000,1.120000,1.680000
142.424280,-0.156160,0.101016,1.656272,2.240000,5.460000,-0.140000
142.428346,0.131760,0.049288,1.685064,0.840000,-1.260000,-1.540000
142.432412,0.061976,-0.183000,1.200968,-0.980000,-5.040000,-1.260000
142.436478,-0.105408,-0.068320,1.028216,-0.840000,1.260000,-0.840000
142.440544,-0.103456,0.107360,1.338584,5.740000,3.220000,-3.360000
142.444610,-0.104920,-0.208864,1.434232,-1.120000,-9.800000,-1.680000
142.448676,0.003416,-0.195200,0.937448,-4.620000,-4.480000,0.140000
142.452742,-0.180072,0.177632,1.363472,2.520000,7.560000,-0.280000
142.456808,-0.075152,0.074664,1.689944,4.340000,2.940000,-1.820000
142.460875,0.144936,-0.245952,1.250744,-3.640000,-6.020000,-0.980000
142.464941,-0.074176,-0.033184,1.197552,-1.680000,-1.120000,-1.120000
142.469007,-0.134200,0.296216,1.600640,5.040000,12.600000,-2.520000
142.473073,-0.051728,0.005856,1.506944,2.940000,1.680000,-1.960000
142.477139,-0.014640,-0.324520,0.929640,-6.860000,-13.580000,1.260000
142.481205,-0.116632,-0.141032,0.966240,-1.540000,-2.240000,0.280000
142.485271,-0.122976,0.176168,1.652368,5.320000,8.960000,-2.100000
142.489337,-0.013176,-0.084424,1.689944,0.560000,-5.040000,-1.680000
142.493403,0.058560,-0.445056,1.038464,-5.040000,-10.220000,0.140000
142.497469,-0.172752,0.123464,1.068720,-1.120000,0.700000,-0.700000
142.501535,-0.041968,0.286944,1.724592,6.580000,5.460000,-3.220000
142.505601,-0.010736,-0.122976,1.687504,0.700000,-5.180000,-2.940000
142.509667,0.078568,-0.158112,0.888648,-6.580000,-6.300000,-0.980000
142.513733,-0.195200,0.163480,1.115568,3.640000,11.900000,-2.380000
142.517799,-0.202520,0.109312,1.654808,6.860000,7.840000,-3.080000
142.521866,0.081008,-0.287432,1.326384,0.140000,-6.720000,-1.540000
142.525932,-0.087352,-0.359656,1.159976,-2.660000,-6.580000,0.140000
142.529998,-0.123952,0.128832,1.402512,5.320000,3.080000,-0.840000
142.534064,0.004392,0.101992,1.669448,7.280000,-0.700000,-1.400000
142.538130,0.052704,-0.345016,1.396168,0.000000,-11.480000,-0.420000
142.542196,-0.027816,-0.162016,1.065792,2.100000,-1.540000,-0.140000
142.546262,-0.194224,0.339160,1.317112,14.980000,16.940001,-1.540000
142.550328,-0.127856,0.236192,1.499624,13.020000,8.680000,-0.980000
142.554394,0.006344,-0.344040,1.379576,5.180000,-9.520000,0.700000
142.558460,-0.040504,-0.247416,1.063840,6.300000,-3.220000,0.000000
142.562526,-0.081008,0.213256,1.269776,17.639999,9.100000,-3.360000
142.566592,-0.065392,-0.041968,1.929552,17.219999,3.220000,-4.900000
142.570658,0.046360,-0.372344,1.301008,5.880000,-11.200000,-2.660000
142.574724,0.026840,-0.224480,1.001376,7.280000,-4.760000,-0.840000
142.578790,-0.283528,0.227896,1.383480,17.500000,9.660000,-1.540000
142.582856,-0.081008,0.104920,1.451312,19.040001,6.020000,0.000000
142.586923,0.023424,-0.220088,1.266848,12.740000,-10.920000,2.240000
142.590989,-0.065392,-0.088816,1.108736,11.620000,-3.080000,2.800000
142.595055,-0.172752,0.298168,1.087264,19.740000,15.400000,0.140000
142.599121,-0.040992,-0.007808,1.623088,21.559999,3.780000,-2.100000
142.603187,0.061488,-0.391864,1.392752,9.660000,-13.440001,-1.120000
142.607253,0.013664,-0.157136,0.957456,8.960000,-5.040000,-1.400000
142.611319,-0.099064,0.194712,1.352248,17.780001,5.740000,-3.080000
142.615385,-0.107360,-0.095160,1.582584,17.219999,-4.200000,-3.220000
142.619451,0.032696,-0.185928,0.852536,7.980000,-8.680000,1.260000
142.623517,-0.117608,0.090768,0.820816,12.460000,5.320000,1.680000
142.627583,-0.093208,0.204960,1.507432,18.480000,8.260000,-0.700000
142.631649,-0.106872,-0.184464,1.358592,16.100000,-3.220000,-2.100000
142.635715,0.000000,-0.314272,1.057496,9.800000,-5.880000,-0.980000
142.639781,0.036112,0.102480,1.262944,11.620000,0.140000,-2.100000
142.643847,-0.095160,-0.021472,1.477664,14.420000,-2.940000,-1.960000
142.647914,-0.100528,-0.135664,0.820816,11.340000,-2.800000,1.400000
142.651980,-0.156160,-0.014640,0.962824,12.880000,4.340000,2.240000
142.656046,0.077592,0.156160,1.465952,15.260000,3.360000,-0.420000
142.660112,-0.101016,-0.101992,1.071648,13.440001,-1.960000,-1.260000
142.664178,0.066856,-0.183976,0.833016,9.520000,0.560000,-1.820000
142.668244,-0.010736,-0.088816,1.470832,5.460000,-5.600000,-2.800000
142.672310,-0.039040,-0.018056,1.063840,3.640000,-3.500000,-0.280000
142.676376,-0.244488,0.057584,0.848632,4.760000,7.280000,1.680000
142.680442,-0.010736,-0.068320,1.150704,5.600000,1.960000,0.980000
142.684508,-0.044896,-0.085888,1.209752,7.980000,-3.920000,-0.280000
142.688574,0.044408,0.012688,0.851560,11.200000,3.500000,-0.980000
142.692640,-0.093208,-0.194712,1.418128,11.060000,-4.060000,-2.240000
142.696706,0.022936,-0.014640,0.790560,7.000000,-6.860000,-0.560000
142.700772,-0.110776,0.016592,0.842288,4.900000,5.740000,1.400000
142.704838,-0.087352,0.093696,1.288320,5.460000,5.880000,-0.140000
142.708905,-0.080520,-0.271816,1.001864,6.580000,-4.760000,-0.420000
142.712971,0.040504,-0.069296,1.121424,1.680000,0.000000,-0.560000
142.717037,0.000000,0.038552,1.055056,2.520000,-3.640000,-0.700000
142.721103,-0.262544,-0.142008,0.957944,8.540000,4.060000,0.000000
142.725169,0.011712,0.100040,0.854488,6.440000,3.360000,0.280000
142.729235,0.096136,-0.054168,1.037976,4.060000,-1.400000,-1.680000
142.733301,-0.241560,-0.194712,0.908656,4.200000,-1.820000,-1.400000
142.737367,0.152744,-0.027816,0.905240,-1.260000,-5.040000,0.560000
142.741433,-0.013664,0.018544,0.731512,-3.220000,-0.420000,0.980000
142.745499,-0.231800,-0.020984,1.006744,9.240000,7.420000,-2.100000
142.749565,0.172264,-0.196176,1.308328,-2.520000,-5.880000,-1.540000
142.753631,-0.131760,0.076616,0.415288,-3.500000,-5.460000,-0.420000
142.757697,-0.068808,-0.076616,0.572912,0.280000,1.260000,-0.140000
142.761763,0.086864,-0.278648,1.208776,-7.560000,-13.720000,0.840000
142.765829,-0.269376,0.169336,0.800320,4.620000,-2.380000,-1.960000
142.769896,0.155672,0.003904,0.795440,0.000000,-7.000000,-1.260000
142.773962,0.056608,-0.171288,0.770064,-4.200000,-13.440001,1.120000
142.778028,-0.110776,0.121024,0.795928,3.780000,1.540000,-1.680000
142.782094,-0.046848,-0.254736,1.079944,1.120000,-5.320000,-0.140000
142.786160,-0.273280,0.046360,0.834968,3.640000,-6.720000,0.980000
142.790226,0.089792,-0.030256,1.074088,0.980000,-3.500000,-1.120000
142.794292,0.173240,-0.257664,0.622200,-9.660000,-14.560000,0.560000
142.798358,-0.270352,0.263032,0.375272,2.800000,0.980000,-1.400000
142.802424,0.237656,-0.232776,0.828624,-1.400000,-11.480000,0.420000
142.806490,-0.105896,-0.070760,0.728096,-2.940000,-4.900000,-0.420000
142.810556,-0.102480,-0.026840,1.078968,3.780000,1.260000,-1.680000
142.814622,-0.163968,-0.126392,0.882792,2.380000,-10.360000,2.380000
142.818688,0.012688,-0.044408,0.916464,2.100000,-3.500000,0.280000
142.822754,0.005368,-0.122976,0.763232,-0.980000,-8.120000,0.140000
142.826820,-0.164944,0.206912,0.458720,6.160000,-0.280000,-0.700000
142.830887,0.226920,-0.165432,0.773968,-2.660000,-9.660000,-0.140000
142.834953,-0.077592,-0.040016,0.710528,-0.840000,-10.360000,-1.260000
142.839019,-0.123464,0.064416,0.949160,1.960000,2.380000,-2.660000
142.843085,-0.020984,-0.325008,0.835944,-1.260000,-11.200000,2.520000
142.847151,0.030256,-0.040504,0.860344,2.520000,-4.900000,0.000000
142.851217,-0.025864,-0.107848,0.768112,-0.980000,-2.100000,-0.700000
142.855283,-0.244488,0.210328,0.576816,6.440000,-2.100000,0.840000
142.859349,0.209352,-0.124440,1.095560,-1.260000,-7.840000,0.280000
142.863415,-0.130784,-0.061488,0.546560,-0.840000,-10.080000,-0.280000
142.867481,-0.054656,0.125904,0.693936,9.100000,-1.260000,-1.820000
142.871547,0.127856,-0.340624,0.726144,-5.320000,-11.760000,2.380000
142.875613,-0.160552,0.008784,1.095072,3.780000,-6.440000,-0.980000
142.879679,0.050264,-0.158600,1.013088,1.400000,-7.000000,-2.100000
142.883745,-0.196664,0.081984,0.501664,0.140000,-0.980000,0.140000
142.887811,0.162992,-0.061488,0.712968,-1.400000,-3.500000,-0.980000
142.891878,-0.018056,-0.136640,0.635376,-5.460000,-10.500000,1.260000
142.895944,-0.275232,0.319152,0.818376,11.200000,5.600000,-0.980000
142.900010,0.257664,-0.400648,0.919392,-4.900000,-13.720000,2.100000
142.904076,-0.153232,-0.037576,0.724192,-0.560000,-4.760000,-1.120000
142.908142,0.027816,-0.037576,1.021872,3.920000,-2.940000,-3.360000
142.912208,-0.142984,-0.249368,0.618296,-3.080000,-9.940000,1.260000
142.916274,-0.074176,0.130784,0.905728,2.240000,-4.200000,-0.980000
142.920340,0.075152,-0.208376,0.847168,-5.600000,-14.700000,1.820000
142.924406,-0.327448,0.403576,0.601704,7.000000,-0.420000,0.000000
142.928472,0.336720,-0.347944,0.801784,-3.080000,-9.940000,1.120000
142.932538,-0.096624,-0.087840,0.480192,-6.160000,-9.940000,0.280000
142.936604,-0.121512,0.138592,1.091656,5.880000,1.960000,-2.660000
142.940670,0.059048,-0.412848,0.936960,-7.560000,-14.420000,3.220000
142.944736,-0.207400,0.091744,0.914024,2.100000,-0.280000,-0.840000
142.948802,0.103944,-0.200568,0.944768,-0.140000,-10.220000,0.560000
142.952868,-0.206912,0.165432,0.610000,5.040000,0.700000,0.840000
142.956935,0.183488,-0.104920,0.863272,1.960000,-0.560000,-0.560000
142.961001,-0.020496,-0.121512,0.502152,-0.280000,-7.560000,0.140000
142.965067,-0.178120,0.268888,0.742736,8.960000,9.520000,-2.800000
142.969133,0.078080,-0.382592,1.016992,-3.500000,-7.420000,2.520000
142.973199,-0.121512,-0.038552,0.956968,1.120000,-3.640000,-0.700000
142.977265,-0.027328,-0.101016,0.968192,1.680000,-3.920000,-2.100000
142.981331,-0.064416,0.055632,0.494832,-1.680000,-2.940000,0.840000
142.985397,0.142984,0.020496,0.802272,-3.080000,3.640000,-0.700000
142.989463,-0.031720,-0.176656,0.690520,-1.680000,-1.680000,-0.140000
142.993529,-0.172264,0.157136,0.923296,7.560000,12.040000,-1.680000
142.997595,0.044896,-0.353800,1.047248,-1.540000,0.280000,2.100000
143.001661,-0.048800,-0.006344,0.918904,1.120000,2.800000,-0.140000
143.005727,0.000976,-0.083448,0.822768,1.260000,1.400000,-1.960000
143.009793,-0.180560,0.110776,0.409432,2.660000,1.960000,-0.140000
143.013859,0.185440,0.001952,0.732976,-3.500000,2.380000,-0.840000
143.017926,-0.013176,-0.157624,0.821304,-6.020000,-4.480000,-1.960000
143.021992,-0.222040,0.083936,1.098488,3.920000,3.780000,-3.360000
143.026058,0.061488,-0.344528,1.056520,-8.400000,-0.980000,0.000000
143.030124,-0.112240,-0.085888,0.733464,-3.920000,-5.600000,0.700000
143.034190,0.027816,0.139568,0.861320,1.820000,5.460000,-2.100000
143.038256,-0.074664,-0.048800,0.621224,-1.540000,-0.560000,0.980000
143.042322,0.016592,0.041968,0.671488,4.620000,2.800000,0.000000
143.046388,0.208864,-0.249856,1.071648,-2.800000,-1.960000,-0.980000
143.050454,-0.343064,0.014152,0.757376,2.660000,3.920000,-1.540000
143.054520,-0.030256,-0.028304,1.105320,4.200000,2.520000,-0.980000
143.058586,0.118096,-0.270840,0.893528,-7.700000,-7.700000,0.980000
143.062652,-0.145912,0.320616,0.657336,5.320000,8.400000,-3.500000
143.066718,0.151280,-0.164456,0.845704,0.840000,-0.700000,-1.260000
143.070784,-0.125904,-0.154696,0.570472,-1.400000,0.980000,0.700000
143.074850,-0.004880,-0.029280,1.167296,2.660000,2.100000,-2.240000
143.078917,-0.049776,-0.150304,1.050664,-5.180000,-7.560000,-1.120000
143.082983,-0.276208,0.303536,0.730048,4.900000,5.180000,-2.520000
143.087049,0.386008,-0.271328,0.756400,-6.020000,-8.540000,-0.140000
143.091115,-0.155672,-0.105896,0.670512,-3.220000,-1.540000,-1.120000
143.095181,-0.138592,-0.008784,1.093120,8.120000,2.940000,-3.080000
143.099247,0.026840,-0.153232,0.939888,-4.480000,-8.400000,1.680000
143.103313,-0.075640,0.205448,0.671976,1.400000,6.020000,-0.280000
143.107379,0.138592,-0.130296,0.908168,-0.280000,-1.400000,-1.820000
143.111445,-0.172264,-0.116632,0.895480,0.840000,0.700000,-1.120000
143.115511,-0.081496,-0.044408,1.012600,2.660000,6.300000,-1.820000
143.119577,0.166408,-0.253760,0.850096,-4.620000,-9.240000,-0.140000
143.123643,-0.229360,0.305488,0.597800,4.900000,5.880000,-2.520000
143.127709,0.067832,-0.055632,0.909144,5.040000,-1.820000,-0.420000
143.131775,0.011712,-0.284016,1.012600,-1.260000,-6.720000,1.820000
143.135841,-0.147864,0.015128,1.118008,2.240000,9.380000,-2.100000
143.139908,0.079544,-0.106872,0.744688,0.560000,-7.420000,-1.400000
143.143974,-0.194224,0.239120,0.426512,0.560000,5.740000,0.560000
143.148040,0.093208,-0.300120,1.212680,-2.380000,-0.420000,0.560000
143.152106,0.016104,-0.232288,0.957456,-4.760000,-8.820000,0.560000
143.156172,-0.185440,0.280600,0.640744,3.080000,8.120000,-2.520000
143.160238,0.124928,-0.136640,0.825208,-4.620000,-7.560000,0.980000
143.164304,-0.118584,-0.059536,0.833504,-1.820000,0.980000,0.840000
143.168370,0.040016,-0.152256,1.409832,2.100000,5.320000,-2.660000
143.172436,-0.050752,-0.119560,0.718824,3.360000,-2.660000,-0.560000
143.176502,-0.090280,0.216184,0.521672,0.280000,9.240000,0.560000
143.180568,0.161528,-0.203008,0.672952,-6.720000,-7.140000,1.400000
143.184634,-0.163968,-0.055144,0.941352,-0.280000,-2.520000,-0.280000
143.188700,-0.097600,-0.000488,1.202432,2.520000,8.540000,-1.120000
143.192766,0.096136,-0.136640,0.940864,-2.800000,-7.980000,2.240000
143.196832,0.073200,0.112728,0.591456,-2.940000,7.000000,-0.140000
143.200899,-0.136152,-0.184464,0.996496,0.980000,4.340000,-1.960000
143.204965,-0.213744,-0.111264,1.016992,5.180000,-3.780000,0.420000
143.209031,0.065880,-0.054656,1.015528,-0.700000,3.920000,0.700000
143.213097,0.150304,-0.092720,0.693448,-0.280000,-4.340000,-1.680000
143.217163,-0.052704,0.085400,0.375272,5.460000,1.260000,-2.240000
143.221229,-0.042944,-0.017568,0.941352,1.820000,4.480000,-1.400000
143.225295,-0.038552,-0.269376,1.240984,-0.840000,-7.280000,0.560000
143.229361,-0.031232,0.102480,0.980880,3.640000,4.480000,-2.100000
143.233427,-0.034648,-0.026352,0.860344,5.740000,0.140000,-2.380000
143.237493,-0.058072,-0.025864,0.530456,7.980000,-6.300000,0.140000
143.241559,0.106872,-0.061976,0.989176,2.100000,0.000000,-0.980000
143.245625,-0.126880,-0.172264,1.177544,6.720000,-0.840000,-3.640000
143.249691,-0.060024,-0.034160,0.913536,12.600000,2.520000,-2.100000
143.253757,0.131760,-0.005368,0.967216,7.560000,3.500000,0.140000
143.257823,0.009272,-0.145424,0.720288,11.060000,1.260000,-0.560000
143.261890,-0.118096,-0.068808,0.712480,14.280000,6.300000,-0.560000
143.265956,-0.089304,-0.027816,1.122400,13.160000,-2.800000,-0.140000
143.270022,0.080520,-0.001464,0.794464,7.140000,-1.820000,1.260000
143.274088,0.109800,0.024888,0.726144,6.300000,3.780000,-1.400000
143.278154,-0.112240,-0.159576,0.905240,10.780000,-3.780000,-2.660000
143.282220,-0.157136,0.012200,0.953552,12.180000,3.220000,-1.260000
143.286286,0.098576,-0.050752,1.200968,7.280000,3.220000,0.000000
143.290352,0.070760,-0.055144,0.759816,10.220000,-3.360000,-0.560000
143.294418,-0.102480,0.011224,0.616832,12.320000,8.120000,-1.260000
143.298484,-0.074176,-0.151768,0.976488,7.840000,-2.800000,-0.420000
143.302550,-0.008784,-0.063928,1.087264,6.860000,-7.000000,0.560000
143.306616,0.103456,0.045384,0.908656,6.580000,6.020000,-1.820000
143.310682,-0.085888,-0.071736,0.679296,13.720000,-0.700000,-2.940000
143.314748,-0.105408,-0.021472,0.770552,13.580000,-0.980000,0.420000
143.318814,0.027816,-0.085400,1.238056,4.900000,2.660000,1.400000
143.322881,0.028304,-0.064904,1.007720,11.200000,-5.880000,-1.540000
143.326947,-0.009272,0.032208,0.433344,13.160000,6.300000,-2.100000
143.331013,-0.034160,-0.091744,0.931592,5.880000,-2.380000,-0.840000
143.335079,-0.034648,-0.098088,1.114592,6.580000,-7.140000,-0.280000
143.339145,0.054168,0.088328,0.936960,6.720000,5.880000,-2.520000
143.343211,-0.074176,-0.080520,0.666608,6.160000,-1.540000,-2.800000
143.347277,-0.145424,-0.025864,0.810568,9.660000,-5.040000,-0.140000
143.351343,0.037088,-0.038064,1.366400,2.100000,1.400000,0.140000
143.355409,0.062952,-0.097112,0.907680,2.660000,-5.460000,-2.240000
143.359475,-0.079544,0.125904,0.311832,5.600000,2.100000,-3.220000
143.363541,-0.007808,-0.230824,1.203408,-3.220000,-4.480000,-1.260000
143.367607,-0.080520,-0.034648,1.094096,0.700000,-5.460000,0.000000
143.371673,0.142496,0.096136,0.675880,-0.140000,1.960000,-1.400000
143.375739,-0.092232,-0.070760,0.688080,-1.260000,-5.040000,-2.940000
143.379805,-0.187880,-0.058072,1.151680,-1.820000,-0.140000,-1.540000
143.383872,0.192760,0.004880,1.173640,-9.660000,-1.120000,0.420000
143.387938,-0.039040,-0.003416,0.616832,-5.460000,-2.660000,-0.700000
143.392004,-0.171776,-0.126392,1.068720,-0.840000,3.360000,-2.100000
143.396070,-0.052216,-0.167872,1.205360,-4.060000,-6.580000,-1.260000
143.400136,0.062464,0.033184,0.625128,-3.640000,-5.880000,0.420000
143.404202,0.137616,0.022448,0.821304,-3.920000,2.800000,-0.280000
143.408268,-0.145424,-0.264984,0.936960,1.260000,-1.260000,-1.960000
143.412334,-0.191784,0.096624,0.928664,4.620000,2.800000,-0.140000
143.416400,0.233752,0.020984,0.962336,-3.920000,0.840000,2.100000
143.420466,-0.004392,-0.100528,0.888160,-1.680000,-1.540000,1.120000
143.424532,-0.274744,-0.062952,0.932080,7.840000,4.060000,-0.980000
143.428598,0.042456,-0.048800,1.251720,-2.240000,-9.100000,-0.140000
143.432664,-0.006832,0.049776,0.657336,-2.940000,-1.680000,1.260000
143.436730,0.085888,-0.095160,0.930616,0.280000,1.540000,0.280000
143.440796,-0.132736,-0.220576,0.949160,-2.100000,-5.180000,-1.540000
143.444863,-0.122976,0.151280,0.648064,4.340000,4.060000,-0.700000
143.448929,0.268888,-0.069296,1.061400,-1.540000,-2.940000,1.260000
143.452995,-0.040504,-0.155672,1.084824,-1.820000,-5.600000,-1.680000
143.457061,-0.264984,0.151768,0.780800,4.200000,3.220000,-4.760000
143.461127,0.138104,-0.147376,0.897920,-3.080000,-10.360000,-1.820000
143.465193,-0.144448,-0.068808,0.924760,-1.820000,-3.640000,0.000000
143.469259,0.047824,-0.006344,1.223416,-0.840000,-1.960000,-1.120000
143.473325,0.053192,-0.064416,0.654896,-4.620000,-4.340000,-1.400000
143.477391,-0.252296,0.025864,0.747616,5.320000,9.100000,-2.100000
143.481457,0.246928,-0.317200,1.595760,0.140000,-5.880000,-0.420000
143.485523,0.002440,0.078568,0.610488,-4.480000,0.980000,0.000000
143.489589,-0.208376,0.126392,0.521184,7.560000,7.980000,-3.080000
143.493655,0.041968,-0.365512,1.250256,0.700000,-11.760000,-0.420000
143.497721,-0.053680,0.123952,0.760792,-2.240000,2.240000,0.000000
143.501787,0.210328,0.115656,0.855464,-2.380000,-0.280000,-1.820000
143.505854,-0.104432,-0.223992,1.060912,-3.080000,-6.720000,-1.820000
143.509920,-0.321104,0.093208,0.875960,3.220000,9.800000,-2.240000
143.513986,0.289872,-0.123464,0.962824,-2.940000,-7.700000,0.280000
143.518052,0.001464,-0.071248,0.899872,-4.620000,-2.100000,-0.420000
143.522118,-0.228384,0.053680,0.968680,0.560000,7.840000,-2.800000
143.526184,0.108824,-0.164456,0.781776,-3.360000,-8.260000,-1.260000
143.530250,-0.049776,0.042456,0.656360,-3.360000,2.660000,-0.700000
143.534316,0.113704,-0.061976,1.291736,-1.960000,2.240000,-3.080000
143.538382,-0.040992,-0.077104,0.984784,-5.320000,-5.320000,-2.800000
143.542448,-0.238632,0.154696,0.593408,0.420000,9.380000,-2.660000
143.546514,0.169824,-0.210328,1.148264,-0.560000,-5.880000,-1.960000
143.550580,-0.028304,-0.147376,1.127768,-7.980000,-4.340000,-1.820000
143.554646,-0.203984,0.228872,0.857416,-0.140000,6.720000,-3.640000
143.558712,0.126880,-0.198128,0.767136,-4.200000,-4.200000,-2.380000
143.562778,-0.138592,-0.206912,0.735904,-3.640000,-0.840000,0.280000
143.566845,-0.024400,0.105896,1.208776,-1.960000,2.940000,-0.700000
143.570911,0.178120,0.040992,1.039440,-5.460000,-7.560000,-1.120000
143.574977,-0.168360,-0.101992,0.599264,0.140000,4.760000,-1.680000
143.579043,-0.071736,-0.107360,1.100928,0.000000,1.400000,-0.560000
143.583109,0.155184,-0.038552,1.088728,-4.760000,-2.940000,0.000000
143.587175,-0.149816,0.038064,1.007232,3.640000,5.180000,-0.980000
143.591241,0.040504,0.015616,1.013576,2.100000,4.760000,-0.980000
143.595307,-0.087352,-0.098088,0.811056,-4.480000,-3.220000,0.980000
143.599373,-0.122000,-0.117120,1.159976,1.120000,-0.280000,0.420000
143.603439,0.159088,0.135664,1.213168,0.000000,1.540000,-1.120000
143.607505,-0.070272,-0.106872,1.220488,0.000000,-3.080000,-2.940000
143.611571,-0.125904,-0.115656,0.753960,-0.700000,-1.400000,0.420000
143.615637,0.018056,0.023912,0.860344,0.140000,1.540000,1.540000
143.619703,-0.034648,-0.020008,1.561112,0.000000,3.080000,0.000000
143.623769,-0.015616,-0.045872,0.894992,2.660000,-1.960000,-1.120000
143.627836,0.078080,-0.090768,1.180960,2.240000,-4.060000,-1.400000
143.631902,0.031720,0.014152,1.187304,-2.520000,0.000000,-1.540000
143.635968,-0.206424,-0.114680,0.761768,0.280000,-3.360000,0.140000
143.640034,0.100040,0.088816,0.915488,0.700000,6.440000,0.700000
143.644100,-0.142984,-0.005368,1.473272,-0.840000,8.680000,-1.680000
143.648166,0.042456,-0.107360,1.137528,1.960000,-10.640000,-2.380000
143.652232,0.010736,-0.311344,0.962824,-3.360000,-5.880000,-0.280000
143.656298,-0.066856,0.235704,1.092632,-3.640000,2.100000,-0.140000
143.660364,-0.135664,0.011224,1.344440,3.640000,2.940000,-1.540000
143.664430,-0.039528,-0.080520,0.812032,-1.680000,0.560000,0.560000
143.668496,-0.008296,-0.158112,1.222440,-1.540000,1.680000,-0.140000
143.672562,-0.030256,0.071248,1.271728,-1.260000,-3.080000,-1.680000
143.676628,-0.026840,-0.191784,1.116056,-0.840000,-8.960000,0.560000
143.680694,0.060512,0.135176,0.658800,-4.200000,5.040000,2.100000
143.684760,-0.107360,0.101016,1.426424,0.560000,5.320000,0.000000
143.688826,-0.065392,-0.084912,0.985272,3.080000,1.400000,-2.100000
143.692893,0.045872,-0.340136,0.862296,-3.220000,-7.700000,-0.560000
143.696959,0.037576,0.103944,1.347368,-2.520000,4.060000,-2.520000
143.701025,-0.168848,0.025376,1.227808,1.680000,-1.960000,-1.960000
143.705091,0.014640,-0.065392,0.970632,0.140000,-2.100000,0.000000
143.709157,-0.117608,0.054656,0.803248,-1.400000,5.320000,0.280000
143.713223,-0.037088,-0.066368,1.646024,3.220000,-1.680000,-3.220000
143.717289,-0.025864,-0.232776,0.868640,-2.380000,-8.680000,-1.400000
143.721355,0.013664,-0.097600,1.173152,-3.500000,-4.200000,0.560000
143.725421,-0.052216,0.273280,1.118984,0.560000,2.940000,0.000000
143.729487,-0.091256,-0.008784,1.152168,3.220000,0.980000,0.420000
143.733553,0.009760,-0.144936,0.572424,-3.080000,0.420000,2.100000
143.737619,-0.066856,-0.064416,1.428864,1.260000,-1.260000,-1.120000
143.741685,-0.029768,-0.128832,1.059936,0.280000,-1.960000,-1.960000
143.745751,0.083936,-0.158600,1.132160,-0.140000,-10.780000,-0.700000
143.749817,-0.009760,0.283040,1.094096,-3.640000,11.480000,-1.120000
143.753884,-0.224968,-0.031232,1.231712,4.760000,-0.560000,-2.660000
143.757950,-0.006832,-0.298656,0.743224,-1.820000,-3.920000,0.140000
143.762016,-0.119072,-0.127856,1.198040,-2.940000,-3.360000,0.980000
143.766082,-0.000976,0.078080,1.366400,0.280000,-1.960000,-0.560000
143.770148,0.030256,-0.072224,1.108736,-2.380000,-2.800000,-0.140000
143.774214,0.004880,0.144448,0.923784,-1.680000,4.620000,0.280000
143.778280,-0.189344,-0.072712,1.252696,0.140000,2.240000,-1.540000
143.782346,-0.046848,-0.220576,0.717848,0.700000,-10.360000,0.000000
143.786412,-0.092232,-0.116144,1.107760,-3.640000,-2.520000,1.120000
143.790478,0.133712,0.195200,1.300520,1.820000,-1.400000,-1.260000
143.794544,-0.085400,-0.094672,1.319064,1.260000,-0.140000,-1.820000
143.798610,0.037576,0.011712,0.676856,-1.120000,-0.140000,-0.560000
143.802676,-0.177144,-0.132248,1.159000,-0.140000,-0.560000,-0.840000
143.806742,-0.074176,-0.104920,0.877912,0.140000,-6.580000,0.420000
143.810808,-0.056608,-0.157136,1.079944,2.100000,-0.840000,1.960000
143.814875,0.128344,0.222528,1.429840,0.560000,2.660000,-0.420000
143.818941,-0.007808,-0.156648,1.250744,2.940000,-2.800000,-1.820000
143.823007,-0.105896,-0.015128,0.574864,-0.560000,3.920000,-1.260000
143.827073,-0.073688,-0.186904,1.284904,-1.260000,-0.420000,0.560000
143.831139,-0.072712,0.082472,0.762744,-0.560000,-0.840000,1.260000
143.835205,-0.099064,-0.067832,1.252208,0.000000,2.660000,1.260000
143.839271,0.198128,0.114192,1.225856,-0.980000,1.120000,-1.400000
143.843337,-0.093696,-0.223992,1.095560,-2.800000,-4.620000,-2.240000
143.847403,-0.032208,-0.058560,0.667584,-0.420000,-4.200000,-0.980000
143.851469,-0.081984,-0.017568,1.125328,-1.960000,1.540000,-0.140000
143.855535,-0.034160,-0.026352,1.217072,0.700000,-0.700000,0.000000
143.859601,0.006344,0.062464,0.956480,2.520000,0.280000,0.140000
143.863667,-0.008784,-0.123464,1.429840,-1.120000,1.680000,-1.120000
143.867733,0.060024,-0.016592,0.861320,-2.800000,-12.600000,-1.400000
143.871799,-0.148352,-0.196664,0.992104,-3.360000,-1.820000,0.280000
143.875866,-0.139080,0.062464,0.910608,-2.940000,4.340000,0.140000
143.879932,0.065880,0.055632,1.459120,0.140000,-13.860000,-0.840000
143.883998,-0.021960,-0.082472,1.179984,-4.340000,-9.660000,0.560000
143.888064,-0.005368,-0.048800,0.793488,-4.760000,-6.300000,1.400000
143.892130,-0.058560,-0.096624,1.167296,0.000000,-14.700000,0.560000
143.896196,-0.020984,-0.101992,0.920368,-2.100000,-13.300000,0.140000
143.900262,0.098576,-0.022936,1.028704,-4.480000,-0.140000,0.000000
143.904328,-0.094672,0.158112,1.515240,0.000000,-8.260000,-1.400000
143.908394,0.065880,-0.107360,0.908168,1.260000,-13.160000,-1.260000
143.912460,-0.166408,-0.266936,0.687592,-4.200000,-9.240000,1.400000
143.916526,-0.082472,0.057096,1.143872,-0.980000,-13.160000,2.240000
143.920592,0.119072,-0.085400,1.193648,0.980000,-15.400000,1.540000
143.924658,-0.021960,0.051240,1.155096,-2.660000,-3.920000,0.280000
143.928724,0.075640,0.100528,1.101416,-0.420000,-5.740000,-0.980000
143.932790,-0.169336,-0.254736,1.045296,-2.240000,-11.900000,-0.420000
143.936857,-0.139568,-0.094184,0.532896,-5.180000,-9.240000,2.240000
143.940923,0.063440,-0.030744,1.340536,-1.120000,-10.500000,2.380000
143.944989,0.010736,0.190808,1.443016,-0.980000,-9.800000,0.140000
143.949055,0.046360,-0.123952,0.813008,-2.240000,-10.500000,-0.420000
143.953121,-0.103456,-0.113704,0.995032,-4.200000,-10.360000,0.000000
143.957187,-0.029280,-0.000976,0.991128,-2.240000,-11.760000,0.420000
143.961253,-0.037088,-0.156160,1.014552,-2.100000,-6.160000,1.820000
143.965319,0.074664,0.193736,1.229760,-3.780000,1.960000,0.280000
143.969385,0.075640,-0.014152,1.333216,-0.980000,-5.180000,-1.120000
143.973451,-0.204472,-0.215208,0.680272,-0.560000,-7.000000,0.140000
143.977517,0.011224,-0.030744,0.716384,-3.920000,-8.540000,2.240000
143.981583,-0.028792,-0.038552,1.464488,-2.240000,-6.020000,0.840000
143.985649,0.018544,0.064904,1.020408,1.120000,-8.400000,-0.140000
143.989715,0.167384,-0.037576,1.015040,-2.940000,-2.100000,-0.560000
143.993781,-0.161528,-0.116144,1.178032,-5.600000,1.680000,-0.840000
143.997848,-0.127856,-0.062464,0.605608,-0.280000,-5.460000,0.840000
144.001914,0.051240,-0.127368,1.258064,-1.540000,5.180000,0.560000
144.005980,0.042944,0.127856,1.403000,-3.780000,0.280000,-1.260000
144.010046,-0.042944,-0.030744,0.911584,1.260000,-5.320000,-1.540000
144.014112,-0.141032,-0.166896,0.923296,-2.380000,-3.220000,-0.700000
144.018178,0.035624,-0.028304,1.054080,-3.360000,-4.340000,0.000000
144.022244,-0.078080,-0.095648,1.101904,-1.120000,-0.420000,0.700000
144.026310,0.014640,0.166408,1.128256,-0.140000,8.120000,-0.560000
144.030376,0.064904,0.005368,1.155584,-2.240000,4.200000,-1.680000
144.034442,-0.128344,-0.218624,0.880840,-0.980000,-5.180000,0.140000
144.038508,-0.090280,0.020496,0.629520,-1.820000,1.960000,1.540000
144.042574,0.077104,-0.032208,1.286368,-2.100000,0.700000,-0.280000
144.046640,0.073200,0.023912,1.357616,-1.960000,-2.380000,-1.120000
144.050706,-0.020008,0.083448,0.639768,-1.120000,8.400000,-1.960000
144.054772,-0.086864,-0.278648,1.197064,-0.560000,-0.420000,-2.660000
144.058839,-0.089304,-0.143960,0.931104,-5.040000,-3.080000,-0.840000
144.062905,-0.059048,0.103944,0.768112,0.420000,0.980000,0.980000
144.066971,-0.007320,0.026840,1.677744,-0.140000,0.700000,-0.280000
144.071037,0.108336,0.017568,0.920856,-3.780000,-3.920000,-1.400000
144.075103,-0.190808,-0.174216,0.681736,-2.520000,2.660000,-0.420000
144.079169,-0.142008,-0.041968,1.223904,0.560000,0.700000,-1.260000
144.083235,0.181048,-0.035624,1.094584,-1.540000,-5.600000,-0.560000
144.087301,-0.149328,0.110776,1.119960,-4.060000,7.000000,0.420000
144.091367,-0.021472,0.092232,0.983320,2.380000,1.960000,-0.280000
144.095433,-0.021960,-0.235216,0.875472,-1.260000,-6.720000,-1.120000
144.099499,-0.032208,-0.243512,0.972584,-2.800000,-6.160000,0.840000
144.103565,-0.010248,0.206912,1.003816,0.700000,6.020000,-0.700000
144.107631,0.042456,-0.078080,1.469368,-0.980000,-2.940000,-1.540000
144.111697,-0.060024,-0.016104,0.880840,-2.800000,4.200000,0.140000
144.115763,-0.204960,-0.012688,0.731512,1.120000,2.800000,0.420000
144.119830,-0.051728,-0.287920,1.369328,0.140000,-7.560000,-0.420000
144.123896,0.142496,0.026840,0.895968,-4.200000,-6.860000,1.540000
144.127962,-0.068320,0.178120,1.362496,-1.120000,7.840000,0.280000
144.132028,-0.073200,-0.028304,1.195112,2.660000,0.980000,-2.240000
144.136094,-0.039528,-0.156648,0.528016,-0.560000,-5.740000,-0.280000
144.140160,-0.075640,-0.127368,1.134112,-2.520000,3.360000,0.840000
144.144226,0.012688,0.105408,1.218536,1.120000,-3.920000,-0.420000
144.148292,0.104920,-0.059536,0.973560,-1.120000,-4.480000,0.700000
144.152358,-0.049288,0.089304,1.048224,-1.820000,6.160000,-0.560000
144.156424,-0.155184,-0.048312,0.861320,0.980000,0.840000,-3.080000
144.160490,-0.012688,-0.444080,1.154120,-1.260000,-12.320000,-0.560000
144.164556,-0.010248,0.165920,1.036512,-5.320000,2.520000,1.260000
144.168622,-0.028304,0.150792,1.415200,0.560000,0.280000,-0.280000
144.172688,-0.080032,-0.087840,0.924272,0.980000,-1.820000,-0.280000
144.176754,-0.044896,-0.076616,0.589992,-3.220000,-0.980000,0.420000
144.180821,-0.032696,-0.106384,1.419592,-0.280000,-5.040000,-1.400000
144.184887,0.045384,-0.029768,0.952088,-0.700000,-8.680000,-0.560000
144.188953,0.086376,0.091256,0.932568,-3.500000,5.600000,0.000000
144.193019,-0.141520,0.069784,1.349808,0.840000,4.060000,-1.540000
144.197085,-0.105896,-0.167872,0.625128,2.100000,-4.340000,-1.120000
144.201151,-0.029280,-0.327936,1.006256,-3.080000,-5.740000,0.840000
144.205217,0.042944,0.172264,1.439600,-2.940000,-2.800000,-0.140000
144.209283,-0.008296,0.100040,1.007232,-0.840000,-0.700000,-0.700000
144.213349,-0.154208,-0.018544,0.928664,1.540000,2.940000,-0.840000
144.217415,0.029768,-0.034648,0.928664,0.560000,0.560000,-2.520000
144.221481,-0.057584,-0.270840,1.154120,-0.420000,-9.520000,-0.840000
144.225547,-0.042456,-0.005856,0.904264,-1.120000,-2.520000,0.420000
144.229613,0.125416,0.205936,1.112640,-1.400000,2.100000,-0.280000
144.233679,-0.106384,-0.042456,1.226832,-1.260000,0.980000,-1.960000
144.237745,-0.112728,-0.117608,0.642208,-2.100000,2.240000,-1.120000
144.241812,-0.070272,-0.194224,1.269288,-1.120000,-3.080000,-1.820000
144.245878,0.008784,-0.082960,1.355176,-3.500000,-9.800000,-0.420000
144.249944,0.049776,0.282552,0.766648,-3.500000,3.360000,0.560000
144.254010,-0.203984,0.035136,1.157536,1.400000,9.800000,-1.120000
144.258076,0.045872,-0.228384,0.921344,-0.700000,-9.100000,-0.840000
144.262142,-0.023912,-0.158112,0.811056,-3.780000,-2.800000,0.280000
144.266208,-0.073688,0.043432,1.336632,-0.840000,-0.140000,-0.140000
144.270274,0.142496,0.126880,1.097024,-1.260000,-3.360000,-1.400000
144.274340,-0.120536,-0.101016,0.988200,-2.660000,4.620000,-0.700000
144.278406,-0.198616,0.026840,0.924760,0.280000,5.320000,-1.540000
144.282472,0.020008,-0.315736,1.175592,0.140000,-11.200000,-1.120000
144.286538,0.046360,-0.002440,1.146312,-4.620000,-2.800000,0.700000
144.290604,0.012688,0.371368,1.013576,-1.540000,10.640000,-0.700000
144.294670,-0.143960,-0.154696,1.169736,5.040000,0.980000,-2.800000
144.298736,-0.035624,-0.253760,0.606096,-0.980000,-3.220000,-1.680000
144.302803,0.000000,-0.004392,1.123864,-3.080000,-0.980000,0.420000
144.306869,-0.065392,-0.049776,1.416664,0.700000,-4.900000,-0.700000
144.310935,0.082472,0.123464,0.792512,-2.380000,3.780000,0.700000
144.315001,-0.137128,-0.044408,1.171688,-0.280000,8.680000,-0.280000
144.319067,-0.111264,-0.060512,1.165832,1.820000,-1.400000,-2.100000
144.323133,-0.014640,-0.301584,0.872056,-0.980000,-8.120000,-0.980000
144.327199,0.016104,0.070272,1.313208,-3.220000,0.000000,-0.280000
144.331265,0.005368,0.307928,1.146312,1.820000,3.920000,-1.820000
144.335331,-0.173240,-0.158600,0.846680,1.540000,1.820000,-0.980000
144.339397,0.008296,-0.092720,0.848144,-0.560000,0.840000,-1.400000
144.343463,0.004392,-0.111264,1.268312,-1.120000,-4.200000,-1.540000
144.347529,-0.036600,-0.090768,1.091168,1.120000,-6.440000,-0.560000
144.351595,0.089304,0.204472,0.833992,-2.520000,7.700000,0.420000
144.355661,-0.146888,-0.049776,1.317112,1.680000,1.260000,-1.400000
144.359727,-0.078080,-0.148352,0.832040,2.380000,-3.500000,-1.820000
144.363794,-0.029280,-0.223504,0.970632,-1.260000,-0.980000,-0.840000
144.367860,-0.008784,0.072712,1.487912,-3.080000,-2.800000,-1.120000
144.371926,0.012200,0.122488,0.851560,1.260000,-2.100000,0.140000
144.375992,-0.175680,0.033672,0.980392,-0.140000,9.100000,-0.140000
144.380058,0.027816,-0.107848,1.034560,1.960000,-2.660000,-1.960000
144.384124,-0.023424,-0.199592,1.049688,0.840000,-7.560000,-1.120000
144.388190,-0.044408,-0.013176,0.957456,0.000000,0.000000,0.140000
144.392256,0.099064,0.165432,1.246840,1.120000,3.220000,-0.840000
144.396322,-0.118096,-0.065392,1.106784,2.940000,0.560000,-0.560000
144.400388,-0.097600,-0.060024,0.599752,3.920000,5.460000,-1.120000
144.404454,-0.009272,-0.257176,1.345416,4.760000,-5.600000,-1.680000
144.408520,0.016592,-0.021472,1.246840,1.400000,-6.580000,-0.280000
144.412586,-0.016104,0.179096,0.809592,3.640000,6.020000,0.140000
144.416652,-0.147376,0.064904,1.332728,7.700000,6.720000,-1.680000
144.420718,-0.023912,-0.199592,0.761768,7.000000,-3.920000,-1.680000
144.424785,-0.028304,-0.182024,0.939400,6.440000,-2.380000,0.700000
144.428851,-0.039040,0.083448,1.183888,9.520000,1.540000,-0.280000
144.432917,0.133712,0.078568,1.115080,8.820000,-1.820000,-0.700000
144.436983,-0.074176,-0.127856,1.038464,8.260000,5.320000,-0.700000
144.441049,-0.217648,0.006832,0.881816,14.140000,9.800000,-2.100000
144.445115,-0.009760,-0.304512,1.351760,17.500000,-10.220000,-1.680000
144.449181,0.060024,-0.097600,1.100928,11.480000,-4.480000,1.260000
144.453247,-0.037576,0.408456,0.979416,14.700000,11.480000,0.000000
144.457313,-0.136152,-0.113704,1.167784,17.639999,0.980000,-2.100000
144.461379,0.031232,-0.165432,0.710528,8.680000,-3.780000,-1.260000
144.465445,-0.107848,-0.094672,1.052128,4.060000,1.820000,-1.540000
144.469511,-0.000488,0.013176,1.386896,8.960000,-6.300000,-2.100000
144.473577,0.041968,0.119072,0.742736,5.880000,3.080000,-0.280000
144.477643,-0.169336,0.035136,1.112152,8.400000,6.440000,0.560000
144.481709,-0.066368,-0.093696,1.027240,13.300000,-1.820000,-1.680000
144.485776,0.075640,-0.282552,0.839360,8.120000,-8.960000,0.980000
144.489842,-0.016592,0.056120,1.228296,8.540000,-1.540000,1.400000
144.493908,0.061488,0.283528,1.122400,10.780000,5.180000,-1.260000
144.497974,-0.099552,-0.268888,0.931592,10.080000,-0.140000,-0.840000
144.502040,-0.077104,0.006344,0.860832,6.720000,4.200000,0.000000
144.506106,-0.064416,-0.144448,1.246840,11.200000,-3.500000,-1.400000
144.510172,-0.032208,-0.144936,1.205360,5.460000,-7.140000,0.000000
144.514238,0.112240,0.223504,0.813008,4.900000,3.920000,1.540000
144.518304,-0.223016,0.048800,1.372744,11.480000,8.820000,-0.980000
144.522370,-0.059536,-0.211792,0.869128,12.740000,-5.740000,-1.120000
144.526436,0.061000,-0.094672,0.711992,6.580000,-1.400000,0.980000
144.530502,-0.059048,0.022448,1.510360,8.260000,-2.800000,0.280000
144.534568,0.011224,0.128344,0.817400,10.360000,2.240000,0.560000
144.538634,-0.076616,-0.048800,0.771528,9.660000,2.520000,1.680000
144.542700,-0.013176,-0.071736,1.373232,9.940000,4.200000,-0.840000
144.546767,-0.031720,-0.104432,0.848144,10.360000,-6.860000,-1.120000
144.550833,-0.040504,-0.156648,1.143872,6.580000,-0.560000,0.140000
144.554899,0.036600,0.165432,1.113128,6.860000,2.800000,0.840000
144.558965,-0.176168,0.099552,0.975024,10.780000,2.240000,-0.280000
144.563031,-0.109800,-0.279624,1.015040,11.620000,0.560000,0.280000
144.567097,0.106872,0.034160,1.149728,7.140000,-4.060000,-1.120000
144.571163,-0.066856,-0.050264,1.049688,5.740000,-5.600000,-0.280000
144.575229,-0.129808,0.074664,0.909144,8.120000,4.340000,0.980000
144.579295,0.086376,0.112728,0.896944,4.480000,4.480000,0.000000
144.583361,-0.090768,-0.173728,1.265384,5.040000,-1.960000,-1.260000
144.587427,-0.078568,-0.013176,0.863760,5.880000,0.840000,-0.980000
144.591493,0.186416,-0.108824,1.058960,-0.280000,-6.020000,-0.280000
144.595559,-0.189832,-0.118096,1.145336,-0.700000,-2.660000,0.280000
144.599625,-0.118584,0.227896,0.757376,7.000000,8.680000,-0.280000
144.603691,0.005368,-0.127368,1.243912,0.560000,1.540000,-1.680000
144.607758,0.019032,-0.125904,1.332728,-3.640000,-7.280000,-2.380000
144.611824,-0.045872,0.107848,0.574376,-5.880000,2.380000,-1.120000
144.615890,-0.170800,-0.171776,1.242448,-3.640000,-1.820000,0.000000
144.619956,0.017080,0.026840,0.914512,-2.380000,-2.800000,0.420000
144.624022,0.023424,0.128832,0.904264,-1.260000,7.560000,-0.560000
144.628088,-0.038064,-0.140056,1.505968,0.140000,-0.840000,-2.660000
144.632154,0.040992,-0.148840,0.741760,1.260000,-7.700000,-2.240000
144.636220,-0.096136,-0.020496,0.708576,-5.880000,4.760000,0.700000
144.640286,-0.177144,-0.065880,1.466928,1.960000,0.280000,-0.840000
144.644352,0.100528,0.045872,1.057496,0.840000,-4.060000,-0.700000
144.648418,-0.016592,-0.048312,1.041880,-3.780000,4.480000,-0.420000
144.652484,-0.144936,-0.060512,1.246352,-2.520000,-2.660000,-0.700000
144.656550,-0.065392,-0.032696,0.573888,0.280000,-6.580000,-0.140000
144.660616,0.014640,-0.126880,1.014064,-3.360000,5.180000,0.560000
144.664682,0.038552,0.218136,1.403488,-0.420000,3.080000,-1.540000
144.668749,-0.018056,-0.093208,0.808616,1.820000,-2.100000,-1.540000
144.672815,-0.099552,-0.219600,0.981856,-3.500000,2.240000,-0.700000
144.676881,0.004880,-0.029768,0.953064,-3.500000,-3.780000,0.140000
144.680947,-0.137616,-0.102480,1.089216,1.540000,-1.400000,0.000000
144.685013,0.025864,0.042944,1.252208,-0.280000,5.180000,-0.140000
144.689079,0.022448,0.156648,1.229272,-2.100000,0.700000,-1.260000
144.693145,-0.220576,-0.289384,0.930616,0.140000,-4.060000,-0.280000
144.697211,-0.035624,-0.062464,0.764208,-0.420000,-0.840000,0.000000
144.701277,-0.007320,0.005856,1.120936,-2.800000,-2.240000,0.280000
144.705343,0.018544,-0.016592,1.318088,-0.420000,-3.220000,0.840000
144.709409,-0.046848,0.156648,0.680272,-1.960000,6.860000,1.120000
144.713475,-0.098576,-0.224968,1.159976,0.840000,-1.260000,-0.980000
144.717541,-0.095648,-0.280600,1.104832,-0.980000,-10.360000,0.140000
144.721607,-0.038064,0.195200,0.878888,-2.940000,-1.820000,1.120000
144.725673,-0.028792,-0.054168,1.466440,0.280000,-0.140000,-0.840000
144.729740,-0.018544,0.042456,0.968192,0.560000,-3.220000,-0.560000
144.733806,-0.054168,0.095160,0.528504,-0.420000,5.740000,-0.420000
144.737872,-0.162016,-0.434320,1.448384,-0.560000,-5.040000,-1.820000
144.741938,0.044896,-0.023912,0.850096,-1.260000,-9.940000,0.420000
144.746004,0.051728,0.193736,1.036024,-3.780000,6.440000,1.260000
144.750070,-0.243512,-0.057584,1.529880,1.820000,1.680000,-0.980000
144.754136,-0.036112,-0.075640,0.523624,1.820000,-4.340000,-1.120000
144.758202,-0.004880,-0.198616,0.961848,-2.100000,-1.260000,0.000000
144.762268,-0.064416,-0.049776,1.538176,2.660000,-8.260000,0.140000
144.766334,0.007808,0.129320,0.655384,4.760000,0.560000,1.680000
144.770400,-0.116144,-0.091744,0.915000,6.860000,7.280000,1.540000
144.774466,-0.105408,-0.183488,1.681648,11.060000,-7.140000,-0.980000
144.778532,0.005856,0.043920,0.521672,8.120000,-5.460000,-0.560000
144.782598,-0.049288,-0.058560,0.980880,5.740000,0.700000,0.700000
144.786664,0.002440,-0.022936,1.295152,6.580000,-3.500000,0.700000
144.790731,-0.053680,0.191784,0.594384,10.500000,7.700000,0.420000
144.794797,-0.092232,-0.267424,1.285880,11.340000,1.400000,-0.840000
144.798863,-0.049288,-0.293288,1.416664,10.080000,-9.380000,-1.820000
144.802929,-0.016104,0.240096,0.548024,9.380000,-0.700000,0.700000
144.806995,-0.020008,0.055632,1.137528,12.740000,6.580000,0.140000
144.811061,-0.175680,-0.164456,1.308816,18.480000,-0.980000,-2.240000
144.815127,0.075152,-0.061976,0.626592,13.160000,-1.120000,-0.700000
144.819193,0.003416,-0.109800,1.342976,10.220000,-2.800000,-0.140000
144.823259,-0.266448,-0.101016,1.246352,13.300000,-4.200000,0.840000
144.827325,0.041480,0.204472,0.534848,16.379999,5.180000,0.420000
144.831391,0.033184,-0.061000,1.345904,12.040000,3.500000,-2.100000
144.835457,-0.126880,-0.096624,1.278072,14.560000,-1.960000,-2.100000
144.839523,-0.018056,0.028304,0.563152,14.420000,0.000000,-0.840000
144.843589,-0.030256,-0.224968,1.046272,9.100000,-3.080000,-0.420000
144.847655,-0.153720,-0.091256,1.228296,14.700000,0.420000,-0.700000
144.851722,-0.037088,0.305976,1.065792,16.100000,8.400000,-1.960000
144.855788,-0.024888,-0.166896,1.160464,13.580000,-1.680000,-2.520000
144.859854,-0.147864,-0.176656,1.005768,13.580000,-7.420000,-0.980000
144.863920,-0.070760,0.131272,0.748104,12.460000,1.680000,0.700000
144.867986,-0.044408,-0.155672,1.001376,13.860000,-3.080000,0.000000
144.872052,0.034648,0.002928,1.240496,15.120000,0.140000,-0.560000
144.876118,0.063928,0.237656,0.933544,12.040000,7.700000,-0.700000
144.880184,-0.229360,-0.293776,1.073112,14.840000,-3.360000,-1.680000
144.884250,-0.128344,-0.229848,0.870104,16.100000,-5.320000,-1.540000
144.888316,0.073200,0.193736,1.043832,10.640000,-2.240000,-0.140000
144.892382,-0.032208,-0.000488,1.377136,11.340000,-2.240000,0.140000
144.896448,-0.139080,0.086864,0.875472,15.400000,4.200000,-1.400000
144.900514,0.086864,-0.134688,0.757376,11.900000,-1.400000,-2.520000
144.904580,-0.149328,-0.280600,1.216584,11.900000,-8.260000,-1.260000
144.908646,-0.105408,0.170312,0.907192,9.520000,3.360000,-0.420000
144.912713,0.053192,-0.054656,1.084824,7.000000,-4.620000,-0.140000
144.916779,-0.135664,0.053680,1.084336,5.460000,-1.260000,1.120000
