Time [s],lsm6dsv16x_acc_x [g],lsm6dsv16x_acc_y [g],lsm6dsv16x_acc_z [g],lsm6dsv16x_gyro_x [dps],lsm6dsv16x_gyro_y [dps],lsm6dsv16x_gyro_z [dps]
5.100986,-0.005856,0.029280,1.016992,-0.420000,-0.560000,-0.280000
5.105052,-0.022448,0.034648,1.007232,-0.560000,-0.980000,-0.420000
5.109118,0.004880,0.033184,1.010648,-0.840000,-0.140000,-0.140000
5.113184,-0.002440,0.022448,1.013088,-0.420000,-0.560000,-0.560000
5.117251,-0.015128,0.023912,1.010160,-0.700000,-0.140000,-0.420000
5.121317,-0.007808,0.031232,0.978928,-0.420000,-0.420000,-0.420000
5.125383,-0.000976,0.022936,1.006256,-0.560000,-0.420000,-0.420000
5.129449,-0.014640,0.037576,1.019920,-0.700000,-0.420000,-0.420000
5.133516,0.000488,0.024400,0.989664,-0.420000,-0.700000,-0.280000
5.137582,-0.007320,0.026352,1.024312,-0.560000,-0.280000,-0.420000
5.141648,-0.005368,0.030744,1.003816,-0.280000,-0.280000,-0.280000
5.145714,-0.013664,0.034160,1.032608,-0.560000,-0.280000,-0.560000
5.149780,-0.017080,0.016592,0.992592,-0.700000,-0.420000,-0.420000
5.153847,-0.006344,0.028792,1.012600,-0.700000,-0.420000,-0.420000
5.157913,-0.002928,0.035624,1.006744,-0.420000,-0.700000,-0.560000
5.161979,-0.004392,0.024400,1.008696,-0.700000,-0.560000,-0.420000
5.166045,-0.001464,0.025864,1.008696,-0.700000,-0.280000,0.000000
5.170112,-0.010248,0.025864,1.007232,-0.840000,-0.140000,-0.420000
5.174178,-0.026840,0.031720,1.012112,-0.420000,-0.700000,-0.420000
5.178244,0.000976,0.030256,0.999912,-0.420000,-0.420000,-0.280000
5.182310,-0.016592,0.032696,1.004304,-0.420000,-0.700000,-0.560000
5.186377,-0.003416,0.029280,1.002840,-0.840000,-0.140000,-0.280000
5.190443,-0.001464,0.015128,1.002352,-0.560000,-0.560000,-0.280000
5.194509,0.007808,0.021960,1.006256,-1.120000,0.000000,-0.280000
5.198575,-0.020984,0.029280,1.007720,-0.420000,-0.280000,-0.420000
5.202642,0.008296,0.026840,1.001376,-0.420000,-0.700000,-0.420000
5.206708,-0.013176,0.032208,1.029192,-0.560000,-0.420000,-0.420000
5.210774,-0.009760,0.037576,0.993080,-0.700000,-0.280000,-0.280000
5.214840,-0.018056,0.033184,1.023824,-0.560000,-0.840000,-0.560000
5.218906,-0.002928,0.017080,0.997472,-0.700000,0.000000,-0.280000
5.222973,-0.013664,0.016104,1.015528,-0.560000,-0.560000,-0.560000
5.227039,-0.015128,0.038552,0.999912,-0.420000,-0.140000,-0.140000
5.231105,0.001464,0.030256,1.009184,-0.560000,-0.420000,-0.560000
5.235171,-0.012688,0.026352,1.013576,-0.420000,-0.420000,-0.280000
5.239238,-0.001952,0.026352,1.002352,-0.560000,-0.700000,-0.420000
5.243304,-0.017080,0.029280,1.031632,-0.840000,-0.420000,-0.280000
5.247370,0.000976,0.034648,0.990640,-0.280000,-0.560000,-0.560000
5.251436,-0.019520,0.020984,1.008696,-0.560000,-0.560000,-0.420000
5.255503,0.002928,0.029280,1.006744,-0.560000,-0.280000,-0.280000
5.259569,-0.020008,0.027328,0.996496,-0.700000,-0.700000,-0.560000
5.263635,0.000976,0.032696,1.019432,-0.700000,0.000000,-0.280000
5.267701,-0.006344,0.022448,1.000400,-0.700000,-0.700000,-0.280000
5.271768,-0.005368,0.045384,1.001376,-0.420000,-0.140000,-0.420000
5.275834,-0.003904,0.009760,1.006256,-0.420000,-0.140000,-0.560000
5.279900,-0.015616,0.027816,1.021872,-0.700000,-0.420000,-0.420000
5.283966,0.000976,0.028304,0.997472,-0.560000,-0.420000,-0.560000
5.288033,-0.022448,0.034648,1.012112,-0.840000,-0.280000,-0.280000
5.292099,-0.012200,0.017080,1.013576,-0.700000,-0.700000,-0.280000
5.296165,-0.003904,0.032696,1.016992,-0.280000,-0.560000,-0.560000
5.300231,-0.011224,0.017080,0.988200,-0.700000,-0.280000,-0.420000
5.304297,-0.003904,0.042944,1.018944,-0.840000,-0.560000,-0.140000
5.308364,-0.012688,0.024888,1.010648,-0.420000,0.000000,-0.560000
5.312430,-0.007808,0.030744,1.003328,-0.560000,-0.700000,-0.280000
5.316496,-0.000976,0.023424,0.985760,-0.560000,-0.420000,-0.560000
5.320562,0.001952,0.027328,1.026752,-0.560000,-0.420000,-0.280000
5.324629,-0.015128,0.033184,1.000888,-0.980000,-0.140000,-0.280000
5.328695,-0.002928,0.037088,1.019920,-0.560000,-0.700000,-0.420000
5.332761,-0.020008,0.018544,0.999912,-0.700000,0.280000,-0.560000
5.336827,-0.003904,0.028792,1.009672,-0.420000,-1.260000,-0.420000
5.340894,-0.026352,0.028304,0.996008,-0.700000,-0.420000,-0.420000
5.344960,0.012200,0.026352,1.009184,-0.560000,-0.280000,-0.140000
5.349026,-0.016104,0.023912,1.009184,-0.700000,-0.140000,-0.420000
5.353092,-0.005368,0.022936,1.020408,-0.560000,-0.140000,-0.560000
5.357159,-0.023912,0.036112,1.014552,-0.420000,-0.840000,-0.420000
5.361225,0.007808,0.032696,0.996008,-0.700000,-0.840000,-0.420000
5.365291,-0.014152,0.027816,1.013576,-0.420000,-0.280000,-0.280000
5.369357,-0.003904,0.030256,0.996984,-0.980000,-0.420000,-0.280000
5.373423,-0.003416,0.020984,1.013576,-0.840000,-0.140000,-0.420000
5.377490,-0.000488,0.026352,0.988200,-0.560000,0.140000,-0.280000
5.381556,-0.013664,0.028304,1.025776,-0.560000,-0.700000,-0.280000
5.385622,-0.003904,0.032696,0.992104,-0.560000,-0.420000,-0.560000
5.389688,-0.013664,0.026840,1.006256,-0.420000,-0.420000,-0.560000
5.393755,-0.013176,0.029280,1.016504,-0.840000,-0.560000,-0.140000
5.397821,-0.009272,0.025376,1.009184,-0.840000,-0.420000,-0.560000
5.401887,-0.003416,0.030744,1.013576,-0.420000,-0.280000,-0.140000
5.405953,-0.011224,0.028304,1.005768,-0.560000,-0.700000,-0.560000
5.410020,-0.004392,0.029768,1.015528,-0.420000,-0.280000,-0.280000
5.414086,-0.010736,0.034160,1.002352,-0.420000,-0.700000,-0.560000
5.418152,-0.011712,0.022936,1.008208,-0.840000,-0.280000,-0.280000
5.422218,0.005856,0.023912,1.012600,-0.560000,-0.280000,-0.280000
5.426285,-0.019032,0.020496,1.013576,-0.700000,-0.280000,-0.280000
5.430351,-0.003904,0.040016,0.996008,-0.560000,-0.560000,-0.560000
5.434417,-0.001952,0.020496,1.003816,-0.420000,-0.280000,-0.420000
5.438483,-0.000488,0.030256,1.013088,-0.420000,-0.840000,-0.420000
5.442549,-0.022936,0.023424,0.996008,-0.980000,0.280000,-0.420000
5.446616,-0.009272,0.027328,1.008696,-0.560000,-0.700000,-0.140000
5.450682,-0.023424,0.029768,1.014064,-0.700000,-0.560000,-0.420000
5.454748,0.007808,0.029280,0.997960,-0.280000,-0.560000,-0.420000
5.458814,-0.018056,0.021960,1.016016,-0.560000,-0.420000,-0.420000
5.462881,0.010736,0.038552,1.000888,-0.560000,-0.420000,-0.420000
5.466947,-0.020984,0.020496,1.019432,-0.980000,-0.140000,-0.420000
5.471013,-0.004392,0.028792,1.008696,-0.560000,-0.560000,-0.280000
5.475079,-0.003416,0.035136,1.009184,-0.420000,-0.560000,-0.560000
5.479146,-0.003416,0.022448,1.010160,-0.700000,-0.140000,-0.280000
5.483212,-0.014152,0.030744,0.998448,-0.420000,-0.700000,-0.280000
5.487278,-0.006344,0.029280,1.013576,-0.700000,-0.140000,-0.420000
5.491344,-0.014152,0.019520,0.988688,-0.560000,-0.420000,-0.560000
5.495411,-0.008296,0.036600,1.025288,-0.560000,-0.420000,-0.280000
5.499477,-0.005368,0.021960,1.005768,-0.420000,-0.560000,-0.280000
5.503543,-0.010248,0.035624,1.014552,-0.280000,-0.420000,-0.280000
5.507609,-0.004880,0.030256,0.995032,-0.560000,-0.140000,-0.280000
5.511676,-0.000488,0.023424,1.033096,-0.840000,0.000000,-0.560000
5.515742,-0.031232,0.024888,0.987224,-0.420000,-0.840000,-0.420000
5.519808,0.002928,0.037088,1.008208,-0.700000,-0.420000,-0.280000
5.523874,-0.005368,0.020984,0.997472,-0.700000,-0.700000,-0.280000
5.527940,0.001464,0.039528,1.018456,-0.420000,0.000000,-0.280000
5.532007,-0.011224,0.016104,0.996984,-0.420000,-0.560000,-0.560000
5.536073,-0.007320,0.029768,1.032120,-0.980000,-0.280000,-0.280000
5.540139,-0.018544,0.024400,0.996008,-0.420000,-0.560000,-0.560000
5.544205,-0.005856,0.031720,1.010648,-0.980000,-0.420000,-0.420000
5.548272,-0.002440,0.022448,0.999424,-0.140000,-0.700000,-0.280000
5.552338,0.000976,0.034160,1.013088,-0.980000,-0.700000,-0.280000
5.556404,-0.013176,0.017080,1.003816,-0.700000,-0.140000,-0.280000
5.560470,0.004880,0.030256,0.999424,-0.700000,-0.700000,-0.280000
5.564537,-0.025864,0.025864,1.015040,-0.560000,-0.280000,-0.560000
5.568603,-0.001952,0.034160,0.997960,-0.560000,-0.280000,-0.420000
5.572669,-0.016592,0.029768,1.029680,-0.280000,-0.840000,-0.700000
5.576735,-0.006344,0.028792,1.000888,-0.700000,-0.140000,-0.140000
5.580802,0.002440,0.035136,1.007720,-0.700000,-0.700000,-0.420000
5.584868,-0.016104,0.017568,1.002840,-0.560000,-0.280000,-0.280000
5.588934,-0.004392,0.025376,1.019432,-0.840000,-0.420000,-0.560000
5.593000,-0.008784,0.027816,0.987224,-0.280000,-0.560000,-0.280000
5.597066,-0.010248,0.044408,1.023824,-0.700000,-0.420000,-0.420000
5.601133,-0.007320,0.017080,0.999424,-0.700000,-0.280000,-0.140000
5.605199,-0.007320,0.034160,1.019920,-0.700000,-0.280000,-0.560000
5.609265,-0.006344,0.021960,0.992592,-0.560000,-0.280000,-0.280000
5.613331,-0.005856,0.032208,1.012600,-0.560000,-0.560000,-0.560000
5.617398,-0.004392,0.019032,1.007232,-0.280000,-0.840000,-0.420000
5.621464,-0.004392,0.031720,1.000888,-0.980000,-0.280000,-0.280000
5.625530,-0.021472,0.024888,1.012112,-0.700000,-0.420000,-0.280000
5.629596,-0.000488,0.027328,1.010160,-0.280000,-0.420000,-0.420000
5.633663,-0.018056,0.028792,1.005768,-0.840000,-0.700000,-0.280000
5.637729,0.001952,0.028304,1.000400,-0.420000,-0.420000,-0.280000
5.641795,-0.010736,0.035136,1.018456,-0.420000,-0.280000,-0.560000
5.645861,-0.007320,0.026840,0.998936,-0.980000,-0.280000,-0.280000
5.649928,-0.023912,0.020008,1.011136,-0.700000,-0.700000,-0.700000
5.653994,0.002440,0.033184,1.006256,-0.280000,-0.420000,-0.140000
5.658060,-0.011712,0.042944,1.008208,-0.700000,-0.280000,-0.560000
5.662126,-0.001952,0.019032,1.006256,-0.420000,-0.420000,-0.280000
5.666193,-0.008296,0.025864,1.012600,-0.560000,-0.420000,-0.560000
5.670259,-0.000488,0.029280,1.012600,-0.700000,-0.420000,-0.140000
5.674325,-0.020496,0.030256,1.006744,-0.420000,-0.420000,-0.420000
5.678391,-0.001464,0.027328,1.011136,-0.560000,-0.280000,-0.140000
5.682457,-0.005856,0.027816,1.000400,-0.560000,-0.560000,-0.420000
5.686524,-0.011224,0.037088,1.008696,-0.420000,0.140000,-0.420000
5.690590,-0.003416,0.020496,1.007720,-0.560000,-0.700000,-0.280000
5.694656,-0.009760,0.027816,1.012600,-0.700000,-0.280000,-0.560000
5.698722,-0.009760,0.018544,0.990640,-0.560000,-0.420000,-0.420000
5.702789,-0.010248,0.026840,1.022360,-0.840000,-0.280000,-0.280000
5.706855,-0.009272,0.027816,0.998936,-0.280000,-0.560000,-0.560000
5.710921,-0.013664,0.034648,1.002840,-0.700000,-0.420000,-0.280000
5.714987,0.004392,0.030256,1.011624,-0.700000,-0.420000,-0.140000
5.719054,-0.010248,0.024888,1.022360,-0.700000,-0.280000,-0.700000
5.723120,-0.017568,0.025376,0.998936,-0.420000,-0.280000,-0.280000
5.727186,0.002440,0.036112,1.004792,-0.840000,-0.840000,-0.420000
5.731252,-0.008784,0.027328,1.007720,-0.420000,-0.420000,-0.280000
5.735319,-0.003416,0.027328,1.004792,-0.840000,-0.560000,0.000000
5.739385,-0.005856,0.031720,1.011624,-0.840000,-0.420000,-0.560000
5.743451,-0.012688,0.016592,0.993568,-0.840000,0.000000,-0.280000
5.747517,-0.008296,0.032208,1.018944,-0.280000,-0.980000,-0.560000
5.751583,-0.013664,0.026840,1.011136,-0.700000,-0.280000,-0.420000
5.755650,-0.004392,0.026840,1.016992,-0.420000,-0.280000,-0.420000
5.759716,-0.008784,0.031232,0.998936,-0.700000,-0.560000,-0.140000
5.763782,-0.002928,0.037088,1.013088,-0.980000,0.000000,-0.700000
5.767848,-0.018056,0.011224,1.001864,-0.420000,-0.700000,0.000000
5.771915,0.003416,0.038064,1.009184,-0.560000,-0.560000,-0.700000
5.775981,-0.010736,0.016592,1.000400,-0.560000,-0.280000,-0.280000
5.780047,-0.004392,0.032696,1.004304,-0.560000,-0.560000,-0.280000
5.784113,-0.018056,0.030256,0.997472,-0.840000,-0.420000,-0.280000
5.788180,0.003904,0.024400,1.022360,-0.560000,-0.420000,-0.420000
5.792246,-0.018056,0.025376,1.003816,-0.700000,-0.280000,-0.140000
5.796312,0.005856,0.040016,1.012600,-0.420000,-0.980000,-0.700000
5.800378,-0.021472,0.012200,1.003328,-0.700000,0.280000,-0.420000
5.804445,0.004880,0.038064,1.006744,-0.560000,-0.840000,-0.140000
5.808511,-0.023424,0.026840,1.023824,-0.560000,-0.140000,-0.700000
5.812577,0.005368,0.024400,1.004792,-0.420000,-0.560000,-0.140000
5.816643,-0.017080,0.026840,1.000888,-0.840000,-0.280000,-0.560000
5.820710,0.006344,0.039528,1.014064,-0.560000,-0.280000,-0.140000
5.824776,-0.026352,0.020008,1.011136,-0.420000,-0.280000,-0.700000
5.828842,-0.005368,0.029280,1.014552,-0.560000,-0.840000,-0.280000
5.832908,-0.009760,0.021960,0.996984,-0.840000,0.000000,-0.560000
5.836974,-0.010248,0.036112,1.006744,-0.420000,-0.560000,-0.140000
5.841041,-0.021472,0.040016,1.002840,-0.560000,-0.700000,-0.420000
5.845107,0.014640,0.023424,1.011624,-0.700000,-0.280000,-0.140000
5.849173,-0.010248,0.018056,0.997960,-0.560000,-0.560000,-0.420000
5.853239,-0.013176,0.025864,1.006744,-0.840000,-0.280000,-0.280000
5.857306,-0.005856,0.022936,1.008696,-0.420000,-0.560000,-0.280000
5.861372,-0.013664,0.040992,1.006744,-0.560000,0.140000,-0.280000
5.865438,-0.005368,0.029768,1.010648,-0.280000,-0.700000,-0.560000
5.869504,-0.003416,0.022936,1.009672,-0.560000,-0.140000,-0.280000
5.873571,0.003416,0.025376,1.004304,-0.560000,-1.120000,-0.280000
5.877637,-0.016592,0.031720,1.011136,-0.980000,0.420000,-0.420000
5.881703,-0.007808,0.015616,1.002840,-0.140000,-1.260000,-0.280000
5.885769,-0.014152,0.026352,1.012600,-0.700000,0.140000,-0.840000
5.889836,0.002928,0.032696,1.001376,-0.280000,-0.980000,-0.280000
5.893902,-0.015128,0.042456,1.017480,-0.840000,0.000000,-0.280000
5.897968,-0.002440,0.020984,1.017968,-0.700000,-0.700000,-0.280000
5.902034,-0.010248,0.017080,1.002352,-0.700000,-0.140000,-0.560000
5.906100,-0.003904,0.033672,1.012600,-0.280000,-0.840000,-0.280000
5.910167,-0.011712,0.034160,1.003816,-0.840000,-0.140000,-0.420000
5.914233,-0.010736,0.037576,1.011136,-0.280000,-0.560000,-0.280000
5.918299,-0.010248,0.021960,0.993080,-0.700000,-0.420000,-0.280000
5.922365,-0.008296,0.030256,1.022848,-0.840000,-0.280000,-0.420000
5.926432,-0.012200,0.016592,1.003816,-0.420000,-0.980000,-0.420000
5.930498,-0.007320,0.033184,1.007720,-0.560000,-0.140000,-0.420000
5.934564,-0.004880,0.018544,0.994544,-0.420000,-0.420000,-0.280000
5.938630,-0.012200,0.048800,1.025776,-0.560000,0.000000,-0.420000
5.942697,-0.008784,0.013176,0.995032,-0.560000,-0.840000,-0.280000
5.946763,-0.006344,0.035136,1.026752,-1.120000,-0.140000,-0.280000
5.950829,-0.006832,0.019520,0.982344,-0.140000,-0.980000,-0.280000
5.954895,-0.000488,0.034160,1.012112,-0.840000,0.000000,-0.560000
5.958962,-0.003904,0.016104,1.014064,-0.420000,-0.420000,-0.140000
5.963028,-0.015128,0.034160,1.017480,-0.700000,-0.420000,-0.560000
5.967094,-0.012200,0.032208,0.994056,-0.280000,-0.420000,-0.420000
5.971160,0.002928,0.019032,1.007232,-0.420000,-0.700000,-0.560000
5.975227,-0.021960,0.026840,1.026264,-0.840000,-0.280000,-0.280000
5.979293,-0.000976,0.039528,0.997960,-0.420000,-0.560000,-0.420000
5.983359,-0.014152,0.023424,1.013088,-0.420000,-0.280000,-0.420000
5.987425,0.000488,0.028792,1.009184,-0.560000,-0.280000,-0.140000
5.991491,-0.019032,0.040504,1.005280,-0.840000,-0.140000,-0.560000
5.995558,-0.009272,0.029280,1.003328,-0.560000,-0.560000,0.000000
5.999624,-0.002928,0.019520,1.010648,-0.840000,-0.280000,-0.700000
6.003690,-0.000976,0.022936,1.016992,-0.560000,-0.840000,-0.280000
6.007756,-0.014152,0.031232,0.994544,-0.560000,-0.140000,-0.420000
6.011823,-0.000488,0.027328,1.013576,-0.700000,-0.560000,-0.140000
6.015889,-0.019520,0.027816,1.017968,-0.560000,-0.140000,-0.700000
6.019955,-0.009760,0.021472,0.991616,-0.700000,-0.700000,-0.140000
6.024021,-0.012688,0.040992,1.015040,-0.700000,-0.700000,-0.560000
6.028088,0.006832,0.023424,1.000888,-0.420000,-0.560000,-0.140000
6.032154,-0.014152,0.026840,1.013088,-0.840000,-0.280000,-0.280000
6.036220,-0.004392,0.020984,1.014064,-0.700000,-0.140000,-0.280000
6.040286,-0.012688,0.032696,1.012112,-0.280000,-0.560000,-0.700000
6.044353,-0.011712,0.032208,0.988688,-0.700000,-0.140000,-0.420000
6.048419,-0.005856,0.025864,1.015528,-0.420000,-1.120000,-0.560000
6.052485,-0.000488,0.031232,0.997472,-0.700000,0.140000,-0.280000
6.056551,0.001952,0.021472,1.013576,-0.560000,-0.560000,-0.420000
6.060617,-0.020496,0.023424,1.009184,-0.560000,-0.140000,-0.420000
6.064684,-0.000488,0.026840,1.007720,-0.280000,-0.840000,-0.280000
6.068750,-0.017080,0.040504,1.007720,-1.120000,0.000000,-0.420000
6.072816,-0.009272,0.037088,1.017480,-0.420000,-1.120000,-0.280000
6.076882,-0.016104,0.020008,1.008208,-0.700000,0.000000,-0.560000
6.080949,0.008296,0.020496,0.996984,-0.560000,-0.980000,-0.280000
6.085015,-0.013664,0.030744,1.020408,-0.980000,0.140000,-0.420000
6.089081,0.000000,0.028792,1.007720,-0.280000,-0.420000,-0.280000
6.093147,-0.024888,0.020984,1.018456,-0.700000,-0.420000,-0.420000
6.097214,-0.004392,0.040992,0.993080,-0.560000,-0.420000,-0.420000
6.101280,-0.008296,0.026352,1.002352,-1.120000,-0.700000,-0.140000
6.105346,0.002440,0.032208,1.021872,-0.560000,-0.420000,-0.420000
6.109412,-0.013176,0.015128,0.994056,-0.420000,-0.700000,-0.280000
6.113479,-0.001464,0.030744,1.013576,-0.840000,-0.140000,-0.420000
6.117545,-0.015616,0.027328,0.984296,-0.560000,-0.420000,-0.420000
6.121611,-0.009760,0.036112,1.034072,-0.420000,-0.140000,-0.420000
6.125677,-0.012200,0.018056,0.989176,-0.420000,-0.700000,-0.140000
6.129744,0.004880,0.041480,1.018456,-0.840000,-0.560000,-0.420000
6.133810,-0.011224,0.017080,1.002840,-0.700000,-0.140000,-0.280000
6.137876,-0.009760,0.029280,1.014552,-0.700000,-0.700000,-0.560000
6.141942,-0.007320,0.018544,0.998936,-0.280000,-0.420000,-0.560000
6.146008,-0.003416,0.028304,1.016016,-0.700000,-0.140000,-0.420000
6.150075,-0.014640,0.027816,1.003328,-0.560000,-0.700000,-0.280000
6.154141,-0.004392,0.039528,1.022848,-0.420000,0.000000,-0.280000
6.158207,-0.006832,0.023912,0.988688,-0.560000,-0.840000,-0.420000
6.162273,-0.015128,0.029768,1.024312,-0.840000,-0.140000,-0.420000
6.166340,-0.010736,0.023424,1.003816,-0.140000,-0.700000,-0.420000
6.170406,-0.006832,0.038552,1.007720,-0.700000,-0.280000,-0.280000
6.174472,-0.015616,0.030256,1.003328,-0.560000,-0.140000,-0.420000
6.178538,0.001952,0.024888,1.000400,-0.700000,-0.420000,-0.140000
6.182605,-0.011712,0.032696,1.019920,-0.560000,-0.700000,-0.560000
6.186671,0.002440,0.024400,0.996008,-0.700000,-0.420000,-0.140000
6.190737,-0.006832,0.028304,1.021872,-0.420000,-0.420000,-0.420000
6.194803,-0.007808,0.025864,0.992104,-0.560000,-0.140000,-0.420000
6.198870,-0.020984,0.025864,1.016992,-0.560000,-0.560000,-0.560000
6.202936,0.001952,0.034648,0.999424,-0.840000,0.000000,-0.140000
6.207002,-0.002440,0.023912,1.013088,-0.560000,-1.260000,-0.700000
6.211068,-0.008296,0.024888,1.001864,-0.700000,0.140000,-0.140000
6.215134,-0.006344,0.029280,1.020896,-0.420000,-0.980000,-0.560000
6.219201,-0.014152,0.020496,1.002352,-0.840000,0.420000,-0.280000
6.223267,-0.006344,0.030744,1.003328,-0.420000,-0.560000,-0.420000
6.227333,-0.028792,0.038552,1.007720,-0.560000,-0.700000,-0.420000
6.231399,0.009760,0.027816,1.005280,-0.420000,-0.700000,-0.420000
6.235466,-0.007808,0.023912,1.014552,-0.560000,-0.280000,-0.280000
6.239532,0.003416,0.025864,1.014064,-0.560000,-0.560000,-0.420000
6.243598,-0.024888,0.029768,1.003816,-0.420000,0.000000,-0.280000
6.247664,-0.001464,0.037088,0.996984,-0.420000,-0.280000,-0.140000
6.251731,-0.016104,0.024400,1.016016,-0.560000,-0.700000,-0.420000
6.255797,-0.004880,0.029768,0.995032,-0.700000,-0.140000,-0.420000
6.259863,-0.009272,0.023424,1.008696,-0.560000,-0.840000,-0.420000
6.263929,0.000976,0.032696,1.023336,-0.560000,0.000000,-0.420000
6.267996,-0.009272,0.011712,1.015528,-0.560000,-0.280000,-0.280000
6.272062,-0.001952,0.028792,1.003816,-0.420000,-0.280000,-0.560000
6.276128,-0.024888,0.030256,0.992104,-0.560000,-0.420000,-0.420000
6.280194,-0.005856,0.045872,1.028216,-0.560000,-0.280000,-0.280000
6.284260,-0.003416,0.016592,0.997960,-0.840000,-0.840000,-0.420000
6.288327,-0.007320,0.031232,0.997960,-0.840000,-0.140000,-0.140000
6.292393,-0.005368,0.018544,1.008208,-0.560000,-0.560000,-0.280000
6.296459,-0.007808,0.026352,1.017480,-0.840000,-0.560000,-0.420000
6.300525,-0.010248,0.026352,0.998936,-0.700000,0.280000,-0.560000
6.304592,-0.002440,0.040504,1.004792,-0.420000,-0.700000,-0.280000
6.308658,-0.010736,0.028792,1.016504,-0.560000,-0.280000,-0.560000
6.312724,-0.006832,0.024400,1.001864,-0.560000,-0.700000,-0.280000
6.316790,-0.006344,0.022448,1.006256,-0.700000,-0.280000,-0.420000
6.320857,0.002928,0.037576,1.019432,-0.700000,-0.140000,-0.560000
6.324923,-0.020008,0.011224,1.007720,-0.560000,-0.140000,-0.560000
6.328989,-0.007320,0.042944,1.009184,-0.840000,-0.840000,-0.140000
6.333055,-0.017568,0.028792,1.006256,-0.420000,-0.140000,-0.560000
6.337122,-0.004392,0.030256,1.014064,-0.420000,-0.980000,-0.280000
6.341188,-0.009760,0.021960,1.009184,-0.700000,-0.420000,-0.560000
6.345254,0.001952,0.022448,1.004792,-0.840000,-0.280000,-0.140000
6.349320,-0.019032,0.031720,0.994056,-0.420000,-0.280000,-0.420000
6.353387,-0.002440,0.033672,1.009672,-0.420000,-0.280000,-0.280000
6.357453,-0.022936,0.021472,1.004304,-0.280000,-0.560000,-0.420000
6.361519,0.004392,0.040504,1.012112,-0.840000,-0.280000,-0.280000
6.365585,-0.013176,0.025864,1.009672,-0.560000,-0.840000,-0.420000
6.369651,0.006832,0.022448,1.004304,-0.700000,0.140000,-0.280000
6.373718,-0.024400,0.026840,1.002352,-0.420000,-0.700000,-0.560000
6.377784,0.004392,0.030744,1.007720,-0.700000,0.420000,-0.420000
6.381850,-0.020008,0.023912,1.013088,-0.280000,-1.120000,-0.420000
6.385916,0.001464,0.040016,1.004304,-0.700000,-0.280000,-0.280000
6.389983,-0.009760,0.020008,1.008208,-0.700000,-0.560000,-0.420000
6.394049,-0.005368,0.033184,1.004304,-0.840000,-0.420000,-0.140000
6.398115,-0.001464,0.012688,1.028704,-0.420000,-0.280000,-0.560000
6.402181,-0.022936,0.022448,1.003816,-0.420000,-0.140000,-0.420000
6.406248,-0.004392,0.037088,0.999912,-0.560000,-0.560000,-0.140000
6.410314,-0.007320,0.034648,1.010160,-0.560000,-0.280000,-0.560000
6.414380,-0.006832,0.024888,1.006744,-0.700000,-0.700000,-0.420000
6.418446,-0.010248,0.026352,1.007232,-0.840000,-0.700000,-0.280000
6.422513,0.006832,0.030744,1.013088,-0.700000,0.140000,-0.420000
6.426579,-0.022448,0.031232,1.015040,-0.420000,-0.280000,-0.280000
6.430645,-0.014152,0.036112,0.997472,-0.420000,-0.280000,-0.420000
6.434711,-0.008296,0.021960,1.009184,-0.420000,-0.700000,-0.420000
6.438777,-0.006832,0.031232,0.998448,-1.120000,-0.420000,-0.420000
6.442844,-0.011224,0.026840,1.016504,-0.840000,-0.420000,-0.560000
6.446910,-0.000976,0.020008,1.006256,-0.420000,-0.140000,-0.140000
6.450976,-0.003416,0.025864,1.011624,-0.420000,-0.420000,-0.280000
6.455042,-0.011712,0.032208,1.005768,-0.420000,-0.280000,-0.420000
6.459109,-0.009760,0.028792,1.008696,-0.560000,-0.420000,-0.420000
6.463175,-0.012200,0.028304,1.000888,-0.840000,-0.840000,-0.280000
6.467241,-0.001952,0.033672,0.997960,-0.700000,0.280000,-0.420000
6.471307,-0.016104,0.019520,1.032608,-0.420000,-0.840000,-0.280000
6.475374,-0.004880,0.021960,0.997472,-0.560000,-0.280000,-0.420000
6.479440,-0.015128,0.036600,1.001864,-0.420000,-0.280000,-0.560000
6.483506,-0.002928,0.028792,1.003328,-0.700000,-0.560000,-0.140000
6.487572,0.001464,0.030256,1.012600,-0.700000,-0.560000,-0.420000
6.491639,-0.013176,0.028792,1.013088,-0.560000,0.000000,-0.420000
6.495705,-0.010248,0.020008,1.000400,-0.560000,-0.840000,-0.280000
6.499771,-0.005368,0.028792,1.013088,-0.560000,-0.420000,-0.280000
6.503837,0.002440,0.033184,1.011136,-0.700000,-0.280000,-0.420000
6.507904,-0.029768,0.029768,0.995520,-0.560000,-0.980000,-0.280000
6.511970,0.006344,0.027816,1.012112,-0.700000,-0.280000,-0.280000
6.516036,-0.012688,0.025376,1.011624,-0.560000,-0.560000,-0.560000
6.520102,-0.007320,0.033184,1.013088,-0.980000,-0.420000,-0.140000
6.524168,-0.009760,0.032208,1.011624,-0.280000,-0.420000,-0.560000
6.528235,0.007808,0.020496,1.011136,-0.700000,-0.280000,-0.280000
6.532301,-0.021960,0.028792,0.996984,-0.560000,-0.700000,-0.420000
6.536367,-0.003904,0.037088,1.016016,-0.700000,-0.140000,-0.420000
6.540433,-0.013664,0.026352,1.009184,-0.420000,-0.700000,-0.560000
6.544500,-0.001952,0.029280,0.982832,-0.840000,0.280000,-0.140000
6.548566,-0.014152,0.018544,1.025776,-0.140000,-0.980000,-0.560000
6.552632,-0.000488,0.020008,0.993080,-0.560000,-0.420000,-0.140000
6.556698,-0.013176,0.029768,1.006744,-0.840000,-0.140000,-0.560000
6.560765,-0.006832,0.027816,1.016016,-0.560000,-0.140000,-0.280000
6.564831,-0.002440,0.034160,1.006744,-0.560000,-0.840000,-0.560000
6.568897,-0.011224,0.032696,1.003328,-0.560000,-0.140000,-0.140000
6.572963,-0.015128,0.032208,1.006256,-0.280000,-0.980000,-0.280000
6.577030,-0.005368,0.025376,1.009672,-0.700000,-0.140000,-0.420000
6.581096,0.002440,0.012688,1.011624,-0.700000,-0.140000,-0.420000
6.585162,-0.018544,0.032208,1.005768,-0.700000,-0.560000,-0.140000
6.589228,0.003904,0.035624,1.016504,-0.280000,-0.280000,-0.420000
6.593294,-0.023912,0.027816,1.000400,-0.420000,-0.700000,-0.560000
6.597361,0.005856,0.035136,1.008208,-0.700000,-0.700000,-0.280000
6.601427,-0.012200,0.019520,1.016016,-0.840000,-0.140000,-0.280000
6.605493,0.001952,0.026352,1.001376,-0.840000,-0.140000,-0.420000
6.609559,-0.027816,0.029768,1.008208,-0.560000,-0.700000,-0.560000
6.613626,0.007808,0.032208,1.003816,-0.560000,-0.280000,-0.420000
6.617692,-0.019032,0.025864,1.016016,-0.700000,-0.840000,-0.560000
6.621758,-0.004392,0.034160,0.999912,-0.700000,-0.280000,-0.280000
6.625824,-0.010736,0.018056,1.011136,-0.700000,-0.700000,-0.280000
6.629891,-0.001952,0.039528,0.998936,-0.700000,0.000000,-0.140000
6.633957,-0.014152,0.015616,1.003328,-0.280000,-0.840000,-0.420000
6.638023,-0.009272,0.029768,1.016016,-0.840000,-0.280000,-0.420000
6.642089,-0.003416,0.022936,0.987224,-0.560000,-0.700000,-0.420000
6.646156,-0.005368,0.034648,1.021384,-0.560000,0.140000,-0.280000
6.650222,-0.015128,0.025376,1.019432,-0.280000,-0.840000,-0.420000
6.654288,0.000488,0.033672,1.021872,-0.560000,-0.420000,-0.140000
6.658354,-0.008296,0.019032,0.997472,-0.700000,0.000000,-0.420000
6.662421,-0.007808,0.035624,1.009672,-0.560000,-0.280000,-0.280000
6.666487,-0.011224,0.024400,0.995032,-0.280000,-0.560000,-0.560000
6.670553,-0.000488,0.030256,1.006256,-0.560000,-0.280000,-0.280000
6.674619,-0.013176,0.024888,1.002352,-0.840000,-0.560000,-0.420000
6.678685,-0.006344,0.029768,1.033584,-0.700000,-0.280000,-0.140000
6.682752,-0.010736,0.027816,0.992592,-0.420000,-0.700000,-0.420000
6.686818,-0.007808,0.038552,1.020408,-0.700000,-0.420000,-0.140000
6.690884,-0.005856,0.026352,0.986248,-0.140000,0.000000,-0.420000
6.694950,-0.013664,0.030256,1.023336,-0.560000,-0.560000,-0.560000
6.699017,-0.016104,0.021472,0.995520,-0.840000,-0.140000,-0.420000
6.703083,0.011224,0.030256,1.014064,-0.700000,-0.420000,-0.140000
6.707149,-0.005856,0.030744,1.006256,-0.280000,-0.280000,-0.560000
6.711215,-0.014640,0.020008,1.004792,-0.420000,-0.560000,-0.420000
6.715282,-0.000976,0.025376,1.005280,-0.560000,0.000000,-0.280000
6.719348,-0.020984,0.032696,1.006256,-0.840000,-0.280000,-0.420000
6.723414,-0.021472,0.026840,1.006256,-0.560000,-0.560000,-0.560000
6.727480,0.004880,0.020008,1.008696,-0.560000,-0.980000,-0.140000
6.731547,0.000488,0.023912,1.021872,-0.840000,-0.280000,-0.420000
6.735613,-0.009760,0.040016,0.995520,-0.420000,-0.420000,-0.280000
6.739679,-0.008296,0.023912,1.017480,-0.700000,0.140000,-0.700000
6.743745,-0.007808,0.017568,0.993568,-0.840000,-0.420000,-0.140000
6.747811,-0.011224,0.044896,1.026264,-0.700000,-0.280000,-0.420000
6.751878,-0.025376,0.032696,0.995520,-0.140000,-1.260000,-0.420000
6.755944,0.006344,0.025376,1.010648,-1.120000,-0.560000,-0.140000
6.760010,0.000976,0.022936,0.986736,-0.700000,-0.140000,-0.140000
6.764076,-0.014152,0.038552,1.036512,-0.700000,-0.560000,-0.420000
6.768143,-0.005856,0.019032,1.004304,-0.420000,0.000000,-0.280000
6.772209,-0.001464,0.026840,1.000400,-0.560000,-0.700000,-0.700000
6.776275,-0.019520,0.030256,1.007720,-0.980000,0.140000,-0.280000
6.780341,0.001464,0.038064,1.000888,-0.420000,-0.560000,-0.280000
6.784408,-0.014152,0.013664,1.021384,-0.560000,-0.140000,-0.420000
6.788474,0.009760,0.026840,0.996984,-0.560000,-0.560000,-0.280000
6.792540,-0.027328,0.026352,1.015040,-0.700000,-0.140000,-0.700000
6.796606,-0.002440,0.033184,1.007232,-0.140000,-0.840000,-0.280000
6.800673,-0.018056,0.018056,0.995032,-1.120000,-0.140000,-0.560000
6.804739,-0.008296,0.037088,1.020896,-0.560000,-0.420000,-0.140000
6.808805,-0.014152,0.028792,1.004792,-0.280000,-0.420000,-0.560000
6.812871,-0.002928,0.028304,1.004304,-0.840000,-0.420000,-0.140000
6.816937,-0.000488,0.016592,1.002840,-0.700000,-0.420000,-0.420000
6.821004,-0.003416,0.044408,1.018944,-0.840000,-0.420000,-0.140000
6.825070,-0.009272,0.023424,1.001376,-0.420000,-0.280000,-0.560000
6.829136,-0.009272,0.025864,1.015528,-0.280000,-0.840000,-0.140000
6.833202,-0.001952,0.030744,1.009672,-0.700000,-0.280000,-0.420000
6.837269,-0.022936,0.033672,1.019920,-0.840000,-0.140000,-0.280000
6.841335,-0.007320,0.032208,0.994056,-0.280000,-0.700000,-0.560000
6.845401,0.004392,0.018544,1.012600,-0.840000,0.000000,-0.420000
6.849467,-0.009272,0.029768,0.997960,-0.280000,-0.840000,-0.560000
6.853534,-0.009760,0.031232,1.007720,-0.700000,-0.140000,-0.280000
6.857600,-0.009272,0.017080,1.016016,-0.420000,-0.700000,-0.420000
6.861666,-0.008784,0.028304,1.016016,-0.700000,0.140000,-0.420000
6.865732,-0.011224,0.046360,0.994544,-0.420000,-0.700000,-0.280000
6.869799,-0.004880,0.019032,1.002840,-0.840000,-0.420000,-0.560000
6.873865,-0.018056,0.030256,1.016992,-0.560000,-0.840000,-0.280000
6.877931,-0.003904,0.022448,0.990640,-0.980000,0.000000,-0.420000
6.881997,-0.004880,0.037088,1.020896,-0.420000,-0.560000,-0.140000
6.886064,-0.004880,0.037088,0.994544,-0.420000,-0.280000,-0.420000
6.890130,-0.006344,0.015128,1.016992,-0.560000,-0.700000,-0.560000
6.894196,-0.005368,0.022936,1.001864,-0.980000,0.000000,-0.280000
6.898262,-0.011224,0.036600,1.005768,-0.700000,-0.560000,-0.560000
6.902328,-0.014640,0.023424,1.008208,-0.560000,0.140000,-0.420000
6.906395,-0.004880,0.025376,1.008696,-0.140000,-1.120000,-0.420000
6.910461,-0.006344,0.025376,1.011136,-0.700000,-0.280000,-0.560000
6.914527,-0.002440,0.028792,1.006744,-0.980000,-0.560000,-0.280000
6.918593,-0.014152,0.028792,1.016992,-0.840000,-0.840000,-0.280000
6.922660,0.003904,0.021472,1.016992,-0.840000,0.000000,-0.560000
6.926726,-0.022936,0.033184,0.996008,-0.140000,-0.840000,-0.280000
6.930792,-0.006832,0.037088,1.008208,-0.560000,-0.280000,-0.420000
6.934858,-0.017568,0.015128,1.010160,-0.420000,-0.700000,-0.420000
6.938925,0.005856,0.038064,0.986736,-0.840000,-0.280000,-0.280000
6.942991,-0.015616,0.027816,1.020896,-0.700000,-0.700000,-0.280000
6.947057,-0.005856,0.027816,1.016016,-0.700000,0.000000,-0.280000
6.951123,-0.021472,0.019520,1.007720,-0.280000,-0.700000,-0.560000
6.955190,0.008784,0.039528,1.000888,-0.840000,-0.420000,-0.280000
6.959256,-0.016592,0.020496,0.997472,-0.840000,-0.280000,-0.280000
6.963322,0.005856,0.046848,1.020408,-0.560000,-0.420000,-0.140000
6.967388,-0.021472,0.009760,0.990640,-0.560000,-0.420000,-0.700000
6.971454,0.008296,0.026352,1.023336,-0.560000,-0.140000,-0.140000
6.975521,-0.009272,0.025376,0.996984,-0.280000,-0.280000,-0.700000
6.979587,-0.004880,0.030744,1.018456,-0.980000,0.000000,-0.280000
6.983653,-0.018056,0.024888,1.008208,-0.280000,-0.700000,-0.560000
6.987719,-0.007320,0.034648,1.004792,-0.700000,-0.700000,-0.140000
6.991786,-0.001464,0.026352,1.005280,-0.980000,-0.140000,-0.560000
6.995852,-0.009760,0.024400,1.010160,-0.700000,-0.560000,0.000000
6.999918,-0.007320,0.033672,1.014552,-0.420000,-0.280000,-0.700000
7.003984,-0.004880,0.028304,1.002352,-0.420000,-0.420000,-0.420000
7.008051,-0.010248,0.027816,1.006256,-0.700000,-0.840000,-0.420000
7.012117,-0.012200,0.030744,1.022848,-0.980000,0.000000,-0.140000
7.016183,-0.012200,0.031720,0.993568,-0.420000,-0.420000,-0.560000
7.020249,-0.021960,0.032696,1.011624,-0.280000,-0.420000,-0.140000
7.024316,0.018056,0.016104,1.008208,-0.560000,-0.560000,-0.420000
7.028382,-0.021960,0.024888,1.013088,-0.560000,-0.700000,-0.420000
7.032448,0.000000,0.031720,0.987712,-0.560000,-0.420000,-0.140000
7.036514,-0.006832,0.026840,1.014552,-0.980000,-0.140000,-0.280000
7.040580,0.002928,0.031232,1.019432,0.000000,-0.280000,-0.280000
7.044647,-0.027816,0.022936,0.997472,-0.700000,-0.420000,-0.560000
7.048713,0.001952,0.032696,1.019432,-0.560000,-0.700000,-0.280000
7.052779,-0.008296,0.023912,0.997960,-0.700000,-0.140000,-0.700000
7.056845,-0.009272,0.024888,1.013088,-0.980000,-0.420000,-0.280000
7.060912,-0.014640,0.028792,1.007232,-0.700000,-0.420000,-0.560000
7.064978,-0.009272,0.030256,1.023336,-0.140000,-0.420000,-0.420000
7.069044,-0.011712,0.027328,0.992104,-0.840000,-0.420000,-0.420000
7.073110,0.004392,0.032696,1.021384,-0.840000,-0.840000,-0.280000
7.077177,-0.002928,0.024400,0.984296,-0.980000,-0.140000,-0.420000
7.081243,-0.009760,0.027328,1.011624,-0.700000,-0.280000,-0.140000
7.085309,-0.016592,0.020496,0.997472,-0.140000,-0.560000,-0.560000
7.089375,-0.010736,0.039040,1.017480,-0.700000,-0.280000,-0.280000
7.093442,0.001464,0.037088,0.992104,-0.700000,-0.420000,-0.560000
7.097508,-0.009760,0.028304,1.029192,-0.700000,-0.420000,-0.420000
7.101574,-0.004880,0.009272,0.989664,-0.420000,-0.420000,-0.280000
7.105640,-0.018056,0.030744,1.018944,-1.120000,-0.560000,-0.560000
7.109707,-0.006344,0.030256,1.003328,-0.280000,-0.280000,-0.420000
7.113773,-0.001952,0.034160,1.026264,-0.700000,-0.700000,-0.280000
7.117839,-0.008784,0.020984,1.012112,-0.420000,-0.420000,-0.420000
7.121905,-0.009272,0.039528,0.983320,-0.700000,-0.280000,-0.140000
7.125971,-0.005368,0.027328,1.023824,-0.700000,-0.420000,-0.280000
7.130038,0.002440,0.024888,1.006744,-0.700000,0.000000,-0.560000
7.134104,-0.027816,0.024888,1.006744,-0.280000,-0.420000,-0.420000
7.138170,0.005368,0.034648,0.995520,-0.560000,-0.560000,-0.280000
7.142236,-0.020984,0.027816,1.025776,-0.420000,-0.700000,-0.560000
7.146303,0.006344,0.025864,0.980880,-0.700000,-0.140000,0.000000
7.150369,-0.007808,0.023912,1.024312,-0.840000,-0.700000,-0.560000
7.154435,-0.002440,0.024400,0.988200,-0.700000,0.000000,-0.140000
7.158501,-0.026840,0.025864,1.017968,-0.280000,-0.700000,-0.560000
7.162568,-0.006832,0.033184,0.995520,-0.560000,-0.140000,-0.420000
7.166634,-0.012200,0.032696,1.014552,-0.280000,-0.560000,-0.700000
7.170700,-0.005368,0.027816,1.004304,-0.980000,0.000000,-0.140000
7.174766,-0.010248,0.026840,1.016016,-0.980000,-0.980000,-0.560000
7.178833,0.002928,0.022448,1.016504,-0.420000,-0.140000,-0.140000
7.182899,-0.005856,0.035136,1.010160,-0.420000,-0.840000,-0.700000
7.186965,-0.007320,0.023424,1.010648,-0.700000,-0.280000,-0.420000
7.191031,-0.012200,0.024888,1.008696,-0.560000,-0.560000,-0.420000
7.195097,-0.019520,0.032208,1.003816,-0.700000,-0.280000,-0.280000
7.199164,-0.011712,0.035624,1.000888,-0.560000,-0.420000,-0.420000
7.203230,-0.006832,0.020496,1.012112,-0.560000,-0.280000,-0.280000
7.207296,0.002928,0.033672,1.003328,-0.420000,-0.840000,-0.560000
7.211362,-0.008784,0.020984,1.001376,-0.700000,0.280000,-0.420000
7.215429,-0.005856,0.031232,1.001376,-0.420000,-0.560000,-0.140000
7.219495,-0.010248,0.031232,1.018944,-0.840000,-0.140000,-0.560000
7.223561,0.002440,0.024888,0.999424,-0.560000,-0.560000,-0.140000
7.227627,-0.014640,0.035624,1.012600,-0.560000,-0.560000,-0.420000
7.231694,-0.000488,0.028304,1.010648,-0.420000,-0.700000,-0.560000
7.235760,-0.017568,0.017568,0.997472,-0.840000,0.140000,-0.420000
7.239826,-0.003416,0.027328,1.015040,-0.140000,-0.420000,-0.420000
7.243892,-0.024400,0.026352,1.018944,-0.420000,-0.420000,-0.700000
7.247959,-0.002928,0.022936,1.006256,-0.700000,-0.420000,-0.280000
7.252025,-0.016592,0.033672,1.010648,-1.120000,-0.700000,-0.560000
7.256091,0.013176,0.040992,1.010160,-0.280000,-0.420000,-0.420000
7.260157,-0.018544,0.022936,1.003816,-0.700000,-0.280000,-0.420000
7.264223,0.003904,0.023912,1.006744,-0.280000,-0.840000,-0.280000
7.268290,-0.024400,0.018056,1.006744,-0.700000,-0.140000,-0.420000
7.272356,0.000976,0.040992,0.994056,-0.840000,-0.280000,-0.280000
7.276422,-0.020984,0.032696,1.003328,-0.420000,-0.560000,-0.420000
7.280488,-0.004880,0.025864,1.023336,-0.840000,-0.140000,-0.280000
7.284555,-0.011712,0.025376,0.998448,-0.420000,-0.840000,-0.560000
7.288621,0.003416,0.021472,1.018944,-0.560000,0.000000,-0.560000
7.292687,-0.002928,0.021472,1.006744,-0.560000,-0.420000,-0.280000
7.296753,-0.013176,0.041968,1.023824,-0.980000,0.000000,-0.280000
7.300820,-0.016104,0.029280,0.988688,-0.280000,-0.840000,-0.560000
7.304886,-0.004880,0.036600,1.019920,-0.700000,-0.280000,-0.140000
7.308952,-0.002440,0.021960,0.996984,-0.420000,-0.700000,-0.560000
7.313018,-0.007320,0.030744,1.017968,-0.980000,0.280000,-0.140000
7.317085,-0.013176,0.018544,0.990152,-0.280000,-0.560000,-0.420000
7.321151,-0.017568,0.018544,1.013088,-0.280000,-0.140000,-0.560000
7.325217,0.000000,0.025864,0.991128,-0.420000,-0.700000,-0.560000
7.329283,-0.014152,0.036600,1.016016,-0.980000,-0.420000,-0.140000
7.333350,-0.000976,0.036112,1.010160,-0.420000,-0.560000,-0.420000
7.337416,-0.007808,0.016592,1.009672,-0.560000,-0.560000,-0.280000
7.341482,-0.011224,0.017080,1.008696,-0.700000,-0.560000,-0.420000
7.345548,-0.000976,0.047824,0.999424,-0.840000,-0.140000,-0.280000
7.349614,-0.012200,0.039528,1.013576,-0.560000,-0.420000,-0.420000
7.353681,-0.016592,0.018544,1.005280,-0.560000,-0.560000,-0.280000
7.357747,0.003416,0.026352,1.019920,-0.560000,-0.420000,-0.700000
7.361813,-0.004880,0.027328,1.004792,-0.420000,-0.560000,-0.420000
7.365879,-0.009272,0.032696,1.014552,-0.560000,-0.140000,-0.560000
7.369946,-0.015128,0.022936,1.009184,-0.700000,-0.700000,-0.280000
7.374012,-0.008784,0.029280,0.997472,-0.700000,-0.280000,-0.420000
7.378078,-0.020008,0.023912,0.990640,-0.560000,-0.560000,-0.280000
7.382144,0.001952,0.025376,1.027728,-0.420000,-0.840000,-0.140000
7.386211,-0.008296,0.026840,0.996008,-0.700000,-0.840000,-0.280000
7.390277,-0.001952,0.037576,1.011624,-0.980000,0.000000,-0.280000
7.394343,-0.010736,0.021472,1.000400,-0.700000,-0.560000,-0.280000
7.398409,-0.003904,0.025376,1.015528,-0.420000,-0.140000,-0.420000
7.402476,-0.014640,0.035136,0.992592,-0.280000,-0.140000,-0.420000
7.406542,-0.006344,0.032696,1.017968,-0.840000,-0.980000,-0.280000
7.410608,-0.002440,0.026840,1.012112,-0.560000,-0.140000,-0.560000
7.414674,-0.000488,0.021472,1.008696,-0.700000,-0.560000,-0.280000
7.418740,-0.022936,0.025864,0.998936,-0.700000,-0.420000,-0.420000
7.422807,-0.004880,0.033184,1.017968,-0.280000,-0.420000,-0.280000
7.426873,-0.013664,0.023912,1.013088,-0.700000,-0.280000,-0.700000
7.430939,-0.014152,0.034160,1.001864,-0.560000,-0.840000,0.140000
7.435005,0.008296,0.036112,0.996984,-0.560000,0.000000,-0.560000
7.439072,-0.005856,0.019032,1.018944,-0.700000,-0.840000,-0.280000
7.443138,-0.012200,0.027328,1.003816,-0.560000,-0.420000,-0.420000
7.447204,0.004880,0.019520,1.021872,-0.420000,-0.280000,-0.420000
7.451270,-0.006832,0.029768,0.993080,-0.560000,0.000000,-0.280000
7.455337,-0.020984,0.035136,1.004304,-0.700000,-0.560000,-0.280000
7.459403,-0.011712,0.034160,1.014552,-0.420000,-0.700000,-0.420000
7.463469,-0.006344,0.026352,0.989176,-0.980000,-0.840000,-0.420000
7.467535,-0.000976,0.026352,1.027240,-0.560000,-0.420000,-0.420000
7.471602,-0.003416,0.018544,0.997472,-0.700000,0.140000,-0.420000
7.475668,-0.018544,0.030256,1.016992,-0.280000,-0.560000,-0.420000
7.479734,-0.003904,0.034160,0.993080,-0.700000,0.280000,-0.420000
7.483800,-0.010736,0.026352,1.026752,-0.840000,-1.120000,-0.420000
7.487867,-0.004392,0.034648,0.996496,-0.840000,-0.420000,-0.280000
7.491933,-0.004392,0.024888,1.003816,-0.420000,-0.560000,-0.420000
7.495999,-0.009760,0.022936,1.009672,-0.840000,0.000000,-0.280000
7.500065,-0.004392,0.018056,1.015528,-0.280000,-0.560000,-0.420000
7.504131,-0.017568,0.027816,1.003328,-0.560000,-0.280000,-0.560000
7.508198,-0.003904,0.037088,1.007720,-0.560000,-1.120000,-0.280000
7.512264,-0.002928,0.036600,1.007232,-0.560000,0.000000,-0.280000
7.516330,-0.016592,0.022936,1.016016,-0.700000,-0.280000,-0.420000
7.520396,-0.008296,0.020984,0.993080,-0.280000,-0.420000,-0.280000
7.524463,0.000000,0.033184,1.009184,-0.560000,-0.420000,-0.560000
7.528529,-0.006832,0.025376,1.011136,-0.700000,-0.280000,-0.280000
7.532595,-0.016592,0.038064,1.001376,-0.560000,-0.980000,-0.420000
7.536661,-0.005856,0.018544,1.016992,-0.700000,-0.140000,-0.420000
7.540728,0.000976,0.030744,1.010160,-0.560000,-0.560000,-0.420000
7.544794,-0.016104,0.018056,1.015040,-0.560000,-0.280000,-0.280000
7.548860,-0.002928,0.029768,1.002840,-0.560000,-0.420000,-0.420000
7.552926,-0.012200,0.031232,1.008208,-0.700000,-0.280000,-0.420000
7.556993,-0.012688,0.035624,1.003816,-0.700000,-0.280000,-0.420000
7.561059,-0.019520,0.030256,1.012600,-0.560000,-0.560000,-0.560000
7.565125,0.000000,0.028304,1.010648,-0.560000,-0.980000,-0.280000
7.569191,-0.008784,0.018056,0.996984,-0.840000,-0.140000,-0.280000
7.573257,-0.002928,0.030256,1.023824,-0.840000,-0.560000,-0.280000
7.577324,-0.019520,0.028304,1.014552,-0.420000,-0.280000,-0.560000
7.581390,0.001952,0.034648,0.975024,-0.700000,-0.560000,-0.280000
7.585456,-0.011712,0.024888,1.014552,-0.700000,-0.420000,-0.420000
7.589522,0.002928,0.024888,1.004792,-0.420000,-0.140000,-0.280000
7.593589,-0.015128,0.034160,1.009672,-0.420000,-0.420000,-0.560000
7.597655,0.004392,0.017568,0.996496,-0.840000,-0.560000,-0.280000
7.601721,-0.014640,0.024888,1.021384,-0.560000,-0.420000,-0.560000
7.605787,-0.009272,0.038064,1.010648,-0.560000,-0.140000,-0.280000
7.609854,-0.021960,0.032696,1.015528,-0.560000,-0.700000,-0.420000
7.613920,-0.002440,0.024400,1.005280,-0.280000,-0.140000,-0.420000
7.617986,-0.013176,0.032696,1.012600,-0.420000,-1.400000,-0.420000
7.622052,-0.005856,0.025864,1.006256,-0.840000,-0.140000,-0.280000
7.626119,0.001464,0.023912,1.011136,-0.560000,-0.700000,-0.280000
7.630185,0.000000,0.022448,0.989176,-0.700000,0.280000,-0.420000
7.634251,-0.020496,0.036112,1.011136,-0.280000,-0.840000,-0.280000
7.638317,-0.009272,0.040016,1.014552,-0.420000,0.000000,-0.280000
7.642383,-0.003416,0.035136,0.998448,-0.560000,-1.120000,-0.560000
7.646450,-0.001952,0.022448,1.006744,-0.840000,0.140000,-0.420000
7.650516,-0.007808,0.010248,1.003328,-0.560000,-0.560000,-0.280000
7.654582,-0.014152,0.025864,1.021872,-0.840000,-0.280000,-0.420000
7.658648,-0.006832,0.031720,0.990152,-0.280000,-0.280000,-0.560000
7.662715,-0.005368,0.031232,1.022360,-0.700000,-0.280000,-0.420000
7.666781,-0.008784,0.030256,0.994544,-0.560000,-0.700000,-0.420000
7.670847,-0.019520,0.031720,1.009672,-0.700000,-0.420000,-0.420000
7.674913,-0.002440,0.019520,1.007232,-0.560000,-0.560000,-0.280000
7.678980,-0.008784,0.025864,1.018944,-0.700000,-0.280000,-0.560000
7.683046,-0.008296,0.030744,1.012112,-0.280000,-0.280000,-0.280000
7.687112,-0.008296,0.037576,0.997472,-0.560000,-0.840000,-0.280000
7.691178,-0.001952,0.029280,1.014064,-0.840000,0.000000,-0.560000
7.695245,-0.014152,0.028304,1.002352,-0.560000,-0.560000,-0.140000
7.699311,-0.005368,0.028304,1.010160,-0.840000,-0.560000,-0.420000
7.703377,-0.008296,0.015128,1.010648,-0.560000,-0.420000,-0.280000
7.707443,-0.001952,0.027816,1.013088,-0.280000,-0.420000,-0.420000
7.711509,-0.021960,0.025864,0.996496,-0.560000,-0.420000,-0.420000
7.715576,0.005856,0.044408,1.014064,-0.700000,-0.140000,-0.280000
7.719642,-0.007320,0.016592,0.990640,-0.560000,-0.840000,-0.420000
7.723708,-0.004392,0.034160,1.023336,-0.840000,0.000000,-0.280000
7.727774,-0.010248,0.014152,0.999424,-0.420000,-0.700000,-0.280000
7.731841,-0.012688,0.042456,1.019432,-0.700000,-0.280000,-0.560000
7.735907,-0.008784,0.020984,0.994056,-0.560000,-0.280000,-0.560000
7.739973,-0.007808,0.028792,1.009672,-0.700000,-0.840000,-0.280000
7.744039,-0.011712,0.033672,0.999912,-0.560000,-0.280000,-0.560000
7.748106,-0.011224,0.036112,1.018456,-0.560000,-0.560000,-0.140000
7.752172,0.000488,0.014640,1.004304,-0.560000,-0.280000,-0.420000
7.756238,-0.003416,0.027328,1.014552,-0.420000,-0.560000,-0.420000
7.760304,-0.018544,0.022936,1.001864,-0.420000,-0.280000,-0.420000
7.764371,0.000488,0.034648,1.005280,-0.840000,-0.560000,-0.140000
7.768437,-0.011712,0.026840,1.016016,-0.700000,-0.140000,-0.560000
7.772503,-0.002440,0.040504,1.002840,-0.420000,-0.700000,-0.140000
7.776569,-0.018544,0.025376,1.011624,-0.560000,-0.420000,-0.560000
7.780635,0.003416,0.009760,1.010648,-0.700000,-0.280000,-0.280000
7.784702,-0.006832,0.034648,0.999424,-0.280000,-0.420000,-0.560000
7.788768,-0.016592,0.033672,1.007720,-0.700000,-0.140000,-0.280000
7.792834,-0.012688,0.027816,1.008696,-0.560000,-0.560000,-0.420000
7.796900,-0.011224,0.025376,1.012600,-0.700000,-0.700000,-0.280000
7.800967,-0.012688,0.033184,1.014064,-0.700000,-0.840000,-0.280000
7.805033,0.001464,0.037088,0.998936,-0.420000,-0.280000,-0.140000
7.809099,-0.004880,0.023912,1.004792,-0.560000,-0.280000,-0.420000
7.813165,-0.011224,0.006832,1.002352,-0.840000,0.280000,-0.420000
7.817232,-0.000488,0.039040,1.021872,-0.140000,-0.980000,-0.280000
7.821298,-0.020496,0.036600,0.996496,-0.700000,-0.140000,-0.560000
7.825364,0.003416,0.029280,1.017968,-0.560000,-0.840000,-0.280000
7.829430,-0.006344,0.017080,1.008208,-0.840000,-0.280000,-0.280000
7.833497,-0.002928,0.027328,1.017480,-0.700000,-0.280000,-0.420000
7.837563,-0.019032,0.022448,0.979416,-0.840000,-0.140000,-0.560000
7.841629,-0.005856,0.032696,1.023336,-0.280000,-0.700000,-0.420000
7.845695,-0.016104,0.029768,1.002352,-0.700000,-0.280000,-0.560000
7.849761,-0.006832,0.040016,1.020896,-0.420000,-0.700000,-0.280000
7.853828,-0.015616,0.023912,0.995520,-0.560000,-0.420000,-0.280000
7.857894,0.000976,0.024888,1.018456,-0.700000,-0.560000,-0.140000
7.861960,-0.014152,0.030744,1.002352,-0.700000,-0.280000,-0.420000
7.866026,0.003416,0.040992,1.002840,-0.420000,-0.560000,-0.140000
7.870093,-0.016592,0.021472,1.005280,-0.700000,-0.280000,-0.560000
7.874159,-0.002440,0.022936,1.005768,-0.420000,-0.560000,-0.420000
7.878225,-0.011712,0.020008,0.994544,-0.700000,-0.420000,-0.140000
7.882291,0.003416,0.038064,1.021384,-0.840000,-0.140000,-0.280000
7.886358,-0.023912,0.022936,1.011624,-0.140000,-0.420000,-0.420000
7.890424,0.006344,0.021472,0.996008,-0.840000,-0.140000,-0.560000
7.894490,-0.018544,0.026840,1.009672,-0.560000,-0.560000,-0.560000
7.898556,-0.001952,0.043432,1.012112,-0.420000,-0.420000,-0.280000
7.902622,-0.020984,0.020984,1.009184,-0.420000,-0.420000,-0.280000
7.906689,0.001464,0.015128,1.015528,-0.840000,-0.700000,-0.420000
7.910755,-0.009760,0.027328,1.016016,-0.420000,-0.140000,-0.280000
7.914821,-0.004392,0.041480,0.998936,-0.700000,-0.420000,-0.420000
7.918887,-0.018544,0.029280,1.012600,-0.420000,-0.700000,-0.280000
7.922954,0.007808,0.027816,0.987224,-0.560000,0.000000,-0.140000
7.927020,-0.026840,0.027328,1.010648,-0.560000,-0.560000,-0.560000
7.931086,-0.009272,0.032696,1.006256,-0.700000,-0.420000,-0.140000
7.935152,-0.000976,0.021472,1.004304,-0.840000,-0.560000,-0.420000
7.939219,0.005856,0.039040,1.013576,-0.560000,0.000000,-0.280000
7.943285,-0.018056,0.024888,1.001864,0.000000,-0.700000,-0.560000
7.947351,0.000976,0.019520,1.017480,-0.700000,0.000000,-0.280000
7.951417,-0.020496,0.025864,0.995520,-0.700000,-0.700000,-0.560000
7.955484,-0.003416,0.038552,1.011624,-0.980000,-0.280000,-0.140000
7.959550,-0.000976,0.025864,1.008696,-0.560000,-0.700000,-0.560000
7.963616,-0.002440,0.021960,1.013088,-0.560000,-0.140000,-0.140000
7.967682,-0.015616,0.033672,0.997472,-0.560000,-0.420000,-0.700000
7.971748,-0.014640,0.030256,1.017480,-0.700000,0.000000,-0.420000
7.975815,-0.005368,0.020984,1.001376,-0.420000,-0.980000,-0.560000
7.979881,-0.020496,0.028792,1.009672,-1.120000,0.140000,-0.280000
7.983947,-0.005368,0.029280,1.011624,-0.280000,-1.400000,-0.420000
7.988013,-0.005368,0.031232,1.011136,-0.560000,0.000000,-0.280000
7.992080,0.000976,0.023424,0.986736,-0.840000,-0.560000,-0.280000
7.996146,-0.023424,0.028792,1.022360,-0.560000,-0.280000,-0.420000
8.000212,0.004880,0.031720,0.994056,-0.420000,-0.560000,-0.420000
8.004278,-0.012200,0.021472,1.007232,-0.980000,-0.280000,-0.280000
8.008345,-0.006344,0.036600,1.013576,-0.140000,-0.560000,-0.280000
8.012411,-0.015128,0.032696,1.010160,-0.700000,-0.280000,-0.420000
8.016477,0.013176,0.017080,1.000888,-0.560000,0.000000,-0.280000
8.020543,-0.030744,0.020008,1.007720,-0.420000,-0.420000,-0.560000
8.024610,0.001464,0.033184,1.019432,-0.420000,-0.560000,-0.280000
8.028676,-0.019032,0.027328,0.997472,-0.700000,-0.700000,-0.560000
8.032742,0.004880,0.039528,1.024312,-0.560000,-0.560000,-0.280000
8.036808,-0.010736,0.018544,0.998448,-0.840000,-0.420000,-0.140000
8.040874,-0.004392,0.039528,1.018944,-0.420000,0.000000,-0.280000
8.044941,-0.017568,0.022936,0.992592,-0.560000,-0.840000,-0.280000
8.049007,0.007320,0.034648,1.018944,-0.840000,0.000000,-0.420000
8.053073,-0.014640,0.019520,0.999912,-0.560000,-0.840000,-0.560000
8.057139,-0.012200,0.037576,1.006744,-0.700000,-0.140000,-0.280000
8.061206,-0.004392,0.016104,0.992592,-0.560000,-0.840000,-0.280000
8.065272,-0.012200,0.035136,1.026264,-0.840000,0.420000,-0.280000
8.069338,-0.013664,0.021472,0.991616,-0.280000,-0.840000,-0.560000
8.073404,-0.003904,0.029768,1.018456,-1.120000,-0.280000,-0.280000
8.077471,-0.004880,0.012200,0.984296,-0.560000,-0.700000,-0.560000
8.081537,-0.007320,0.038064,1.022360,-0.840000,-0.420000,-0.280000
8.085603,-0.010736,0.023912,1.003328,-0.140000,-0.560000,-0.420000
8.089669,-0.000488,0.035624,1.019432,-0.700000,-0.280000,-0.140000
8.093736,-0.015616,0.023912,1.004792,-0.560000,-0.280000,-0.280000
8.097802,-0.011224,0.037088,1.017480,-0.700000,-0.700000,-0.280000
8.101868,-0.006832,0.026840,1.008208,-0.420000,-0.280000,-0.560000
8.105934,0.006344,0.022448,0.987712,-0.420000,-0.980000,-0.140000
8.110000,-0.023912,0.028304,1.013088,-0.560000,0.000000,-0.560000
8.114067,-0.004392,0.016592,1.012112,-0.560000,-0.700000,-0.140000
8.118133,-0.003904,0.035136,1.015040,-0.560000,-0.140000,-0.420000
8.122199,0.000000,0.038064,0.995032,-0.700000,-0.560000,-0.140000
8.126265,-0.020496,0.024888,1.018456,-0.420000,-0.700000,-0.700000
8.130332,-0.005368,0.024888,0.995032,-0.560000,-0.420000,-0.280000
8.134398,-0.011712,0.035136,1.015528,-0.700000,-0.140000,-0.560000
8.138464,-0.006832,0.026352,0.995520,-0.420000,-0.560000,-0.140000
8.142530,-0.003416,0.034160,1.015040,-0.280000,-0.560000,-0.420000
8.146597,0.003904,0.015616,1.002840,-0.980000,-0.140000,-0.420000
8.150663,-0.013176,0.035136,1.021384,-0.700000,-0.700000,-0.280000
8.154729,-0.010248,0.024888,0.992592,-0.560000,0.140000,-0.560000
8.158795,-0.013664,0.022448,1.020408,-0.560000,-0.840000,-0.420000
8.162862,-0.016104,0.034648,1.005280,-0.420000,-0.280000,-0.280000
8.166928,0.001464,0.038064,1.019432,-0.420000,-0.980000,-0.280000
8.170994,-0.017080,0.015128,0.996008,-0.980000,-0.140000,-0.560000
8.175060,0.002440,0.026840,1.004792,-0.560000,-0.700000,-0.140000
8.179126,-0.009272,0.020984,1.006256,-0.560000,0.000000,-0.560000
8.183193,-0.007808,0.040504,1.012600,-0.560000,-0.840000,-0.140000
8.187259,-0.016104,0.019520,0.995032,-0.560000,-0.560000,-0.420000
8.191325,0.005856,0.040504,1.016016,-0.700000,-0.420000,-0.140000
8.195391,-0.015616,0.038064,0.998936,-0.840000,-0.420000,-0.420000
8.199458,-0.002440,0.016592,1.021872,-0.840000,-0.420000,-0.140000
8.203524,-0.017080,0.011712,1.004792,-0.420000,-0.140000,-0.560000
8.207590,-0.005856,0.036600,1.014552,-0.280000,-0.700000,-0.280000
8.211656,-0.005856,0.035136,0.997960,-0.420000,-0.420000,-0.560000
8.215723,0.002928,0.025376,1.025288,-0.980000,-0.280000,-0.280000
8.219789,-0.022448,0.031232,0.997472,-0.560000,-0.280000,-0.280000
8.223855,-0.010248,0.035136,0.996984,-0.420000,-0.420000,-0.420000
8.227921,-0.015616,0.016104,1.018456,-0.560000,-0.700000,-0.420000
8.231988,0.003416,0.027816,1.006256,-0.560000,-0.560000,-0.280000
8.236054,-0.017080,0.030256,0.994544,-0.560000,-0.420000,-0.560000
8.240120,-0.000488,0.030744,1.013576,-0.560000,0.000000,-0.140000
8.244186,-0.010736,0.020008,1.007720,-0.280000,-0.700000,-0.420000
8.248252,-0.013176,0.037088,1.010648,-0.980000,-0.140000,-0.420000
8.252319,0.003904,0.019520,1.001376,-0.560000,-0.700000,-0.280000
8.256385,-0.002440,0.021960,0.997960,-0.560000,-0.280000,-0.420000
8.260451,-0.013664,0.032208,1.012600,-0.700000,-0.280000,-0.420000
8.264517,-0.008784,0.031720,0.998936,-0.700000,-0.420000,-0.280000
8.268584,0.000000,0.031720,1.016016,-0.700000,-0.280000,-0.420000
8.272650,-0.020496,0.022448,1.028704,-0.840000,-0.420000,-0.140000
8.276716,-0.012200,0.027816,0.996984,-0.420000,-1.120000,-0.700000
8.280782,0.000000,0.026840,1.017968,-0.980000,0.140000,-0.420000
8.284849,-0.010248,0.029768,0.996496,-0.140000,-0.700000,-0.700000
8.288915,-0.012688,0.029768,1.011624,-0.700000,-0.280000,-0.280000
8.292981,-0.006832,0.027328,1.010648,-0.840000,-0.560000,-0.420000
8.297047,-0.014152,0.023912,0.996496,-0.840000,-0.420000,0.000000
8.301114,-0.001464,0.040992,1.012600,-0.280000,-0.840000,-0.560000
8.305180,-0.004392,0.011712,1.008696,-0.840000,-0.280000,-0.140000
8.309246,-0.005368,0.039040,1.013576,-0.560000,-0.560000,-0.560000
8.313312,-0.014640,0.025376,0.980392,-0.420000,0.000000,-0.140000
8.317378,-0.003904,0.030256,1.022848,-0.980000,-0.280000,-0.420000
8.321445,-0.015128,0.032208,0.996008,-0.560000,0.000000,-0.280000
8.325511,-0.001464,0.030744,1.012600,-0.420000,-0.840000,-0.560000
8.329577,-0.011224,0.020984,1.007232,-0.560000,0.000000,-0.280000
8.333643,0.009760,0.024888,1.017480,-0.420000,-0.980000,-0.560000
8.337710,-0.030744,0.020008,0.999912,-0.840000,0.420000,-0.420000
8.341776,0.001464,0.037088,1.022848,-0.280000,-0.980000,-0.420000
8.345842,-0.025864,0.027328,1.013576,-0.420000,-0.140000,-0.560000
8.349908,0.009272,0.028304,1.001864,-0.700000,-0.840000,-0.140000
8.353975,-0.029280,0.031720,1.000888,-0.700000,-0.420000,-0.420000
8.358041,0.018056,0.032696,1.009672,-0.420000,-0.420000,-0.140000
8.362107,-0.024888,0.013176,0.991616,-0.700000,-0.420000,-0.560000
8.366173,0.004392,0.033184,1.033096,-0.560000,-0.140000,-0.140000
8.370240,-0.023424,0.033184,0.988688,-0.560000,-0.560000,-0.420000
8.374306,0.002440,0.047336,1.007720,-0.700000,-0.140000,-0.140000
8.378372,-0.013176,0.013176,1.001376,-0.560000,-0.560000,-0.420000
8.382438,0.004392,0.028792,1.024800,-0.700000,-0.140000,-0.280000
8.386504,-0.020496,0.024400,0.998936,-0.280000,-0.980000,-0.560000
8.390571,0.005368,0.023912,1.002352,-0.840000,-0.140000,-0.280000
8.394637,-0.019032,0.023424,1.011624,-0.420000,-0.980000,-0.560000
8.398703,-0.003904,0.045384,1.008208,-0.840000,-0.140000,-0.280000
8.402769,-0.009272,0.020984,1.006256,-0.560000,-0.560000,-0.560000
8.406836,-0.005856,0.033184,1.002840,-0.700000,0.000000,-0.140000
8.410902,-0.006344,0.024400,1.018944,-0.140000,-1.120000,-0.700000
8.414968,-0.013664,0.022936,0.994544,-0.980000,0.140000,-0.280000
8.419034,-0.006832,0.031720,1.006744,-0.420000,-0.980000,-0.420000
8.423101,-0.004880,0.030256,1.028704,-0.560000,-0.140000,-0.280000
8.427167,-0.010248,0.017568,0.983808,-0.420000,-0.840000,-0.420000
8.431233,-0.002928,0.032696,1.016504,-0.560000,-0.560000,-0.280000
8.435299,-0.005856,0.023912,1.011624,-0.560000,-0.560000,-0.420000
8.439366,-0.013176,0.032208,1.016504,-0.980000,-0.140000,-0.420000
8.443432,-0.008296,0.029280,1.003328,-0.280000,-0.560000,-0.560000
8.447498,-0.008296,0.033672,0.998448,-0.560000,-0.140000,-0.280000
8.451564,-0.006344,0.033184,1.012600,-0.420000,-0.420000,-0.420000
8.455630,-0.018056,0.025376,1.013576,-0.700000,-0.560000,-0.420000
8.459697,0.002928,0.024400,1.006744,-0.700000,-0.420000,-0.420000
8.463763,-0.017080,0.026840,1.009184,-0.560000,-0.700000,-0.560000
8.467829,0.000488,0.037088,1.006744,-0.420000,-0.280000,-0.420000
8.471895,-0.011712,0.015128,1.004304,-0.700000,-0.420000,0.000000
8.475962,-0.010736,0.032696,1.003816,-0.280000,-0.420000,-0.420000
8.480028,-0.009760,0.027816,0.997960,-0.840000,-0.560000,-0.280000
8.484094,-0.000488,0.035136,1.015528,-0.980000,-0.280000,-0.140000
8.488160,-0.008296,0.025376,0.996496,-0.420000,-0.840000,-0.700000
8.492227,0.000488,0.027328,1.014064,-0.420000,0.000000,-0.140000
8.496293,-0.012200,0.009760,0.993080,-0.840000,-0.420000,-0.420000
8.500359,-0.018544,0.041968,1.034072,-0.420000,-0.280000,-0.560000
8.504425,-0.008784,0.035624,0.984296,-0.700000,-0.140000,-0.280000
8.508492,-0.002928,0.024888,1.026264,-0.840000,-0.980000,-0.560000
8.512558,-0.002440,0.020008,0.995520,-0.560000,-0.140000,-0.280000
8.516624,-0.006344,0.035136,1.014552,-0.700000,-0.560000,-0.560000
8.520690,-0.013176,0.026840,1.002840,-0.420000,-0.140000,-0.420000
8.524756,0.000000,0.033672,1.023824,-0.560000,-0.280000,-0.280000
8.528823,-0.028792,0.025864,0.997960,-0.700000,-0.280000,-0.280000
8.532889,0.003416,0.032208,1.008696,-0.700000,-0.840000,-0.280000
8.536955,-0.013176,0.033672,1.005280,-0.280000,-0.140000,-0.280000
8.541021,0.000000,0.020008,1.009672,-0.700000,-0.980000,-0.420000
8.545088,-0.017080,0.015128,0.998448,-0.560000,0.140000,-0.560000
8.549154,0.007808,0.025864,1.005768,-0.840000,-0.420000,0.000000
8.553220,-0.019032,0.040504,1.021872,-0.420000,-0.280000,-0.560000
8.557286,-0.007320,0.032208,0.994056,-0.560000,-0.700000,-0.280000
8.561353,-0.006344,0.026352,1.016504,-0.840000,-0.420000,-0.420000
8.565419,0.002440,0.021472,1.001376,-0.420000,-0.420000,-0.420000
8.569485,-0.023912,0.036600,1.014552,-0.420000,-0.140000,-0.560000
8.573551,-0.005856,0.020496,1.000400,-0.560000,-0.560000,-0.140000
8.577618,-0.017568,0.022448,1.012600,-0.560000,-0.700000,-0.700000
8.581684,-0.001952,0.043432,0.988688,-0.700000,0.000000,-0.280000
8.585750,0.000976,0.021960,1.019432,-0.700000,-0.980000,-0.280000
8.589816,-0.003904,0.022936,1.003328,-0.560000,0.000000,-0.280000
8.593882,-0.010736,0.034648,1.013576,-0.700000,-0.700000,-0.420000
8.597949,-0.012200,0.024400,1.001376,-0.560000,-0.420000,-0.280000
8.602015,-0.004880,0.028792,1.018944,-0.560000,-0.420000,-0.420000
8.606081,-0.007320,0.028792,1.003816,-0.980000,-0.280000,-0.280000
8.610147,-0.011224,0.030744,1.007232,-0.560000,-1.120000,-0.280000
8.614214,-0.002928,0.027328,1.009184,-0.280000,0.140000,-0.420000
8.618280,-0.000488,0.022936,1.010648,-0.700000,-0.840000,-0.420000
8.622346,-0.024888,0.027328,1.009184,-0.840000,0.000000,-0.420000
8.626412,0.003416,0.028304,1.008696,-0.420000,-0.700000,-0.420000
8.630479,-0.015128,0.028792,1.016016,-0.980000,0.000000,-0.280000
8.634545,-0.004880,0.033184,0.996984,-0.420000,-0.420000,-0.280000
8.638611,-0.013664,0.030744,1.015528,-0.280000,-0.560000,-0.280000
8.642677,0.005856,0.026352,1.003328,-0.700000,-0.420000,-0.560000
8.646744,-0.020496,0.017080,1.005768,-0.700000,-0.140000,-0.420000
8.650810,-0.007808,0.034160,1.012600,-0.560000,-0.560000,-0.280000
8.654876,-0.013664,0.031720,0.996496,-0.560000,-0.420000,-0.420000
8.658942,-0.002928,0.026352,1.017968,-0.420000,-0.280000,-0.280000
8.663008,-0.005368,0.024888,0.991128,-0.560000,-0.840000,-0.140000
8.667075,-0.006832,0.036112,1.016016,-0.840000,-0.420000,-0.420000
8.671141,-0.004880,0.020984,0.992592,-0.420000,0.000000,-0.280000
8.675207,-0.009272,0.021960,1.027728,-0.560000,-0.840000,-0.560000
8.679273,-0.007320,0.027328,1.003328,-0.280000,-0.280000,-0.280000
8.683340,-0.015616,0.030256,0.998936,-0.700000,-0.560000,-0.420000
8.687406,-0.012688,0.034160,1.024312,-0.700000,-0.420000,-0.140000
8.691472,0.002440,0.032208,1.006744,-0.560000,-0.420000,-0.560000
8.695538,-0.009760,0.021960,0.999912,-0.560000,-0.840000,-0.560000
8.699605,0.000488,0.024400,1.002840,-0.840000,-0.280000,-0.280000
8.703671,-0.012200,0.014640,1.018456,-0.700000,-0.140000,-0.560000
8.707737,-0.014640,0.045384,1.006256,-0.140000,-0.420000,-0.420000
8.711803,-0.010736,0.039528,1.001864,-0.700000,-0.560000,-0.420000
8.715869,-0.006832,0.021960,1.015528,-0.840000,-0.560000,-0.280000
8.719936,-0.016592,0.033184,1.011136,-0.420000,-0.980000,-0.560000
8.724002,0.003904,0.018544,1.003816,-0.840000,0.000000,-0.280000
8.728068,-0.009760,0.020496,0.998936,-0.840000,0.000000,-0.280000
8.732134,-0.005368,0.037088,1.006744,-0.420000,-0.560000,-0.280000
8.736201,-0.011712,0.025864,1.006744,-0.420000,-0.560000,-0.560000
8.740267,-0.007808,0.030256,1.010160,-0.840000,-0.420000,-0.140000
8.744333,-0.011224,0.043920,1.015040,-0.560000,-0.700000,-0.560000
8.748399,0.008784,0.008296,0.995032,-1.120000,0.420000,-0.280000
8.752466,-0.025864,0.015616,1.017480,-0.420000,-0.700000,-0.420000
8.756532,-0.002928,0.035136,1.006256,-0.140000,-0.140000,-0.420000
8.760598,-0.014152,0.022448,1.000400,-0.560000,-0.700000,-0.560000
8.764664,-0.004880,0.041480,1.016504,-0.840000,-0.420000,-0.140000
8.768731,0.004392,0.032696,1.005280,-0.700000,-0.700000,-0.560000
8.772797,-0.019520,0.026352,1.006744,-0.980000,-0.280000,-0.140000
8.776863,-0.005856,0.021472,1.010648,-0.420000,-0.700000,-0.420000
8.780929,-0.010248,0.033672,1.014552,-0.420000,-0.280000,-0.420000
8.784995,-0.001952,0.034160,0.983320,-0.420000,-0.560000,-0.420000
8.789062,-0.018056,0.031232,1.013088,-0.700000,-0.280000,-0.140000
8.793128,0.002928,0.020008,1.004792,-0.560000,-0.140000,-0.420000
8.797194,-0.013176,0.033184,1.018456,-0.560000,-0.280000,-0.420000
8.801260,0.001464,0.023912,0.993080,-0.140000,-0.280000,-0.560000
8.805327,-0.008296,0.017568,1.029192,-0.560000,-0.560000,-0.280000
8.809393,-0.009760,0.033184,1.006256,-0.700000,-0.140000,-0.420000
8.813459,-0.018544,0.039528,0.994056,-0.560000,-0.700000,-0.420000
8.817525,-0.000488,0.032696,1.018944,-0.420000,-0.280000,-0.420000
8.821592,-0.012688,0.014640,1.005768,-0.700000,-1.120000,-0.280000
8.825658,-0.010248,0.037088,1.005768,-0.700000,0.140000,-0.280000
8.829724,-0.011224,0.019520,1.001864,-0.420000,-0.840000,-0.420000
8.833790,-0.009760,0.033672,1.010160,-0.560000,0.000000,-0.420000
8.837857,0.000000,0.022936,0.990640,-0.700000,-0.140000,-0.420000
8.841923,-0.007808,0.032208,1.015040,-0.700000,-0.560000,-0.420000
8.845989,-0.003904,0.027328,1.003328,-0.560000,-0.560000,-0.280000
8.850055,-0.003416,0.026840,1.014064,-0.700000,-0.420000,-0.280000
8.854121,-0.009272,0.022936,1.000888,-0.840000,-0.560000,-0.280000
8.858188,-0.007808,0.033184,1.021384,-0.420000,-0.140000,-0.560000
8.862254,-0.015128,0.014640,0.993568,-0.560000,-0.420000,-0.280000
8.866320,-0.015616,0.043432,1.021872,-0.840000,-0.420000,-0.280000
8.870386,-0.005856,0.031232,0.996496,-0.560000,-0.420000,-0.560000
8.874453,-0.004392,0.030256,1.020896,-0.560000,-0.420000,-0.420000
8.878519,-0.004880,0.011224,0.993080,-0.700000,-0.280000,-0.420000
8.882585,-0.012200,0.025864,1.023336,-0.700000,-0.560000,-0.420000
8.886651,-0.005856,0.039040,0.991128,-0.560000,-0.420000,-0.280000
8.890718,-0.012200,0.023912,1.022848,-0.840000,-0.840000,-0.280000
8.894784,-0.006832,0.033184,0.996496,-0.560000,-0.140000,-0.420000
8.898850,-0.006344,0.036600,1.013088,-0.840000,-0.980000,-0.420000
8.902916,-0.009760,0.029768,0.999912,-0.560000,0.000000,-0.140000
8.906982,0.015616,0.015616,1.009672,-0.560000,-0.420000,-0.140000
8.911049,-0.019520,0.028304,0.997960,-0.560000,0.140000,-0.560000
8.915115,-0.010248,0.026840,1.001376,-0.280000,-0.420000,-0.280000
8.919181,-0.013176,0.031720,1.024800,-0.700000,-0.560000,-0.700000
8.923247,0.000000,0.030744,1.004792,-0.700000,-0.420000,-0.280000
8.927314,-0.013176,0.030256,1.003328,-0.560000,-0.280000,-0.420000
8.931380,-0.002928,0.014152,1.004792,-0.560000,-0.420000,-0.140000
8.935446,-0.018056,0.020496,1.028216,-0.840000,-0.420000,-0.560000
8.939512,-0.011224,0.036112,0.977952,-0.420000,0.000000,-0.280000
8.943579,-0.005856,0.039528,1.026264,-0.420000,-0.980000,-0.420000
8.947645,-0.001464,0.021960,0.997472,-0.700000,-0.140000,-0.420000
8.951711,-0.010736,0.022448,1.011624,-0.420000,-0.700000,-0.420000
8.955777,-0.007320,0.029280,1.002840,-0.700000,-0.280000,-0.280000
8.959844,-0.004392,0.029280,1.016504,-0.700000,-0.420000,-0.420000
8.963910,-0.005368,0.036112,1.009672,-0.560000,-0.280000,-0.280000
8.967976,-0.013176,0.026840,0.998936,-0.560000,-0.980000,-0.280000
8.972042,-0.010736,0.033184,1.008208,-0.560000,0.280000,-0.280000
8.976108,0.002440,0.028304,1.010160,-0.560000,-0.840000,-0.420000
8.980175,-0.018056,0.024888,1.015040,-1.400000,0.000000,-0.280000
8.984241,0.008296,0.022448,1.002352,-0.420000,-0.560000,-0.280000
8.988307,-0.023424,0.032696,1.018944,-0.420000,-0.280000,-0.560000
8.992373,0.003416,0.030256,0.995032,-0.560000,-0.420000,-0.420000
8.996440,-0.022448,0.019520,1.012112,-0.700000,0.000000,-0.560000
9.000506,-0.000488,0.031232,0.995520,-0.560000,-0.840000,-0.420000
9.004572,-0.019520,0.020496,1.007720,-0.840000,-0.280000,-0.420000
9.008638,0.009272,0.020984,1.009184,-0.560000,-0.560000,-0.140000
9.012705,-0.016104,0.031720,0.999912,-0.560000,-0.420000,-0.560000
9.016771,-0.005368,0.040992,1.007232,-0.560000,-0.140000,-0.280000
9.020837,-0.009760,0.017080,1.011624,-0.560000,-0.700000,-0.280000
9.024903,-0.009760,0.038552,1.015528,-0.840000,-0.140000,-0.280000
9.028970,-0.008784,0.030256,1.003328,-0.280000,-0.700000,-0.280000
9.033036,-0.004392,0.032208,1.012600,-0.560000,-0.420000,-0.280000
9.037102,-0.007808,0.013664,1.005280,-0.700000,-0.280000,-0.420000
9.041168,-0.006344,0.029280,1.012112,-0.560000,0.000000,-0.420000
9.045234,-0.013176,0.024888,0.987224,-0.560000,-0.560000,-0.420000
9.049301,-0.007808,0.035136,1.028216,-0.560000,-0.420000,-0.140000
9.053367,-0.006832,0.026840,0.996008,-0.280000,-0.700000,-0.420000
9.057433,-0.007808,0.030744,1.018944,-0.980000,-0.560000,-0.140000
9.061499,-0.008296,0.026352,1.004304,-0.420000,-0.140000,-0.280000
9.065566,0.001952,0.024400,1.003816,-0.420000,-0.280000,-0.420000
9.069632,-0.025376,0.031232,1.003816,-0.700000,-0.280000,-0.420000
9.073698,0.000488,0.030256,1.009672,-0.700000,-0.280000,-0.420000
9.077764,-0.019520,0.034648,1.012112,-0.420000,-0.700000,-0.560000
9.081831,0.003416,0.021960,0.997472,-0.840000,-0.280000,-0.280000
9.085897,-0.007808,0.028792,1.023336,-0.700000,-0.420000,-0.140000
9.089963,0.003904,0.030256,1.002840,-0.420000,-0.280000,-0.280000
9.094029,-0.029768,0.020984,1.006256,-0.420000,-0.560000,-0.560000
9.098096,0.000000,0.033184,1.012600,-0.700000,-0.280000,-0.280000
9.102162,-0.010248,0.032696,1.014552,-0.700000,-1.120000,-0.420000
9.106228,-0.007808,0.029768,0.990152,-0.840000,0.280000,-0.280000
9.110294,-0.008296,0.013664,1.005768,-0.280000,-0.980000,-0.280000
9.114360,0.001952,0.029280,1.004304,-0.560000,0.140000,-0.560000
9.118427,-0.017080,0.032696,1.016504,-0.420000,-0.280000,-0.560000
9.122493,-0.009760,0.028792,1.004304,-0.840000,-0.280000,-0.280000
9.126559,-0.004392,0.023912,1.000400,-0.420000,-0.840000,-0.560000
9.130625,-0.008296,0.033184,1.001864,-0.700000,-0.140000,-0.280000
9.134692,-0.012688,0.023912,1.017480,-0.700000,-0.840000,-0.280000
9.138758,0.000488,0.028304,1.006256,-0.560000,0.000000,-0.280000
9.142824,-0.016592,0.023912,1.011624,-0.700000,-0.420000,-0.420000
9.146890,-0.006832,0.040504,1.012600,-0.560000,-0.700000,-0.140000
9.150957,-0.010248,0.024400,1.003328,-0.420000,-0.420000,-0.700000
9.155023,-0.007320,0.031232,1.013576,-0.560000,-0.420000,-0.280000
9.159089,-0.002928,0.019520,0.996984,-0.700000,-0.420000,-0.420000
9.163155,-0.010736,0.028304,1.023336,-0.560000,0.000000,-0.280000
9.167221,-0.000976,0.028792,1.001376,-0.560000,-0.280000,-0.420000
9.171288,-0.014640,0.041480,1.005768,-0.420000,-0.560000,-0.560000
9.175354,-0.006832,0.024888,0.998448,-0.560000,-0.140000,-0.420000
9.179420,-0.007320,0.023424,1.014064,-0.700000,-0.840000,-0.280000
9.183486,-0.011712,0.030256,0.998936,-0.840000,0.140000,-0.420000
9.187553,-0.003416,0.031720,1.014552,-0.420000,-0.420000,0.000000
9.191619,-0.004392,0.031720,0.995520,-0.420000,-0.280000,-0.560000
9.195685,-0.007320,0.010736,1.011136,-0.560000,-0.420000,-0.420000
9.199751,-0.017080,0.034648,1.015528,-0.560000,-0.560000,-0.420000
9.203818,-0.008784,0.025864,0.999912,-0.560000,-0.700000,-0.420000
9.207884,-0.011224,0.027816,1.012600,-0.560000,-0.280000,-0.280000
9.211950,-0.009760,0.026840,1.007232,-0.700000,-0.700000,-0.140000
9.216016,-0.009272,0.035624,1.027728,-0.420000,-0.560000,-0.420000
9.220083,0.000488,0.018544,0.986736,-0.840000,-0.140000,-0.560000
9.224149,-0.007320,0.028792,1.016016,-0.980000,-0.700000,-0.140000
9.228215,-0.004392,0.028792,0.997960,-0.560000,0.000000,-0.560000
9.232281,-0.015128,0.032696,1.012112,0.000000,-0.980000,-0.280000
9.236347,0.003416,0.021472,0.995520,-0.840000,-0.140000,-0.420000
9.240414,-0.007808,0.034160,1.028704,-0.840000,-0.560000,-0.280000
9.244480,-0.015128,0.042456,0.989664,-0.840000,0.000000,-0.280000
9.248546,-0.003904,0.017568,1.023824,-0.700000,-0.840000,-0.420000
9.252612,-0.018056,0.014152,1.010648,-0.420000,0.140000,-0.560000
9.256679,0.001952,0.042456,1.004304,-0.420000,-0.840000,-0.420000
9.260745,-0.023912,0.032208,1.003328,-0.560000,-0.420000,-0.420000
9.264811,0.009272,0.020984,1.015528,-0.700000,-0.420000,-0.420000
9.268877,-0.013176,0.019520,1.009184,-0.560000,-0.560000,-0.280000
9.272944,-0.002440,0.033672,0.989664,-0.700000,0.000000,-0.560000
9.277010,-0.021960,0.021472,1.017968,-0.140000,-0.700000,-0.280000
9.281076,0.002928,0.039040,1.010160,-0.560000,-0.700000,-0.420000
9.285142,-0.020008,0.024888,1.000400,-0.560000,-0.140000,-0.420000
9.289209,0.005368,0.034648,1.006256,-0.700000,-0.420000,-0.280000
9.293275,-0.017080,0.016104,1.014064,-0.840000,-0.420000,-0.420000
9.297341,0.005368,0.032696,1.000888,-0.560000,0.140000,-0.420000
9.301407,-0.020496,0.020008,1.007720,-0.280000,-0.700000,-0.560000
9.305473,0.004392,0.038064,1.010648,-0.560000,-0.140000,-0.420000
9.309540,-0.019032,0.017080,1.001864,-0.560000,-0.560000,-0.420000
9.313606,-0.013176,0.036112,1.011624,-0.560000,-0.700000,-0.140000
9.317672,-0.006344,0.029768,0.996496,-0.700000,-0.700000,-0.420000
9.321738,-0.009760,0.021472,1.029680,-0.700000,0.000000,-0.140000
9.325805,-0.012688,0.025376,0.992592,-0.560000,-0.700000,-0.420000
9.329871,-0.001464,0.035136,1.022360,-0.560000,-0.280000,-0.280000
9.333937,-0.000488,0.025376,0.988200,-0.560000,-0.420000,-0.700000
9.338003,-0.009272,0.032208,1.021872,-0.840000,-0.840000,-0.140000
9.342070,-0.007320,0.026840,1.000888,-0.420000,0.000000,-0.420000
9.346136,-0.009760,0.027816,1.004304,-0.420000,-0.560000,-0.420000
9.350202,-0.007320,0.025376,0.997472,-0.700000,-0.140000,-0.420000
9.354268,-0.009272,0.024400,1.017968,-0.560000,-0.560000,-0.420000
9.358335,-0.013176,0.037576,1.005768,-0.420000,-0.700000,-0.420000
9.362401,-0.004880,0.025864,1.000888,-0.840000,-0.140000,-0.280000
9.366467,-0.001952,0.026352,1.016016,-0.700000,-0.560000,-0.280000
9.370533,-0.020984,0.034648,1.000400,-0.420000,-0.280000,-0.280000
9.374599,0.004880,0.030256,1.010160,-0.420000,-0.560000,-0.280000
9.378666,-0.014152,0.015616,1.017968,-0.700000,-0.280000,-0.560000
9.382732,-0.001464,0.035624,1.004792,-0.420000,-0.560000,-0.420000
9.386798,-0.015616,0.024400,0.992104,-0.560000,-0.280000,-0.700000
9.390864,-0.011224,0.026840,1.018944,-0.560000,-0.420000,-0.280000
9.394931,-0.009272,0.024400,1.016992,-0.700000,-0.280000,-0.560000
9.398997,-0.001464,0.025376,1.001864,-0.700000,-0.560000,-0.420000
9.403063,-0.011712,0.027816,0.991616,-0.560000,-0.700000,-0.140000
9.407129,-0.000976,0.030744,1.026264,-0.560000,-0.560000,-0.280000
9.411196,-0.008784,0.021960,0.999912,-0.560000,-0.140000,-0.420000
9.415262,-0.012200,0.039528,1.012112,-0.700000,-0.560000,-0.280000
9.419328,-0.005856,0.027328,1.003816,-0.560000,-0.140000,-0.420000
9.423394,0.000000,0.035624,1.016016,-0.560000,-0.700000,-0.280000
9.427460,-0.016104,0.026352,1.011136,-0.560000,-0.140000,-0.420000
9.431527,0.000976,0.021960,1.005280,-0.560000,-0.280000,-0.560000
9.435593,-0.016592,0.022448,0.998936,-0.560000,-0.420000,-0.560000
9.439659,-0.011224,0.035624,1.009184,-0.700000,-0.420000,-0.280000
9.443725,-0.010736,0.034160,1.009184,-0.280000,-0.700000,-0.280000
9.447792,0.006344,0.031232,1.013088,-0.420000,-0.280000,-0.140000
9.451858,-0.022936,0.022448,0.982832,-0.840000,-0.280000,-0.420000
9.455924,-0.001464,0.025864,1.013088,-0.700000,-0.140000,-0.280000
9.459990,-0.020984,0.027328,1.017480,-0.560000,-0.840000,-0.700000
9.464057,0.009272,0.026840,0.996496,-0.700000,0.140000,-0.420000
9.468123,-0.014640,0.020984,1.017968,-0.280000,-0.700000,-0.420000
9.472189,-0.005368,0.047336,1.004304,-0.560000,-0.420000,-0.420000
9.476255,-0.010248,0.023912,1.001864,-0.700000,-0.420000,-0.560000
9.480322,0.003904,0.016104,1.008696,-0.980000,-0.280000,-0.280000
9.484388,-0.016104,0.026840,1.008208,-0.560000,-0.560000,-0.420000
9.488454,-0.016104,0.039040,1.008208,-0.560000,-0.280000,-0.420000
9.492520,-0.007808,0.021472,1.006256,-0.420000,-0.980000,-0.420000
9.496586,-0.001464,0.024400,1.013088,-1.120000,0.000000,-0.280000
9.500653,-0.010248,0.028792,1.006744,-0.560000,-0.280000,-0.560000
9.504719,-0.011224,0.030744,1.004792,-0.700000,-0.980000,-0.140000
9.508785,0.000488,0.016104,1.010160,-0.560000,0.140000,-0.420000
9.512851,-0.011712,0.036112,1.007720,-0.420000,-0.840000,-0.420000
9.516918,-0.014640,0.039528,1.016992,-0.560000,-0.280000,-0.560000
9.520984,0.001952,0.017568,1.011136,-0.840000,-0.140000,-0.280000
9.525050,-0.011712,0.026840,1.002352,-0.700000,-0.280000,-0.280000
9.529116,-0.020984,0.041968,1.005280,-0.700000,-0.560000,-0.140000
9.533183,0.008784,0.025864,1.006744,-0.420000,-0.560000,-0.560000
9.537249,-0.007320,0.017568,1.007720,-0.560000,-0.420000,-0.420000
9.541315,-0.013664,0.035136,1.001864,-0.840000,-0.280000,-0.420000
9.545381,-0.004880,0.026352,1.006744,-0.560000,-0.280000,-0.280000
9.549448,-0.012688,0.032696,0.993080,-0.560000,-0.280000,-0.280000
9.553514,-0.001952,0.019032,1.020408,-0.560000,-0.560000,-0.280000
9.557580,-0.013176,0.035136,1.010648,-0.560000,-0.700000,-0.560000
9.561646,-0.003904,0.024888,0.996984,-0.700000,-0.700000,-0.280000
9.565712,-0.013664,0.030744,1.015528,-0.560000,0.000000,-0.420000
9.569779,-0.016104,0.021472,1.007720,-0.280000,-0.560000,-0.560000
9.573845,-0.005368,0.032696,1.023824,-0.700000,-0.700000,-0.280000
9.577911,-0.005856,0.022936,0.979904,-0.700000,0.140000,-0.420000
9.581977,-0.009272,0.029280,1.018944,-0.560000,-0.980000,-0.140000
9.586044,-0.002440,0.035136,1.011624,-0.840000,0.000000,-0.560000
9.590110,0.005368,0.025376,1.006256,-0.280000,-0.560000,-0.420000
9.594176,-0.019520,0.023424,1.008208,-0.700000,-0.140000,-0.420000
9.598242,-0.010736,0.033184,1.017480,-0.560000,-0.840000,-0.420000
9.602309,-0.011224,0.034160,0.985272,-0.700000,-0.420000,-0.420000
9.606375,-0.001952,0.036112,1.025776,-0.980000,-0.560000,-0.140000
9.610441,-0.015128,0.017568,0.997960,-0.420000,-0.280000,-0.420000
9.614507,-0.003904,0.025864,1.005768,-0.280000,-0.420000,-0.420000
9.618573,-0.020008,0.022448,0.993080,-0.560000,-0.140000,-0.420000
9.622640,0.003904,0.030256,1.026752,-0.840000,-0.420000,-0.140000
9.626706,-0.014640,0.030256,1.007720,-0.560000,-0.420000,-0.280000
9.630772,-0.004880,0.029768,0.994544,-0.560000,-1.120000,-0.420000
9.634838,-0.007320,0.037576,1.017480,-0.700000,-0.280000,-0.140000
9.638905,-0.002440,0.026352,1.011624,-0.700000,-0.420000,-0.560000
9.642971,-0.012200,0.019032,0.998448,-0.420000,0.000000,-0.420000
9.647037,-0.001464,0.028792,1.003328,-0.560000,-0.280000,-0.420000
9.651103,-0.017568,0.020008,1.006744,-0.700000,-0.420000,-0.420000
9.655170,-0.009760,0.042944,1.015528,-0.420000,-0.560000,-0.560000
9.659236,-0.003416,0.020008,1.005768,-0.560000,-0.840000,-0.280000
9.663302,0.007808,0.025864,1.005768,-0.700000,0.140000,-0.280000
9.667368,-0.026840,0.025376,1.005280,-0.420000,-0.560000,-0.560000
9.671434,-0.007808,0.029280,1.011136,-0.700000,-0.560000,-0.280000
9.675501,-0.009272,0.033184,1.013576,-0.840000,-0.560000,-0.420000
9.679567,-0.006832,0.034160,1.011136,-0.420000,-0.280000,0.000000
9.683633,-0.018056,0.028304,1.002352,-0.420000,-0.700000,-0.420000
9.687699,0.002440,0.025376,1.009184,-0.560000,-0.420000,-0.140000
9.691766,-0.003416,0.031720,1.009672,-0.560000,-0.560000,-0.560000
9.695832,-0.004392,0.027816,1.007720,-0.700000,-0.280000,-0.140000
9.699898,-0.014152,0.016104,1.007232,-0.560000,-0.420000,-0.560000
9.703964,0.007320,0.031232,0.992104,-0.560000,-0.420000,-0.140000
9.708031,-0.020496,0.032208,1.000400,-0.700000,-0.280000,-0.420000
9.712097,-0.000976,0.024888,1.017968,-0.280000,-0.420000,-0.280000
9.716163,-0.012200,0.032696,0.997960,-0.700000,-0.840000,-0.420000
9.720229,-0.005856,0.022448,1.016016,-0.980000,-0.140000,-0.420000
9.724296,-0.012688,0.025376,1.007720,-0.280000,-0.560000,-0.420000
9.728362,-0.008784,0.029280,1.011624,-0.560000,-0.560000,-0.420000
9.732428,-0.005368,0.032208,1.012112,-0.560000,-0.140000,-0.560000
9.736494,-0.010248,0.026840,1.005768,-0.420000,-0.560000,-0.420000
9.740560,-0.000488,0.036112,1.014064,-0.700000,-0.700000,-0.140000
9.744627,-0.011224,0.017080,0.993568,-1.120000,-0.140000,-0.560000
9.748693,-0.012200,0.032208,1.022848,-0.560000,-0.700000,0.000000
9.752759,-0.000488,0.028792,1.001376,-0.560000,0.140000,-0.560000
9.756825,-0.019520,0.023424,1.005280,-0.280000,-0.560000,-0.420000
9.760892,-0.006832,0.032208,0.995520,-0.700000,-0.840000,-0.280000
9.764958,0.009272,0.032208,1.021872,-0.980000,-0.560000,-0.420000
9.769024,-0.012688,0.019032,1.003816,-0.700000,-0.280000,-0.560000
9.773090,-0.006344,0.026352,0.999912,-0.560000,-0.700000,-0.280000
9.777157,-0.013176,0.020984,1.002840,-0.700000,0.140000,-0.420000
9.781223,-0.004880,0.040016,1.018944,-0.560000,-0.420000,-0.140000
9.785289,-0.021472,0.039040,1.001864,-0.140000,-0.840000,-0.560000
9.789355,0.001952,0.020984,1.020408,-0.840000,-0.420000,-0.280000
9.793421,-0.009272,0.027816,0.996008,-0.840000,-0.560000,-0.420000
9.797488,-0.006832,0.024400,1.013576,-0.840000,-0.420000,-0.420000
9.801554,-0.012688,0.024888,1.006256,0.000000,-0.280000,-0.280000
9.805620,0.003416,0.035624,1.002352,-0.420000,-0.420000,-0.420000
9.809686,-0.020984,0.026352,1.007232,-0.420000,-0.560000,-0.420000
9.813753,-0.005856,0.030256,1.008208,-0.700000,-0.420000,-0.420000
9.817819,-0.007808,0.028304,1.017480,-0.700000,-0.840000,-0.420000
9.821885,-0.002928,0.023424,0.990640,-0.700000,0.280000,-0.280000
9.825951,-0.018544,0.016592,1.016992,-0.280000,-0.980000,-0.280000
9.830018,-0.004880,0.032208,1.003328,-0.420000,-0.280000,-0.420000
9.834084,-0.013664,0.034648,0.992104,-0.420000,-0.420000,-0.420000
9.838150,0.000488,0.038064,1.019920,-0.700000,-0.280000,-0.280000
9.842216,-0.001952,0.017568,1.001376,-0.700000,-0.420000,-0.420000
9.846283,-0.005368,0.021472,1.009672,-0.560000,-0.280000,-0.420000
9.850349,-0.015616,0.033184,1.015040,-0.420000,-0.560000,-0.420000
9.854415,-0.004880,0.030256,1.012600,-0.560000,-0.140000,-0.420000
9.858481,-0.009760,0.027328,1.010648,-0.700000,-0.140000,-0.420000
9.862547,-0.015128,0.033672,0.993568,-0.420000,-0.700000,-0.280000
9.866614,-0.002440,0.030744,1.016016,-0.840000,-0.280000,-0.420000
9.870680,-0.007320,0.020496,1.004304,-0.700000,-0.840000,-0.420000
9.874746,-0.007808,0.027328,1.008208,-0.700000,-0.280000,-0.560000
9.878812,-0.007320,0.025376,1.013088,-0.280000,-0.280000,-0.280000
9.882879,-0.016592,0.024400,0.993568,-0.420000,-0.560000,-0.420000
9.886945,-0.015128,0.040016,1.005768,-0.840000,-0.420000,-0.140000
9.891011,-0.001952,0.030744,0.998448,-0.560000,-0.280000,-0.420000
9.895077,-0.009272,0.027816,1.017968,-0.840000,-0.700000,-0.140000
9.899144,-0.004392,0.021960,0.985272,-0.560000,-0.280000,-0.280000
9.903210,-0.003904,0.023424,1.021872,-0.420000,-0.560000,-0.140000
9.907276,0.000488,0.040016,0.997472,-0.280000,-0.140000,-0.420000
9.911342,-0.016104,0.014640,1.014064,-0.560000,-0.280000,-0.560000
9.915408,-0.008784,0.035136,1.012600,-0.840000,-0.560000,-0.280000
9.919475,-0.004392,0.030744,1.006256,-0.980000,-0.700000,-0.420000
9.923541,-0.008296,0.027328,1.016016,-0.560000,-0.280000,-0.560000
9.927607,-0.005368,0.015616,0.991128,-0.560000,-0.560000,-0.280000
9.931673,-0.008784,0.032208,1.017968,-0.560000,-0.420000,-0.560000
9.935740,-0.005856,0.026352,1.001864,-0.700000,-0.280000,-0.420000
9.939806,-0.022448,0.029280,1.008696,-0.700000,-0.980000,-0.420000
9.943872,-0.000976,0.036112,1.018456,-0.840000,0.140000,-0.140000
9.947938,-0.009760,0.032696,0.998936,-0.280000,-0.980000,-0.700000
9.952005,-0.006832,0.022448,1.001864,-0.700000,-0.420000,-0.140000
9.956071,-0.001952,0.014640,1.005280,-0.420000,-0.420000,-0.560000
9.960137,-0.010248,0.041968,0.992592,-0.700000,0.000000,-0.280000
9.964203,-0.011712,0.031720,1.016992,-0.700000,-0.420000,-0.560000
9.968270,-0.009272,0.028792,1.009672,-0.560000,-0.560000,-0.280000
9.972336,-0.011712,0.030744,1.018456,-0.420000,-1.120000,-0.700000
9.976402,-0.005856,0.024888,0.995032,-0.840000,-0.280000,-0.140000
9.980468,0.002440,0.023424,1.017968,-0.560000,-0.140000,-0.560000
9.984534,-0.027816,0.028304,1.006256,-0.560000,-0.140000,-0.280000
9.988601,0.001952,0.032208,0.997472,-0.560000,-0.700000,-0.840000
9.992667,-0.013176,0.023912,1.011136,-0.700000,-0.420000,-0.140000
9.996733,0.009272,0.035136,1.009184,-0.700000,-0.700000,-0.420000
10.000799,-0.020008,0.018056,0.996008,-0.700000,-0.140000,-0.140000
10.004866,0.007808,0.023424,1.005768,-0.420000,-0.420000,-0.140000
10.008932,-0.034648,0.022448,1.019432,-0.840000,-0.280000,-0.420000
10.012998,0.006344,0.043432,0.993568,-0.420000,-0.420000,-0.280000
10.017064,-0.020496,0.024400,1.011624,-0.840000,-0.560000,-0.560000
10.021131,0.007808,0.037088,1.004792,-0.420000,-0.560000,-0.140000
10.025197,-0.003904,0.013176,1.002352,-0.560000,-0.280000,-0.560000
10.029263,-0.007808,0.034648,1.029680,-0.560000,-0.280000,-0.280000
10.033329,-0.016104,0.030744,1.001376,-0.420000,-0.140000,-0.420000
10.037395,-0.003416,0.030744,1.007720,-0.560000,-0.420000,-0.560000
10.041462,-0.025864,0.019520,0.995032,-0.560000,-0.560000,-0.560000
10.045528,0.001952,0.036600,1.013088,-0.700000,-0.280000,-0.280000
10.049594,-0.010248,0.026840,1.005768,-0.280000,-0.420000,-0.560000
10.053660,0.000488,0.017568,1.009672,-0.560000,-0.420000,-0.140000
10.057727,-0.002440,0.018544,1.010648,-0.560000,-0.560000,-0.420000
10.061793,-0.011712,0.039040,1.011624,-0.700000,-0.280000,-0.280000
10.065859,-0.016592,0.037576,0.992104,-0.560000,-0.420000,-0.420000
10.069925,-0.007320,0.024400,1.022848,-0.560000,-0.280000,-0.280000
10.073992,-0.007808,0.026352,0.991616,-0.420000,-0.980000,-0.140000
10.078058,-0.017080,0.036600,1.017968,-0.840000,0.140000,-0.280000
10.082124,0.003904,0.020496,0.992592,-0.280000,-0.980000,-0.280000
10.086190,-0.010736,0.038552,1.021384,-0.840000,0.280000,-0.560000
10.090257,-0.001464,0.020008,1.002840,-0.420000,-0.560000,-0.420000
10.094323,-0.014152,0.024888,1.009184,-0.700000,-0.140000,-0.560000
10.098389,-0.009272,0.026352,1.007720,-0.280000,-0.840000,-0.280000
10.102455,-0.014152,0.029280,1.008696,-0.840000,0.000000,-0.280000
10.106521,0.002440,0.022936,1.010648,-0.560000,-1.120000,-0.420000
10.110588,-0.006344,0.026352,1.006744,-0.560000,-0.140000,-0.420000
10.114654,-0.010248,0.026352,1.004792,-0.560000,-0.420000,-0.280000
10.118720,-0.010248,0.037576,1.008208,-0.560000,-0.840000,-0.280000
10.122786,-0.006832,0.028304,1.006744,-0.420000,0.000000,-0.420000
10.126853,-0.006344,0.025376,1.010160,-0.560000,-0.840000,-0.420000
10.130919,-0.008784,0.033672,1.010160,-0.700000,-0.420000,-0.560000
10.134985,0.001952,0.023424,0.997960,-0.700000,-0.280000,-0.140000
10.139051,-0.009272,0.031720,1.017480,-0.700000,0.000000,-0.700000
10.143118,-0.015128,0.023424,0.991128,-0.280000,-0.700000,-0.280000
10.147184,-0.013664,0.033672,1.018944,-0.420000,-0.140000,-0.560000
10.151250,-0.010248,0.017568,1.002352,-0.980000,-0.840000,-0.280000
10.155316,-0.009272,0.033672,1.015040,-0.840000,-0.700000,-0.420000
10.159382,0.002928,0.023912,1.007720,-0.420000,-0.280000,-0.140000
10.163449,-0.006832,0.028792,1.012600,-0.700000,-0.280000,-0.560000
10.167515,-0.017568,0.017080,0.995520,-0.420000,-0.280000,-0.280000
10.171581,-0.003416,0.043920,1.011624,-0.560000,-0.560000,-0.560000
10.175647,-0.007320,0.027328,1.002840,-0.700000,-0.840000,-0.280000
10.179714,-0.005368,0.034160,1.011136,-0.560000,-0.420000,-0.140000
10.183780,-0.009272,0.015128,1.006256,-0.560000,-0.560000,-0.280000
10.187846,-0.012688,0.020496,1.008208,-0.700000,-0.420000,-0.420000
10.191912,-0.011712,0.039040,0.991128,-0.280000,0.140000,-0.560000
10.195979,0.000976,0.031720,1.019432,-0.700000,-0.840000,-0.280000
10.200045,-0.017080,0.031232,1.001376,-0.560000,-0.140000,-0.420000
10.204111,0.003904,0.025376,0.995520,-0.420000,-0.980000,-0.280000
10.208177,-0.005856,0.020496,1.017480,-0.840000,0.140000,-0.420000
10.212244,-0.003416,0.031720,1.013576,-0.560000,-0.560000,-0.280000
10.216310,-0.026352,0.029768,1.016992,-0.280000,-0.140000,-0.700000
10.220376,-0.000976,0.024888,0.982344,-0.560000,-0.840000,-0.280000
10.224442,-0.013664,0.021472,1.024312,-0.840000,-0.420000,-0.560000
10.228508,-0.005368,0.043432,1.010648,-0.420000,-0.560000,-0.280000
10.232575,-0.002440,0.024888,1.001376,-0.980000,-0.560000,-0.420000
10.236641,0.000976,0.013176,1.016992,-0.420000,0.000000,0.000000
10.240707,-0.011224,0.028792,1.001376,-0.420000,-0.560000,-0.560000
10.244773,-0.022448,0.040504,1.005280,-0.700000,-0.280000,-0.420000
10.248840,-0.004880,0.024888,1.001376,-0.560000,-0.420000,-0.420000
10.252906,-0.007320,0.027816,1.010160,-0.840000,-0.700000,-0.280000
10.256972,-0.008784,0.023912,0.999424,-0.560000,-0.280000,-0.280000
10.261038,-0.003416,0.036600,1.004304,-0.560000,-0.280000,-0.140000
10.265105,-0.008296,0.032696,1.011136,-0.280000,-0.420000,-0.420000
10.269171,-0.009272,0.015616,1.014552,-0.560000,-0.280000,-0.560000
10.273237,-0.010248,0.021472,1.004792,-0.840000,-0.420000,-0.280000
10.277303,-0.006344,0.041480,1.006744,-0.840000,-0.420000,-0.420000
10.281369,-0.004880,0.018544,1.007232,-0.420000,-0.420000,-0.280000
10.285436,-0.003904,0.038552,1.017480,-0.700000,-0.280000,-0.280000
10.289502,-0.004880,0.026352,0.998448,-0.420000,-0.420000,-0.420000
10.293568,-0.017080,0.026352,1.006744,-0.840000,-0.140000,-0.560000
10.297634,-0.006344,0.018544,1.004792,-0.700000,-0.560000,-0.280000
10.301701,-0.002928,0.031720,1.008208,-0.560000,-0.280000,-0.560000
10.305767,-0.013176,0.034160,1.011624,-0.140000,-0.420000,-0.280000
10.309833,-0.007808,0.030744,1.005280,-0.700000,-0.980000,-0.420000
10.313899,-0.004880,0.021472,1.019432,-0.980000,-0.140000,-0.140000
10.317966,-0.008784,0.046360,0.994056,-0.700000,-0.280000,-0.420000
10.322032,-0.017568,0.030744,1.017480,-0.420000,-0.140000,-0.420000
10.326098,0.004392,0.011712,1.006256,-0.280000,-0.840000,-0.280000
10.330164,-0.019032,0.029280,0.993568,-0.840000,-0.420000,-0.560000
10.334231,-0.000976,0.036600,1.008208,-0.280000,-0.560000,-0.280000
10.338297,-0.003904,0.022448,1.015528,-0.700000,-0.140000,-0.280000
10.342363,0.003416,0.019520,1.013088,-0.560000,-0.280000,-0.280000
10.346429,-0.021472,0.024888,0.989176,-0.560000,-0.140000,-0.560000
10.350495,-0.004392,0.034160,1.016016,-0.560000,-0.560000,-0.140000
10.354562,-0.013664,0.034648,1.015528,-0.560000,-0.420000,-0.560000
10.358628,-0.010736,0.025864,1.002352,-0.700000,-0.420000,-0.280000
10.362694,-0.005368,0.026840,1.010160,-0.560000,-0.840000,-0.140000
10.366760,-0.010736,0.021472,1.006256,-0.420000,-0.420000,-0.420000
10.370827,-0.006344,0.032208,1.004792,-0.560000,-0.280000,-0.420000
10.374893,-0.007808,0.026352,1.006256,-0.980000,-0.420000,-0.140000
10.378959,0.000488,0.034648,1.005768,-0.420000,-0.140000,-0.560000
10.383025,-0.018544,0.030256,1.009184,-0.280000,-0.560000,-0.420000
10.387092,0.000976,0.023424,1.007232,-0.700000,-0.840000,-0.420000
10.391158,-0.007808,0.030744,1.009184,-0.700000,0.000000,-0.560000
10.395224,-0.002928,0.037088,1.005280,-0.840000,-0.420000,-0.140000
10.399290,-0.013176,0.016592,1.005768,-0.560000,-0.560000,-0.420000
10.403356,-0.005368,0.020496,1.017968,-0.280000,-0.280000,-0.420000
10.407423,-0.023424,0.037088,0.998936,-0.560000,-0.560000,-0.560000
10.411489,0.002928,0.035624,1.015040,-0.700000,-0.700000,-0.280000
10.415555,-0.009760,0.016104,1.011136,-0.700000,0.280000,-0.420000
10.419621,-0.010736,0.024888,1.005768,-0.840000,-0.700000,-0.140000
10.423688,-0.006832,0.035136,0.994544,-0.420000,-0.420000,-0.560000
10.427754,-0.003904,0.027816,1.015040,-0.280000,-0.700000,-0.420000
10.431820,-0.011224,0.027328,1.006256,-0.560000,-0.700000,-0.280000
10.435886,-0.002928,0.035136,0.991616,-0.700000,-0.140000,-0.280000
10.439953,-0.019520,0.022936,1.014064,-0.560000,-0.140000,-0.140000
10.444019,-0.008296,0.029768,1.008696,-0.560000,-0.280000,-0.280000
10.448085,-0.002440,0.027816,1.003328,-0.420000,-0.560000,-0.560000
10.452151,-0.000488,0.030744,1.012112,-0.560000,-0.280000,-0.280000
10.456218,-0.005368,0.020008,1.001864,-0.560000,-0.560000,-0.420000
10.460284,-0.013176,0.032696,1.006256,-0.560000,0.280000,-0.700000
10.464350,-0.007320,0.032208,1.011136,-0.560000,-0.840000,-0.420000
10.468416,-0.000488,0.030744,1.012600,-0.980000,-0.280000,-0.420000
10.472482,-0.004880,0.022936,1.022360,-0.560000,-0.700000,-0.280000
10.476549,-0.017080,0.022448,0.991616,-0.560000,-0.700000,-0.560000
10.480615,-0.002440,0.023424,1.008696,-0.560000,-0.280000,-0.280000
10.484681,-0.011224,0.034648,1.005280,-0.560000,-0.140000,-0.560000
10.488747,-0.021960,0.032696,1.018944,-0.420000,-0.980000,-0.280000
10.492814,-0.008784,0.024400,0.994056,-0.700000,-0.420000,-0.280000
10.496880,0.001952,0.025864,1.017480,-0.700000,-0.560000,-0.420000
10.500946,-0.012200,0.036600,1.000888,-0.700000,0.000000,-0.280000
10.505012,-0.007808,0.026840,1.013576,-0.420000,-0.280000,-0.560000
10.509079,-0.011712,0.027328,1.008696,-0.560000,-0.560000,-0.280000
10.513145,-0.008296,0.023912,0.995520,-0.980000,-0.280000,-0.420000
10.517211,-0.008296,0.028792,1.012600,-0.840000,-0.700000,-0.280000
10.521277,-0.004880,0.031720,1.008208,-0.560000,-0.280000,-0.560000
10.525343,-0.010736,0.029280,1.002840,-0.420000,-0.280000,-0.420000
10.529410,0.002440,0.018056,1.009672,-0.700000,-0.140000,-0.420000
10.533476,-0.010248,0.025376,1.006256,-0.560000,-0.420000,-0.420000
10.537542,-0.006344,0.034160,0.998448,-0.560000,-0.420000,-0.420000
10.541608,-0.008296,0.030256,1.014064,-0.840000,-0.980000,-0.420000
10.545675,-0.006832,0.027328,1.019432,-0.840000,-0.420000,-0.420000
10.549741,-0.009760,0.019520,1.000888,-0.560000,-0.420000,-0.280000
10.553807,-0.007808,0.034648,1.013088,-0.560000,-0.560000,-0.420000
10.557873,-0.010736,0.016592,1.004304,-0.420000,-0.420000,-0.280000
10.561940,-0.010736,0.036600,1.010160,-0.700000,-0.420000,-0.560000
10.566006,-0.001952,0.040016,1.006256,-0.700000,-0.560000,-0.420000
10.570072,-0.002440,0.025376,1.013576,-0.560000,0.000000,-0.140000
10.574138,-0.008296,0.030256,1.002840,-0.420000,-0.280000,-0.560000
10.578204,-0.016592,0.023424,1.006744,-0.420000,-0.560000,-0.280000
10.582271,-0.010736,0.029280,1.013088,-0.560000,0.000000,-0.700000
10.586337,-0.006344,0.029768,1.009184,-0.420000,-0.980000,-0.420000
10.590403,-0.011224,0.026840,0.998936,-0.980000,-0.140000,-0.420000
10.594469,-0.002928,0.026352,0.999424,-0.420000,-0.560000,0.000000
10.598536,-0.020008,0.034160,1.017480,-0.700000,-0.280000,-0.560000
10.602602,0.004880,0.020984,0.999912,-0.280000,-0.420000,-0.140000
10.606668,-0.009760,0.026352,1.011624,-0.980000,-0.700000,-0.420000
10.610734,-0.003904,0.038552,1.009672,-0.700000,-0.560000,-0.280000
10.614801,-0.017080,0.022448,1.000400,-0.560000,-0.420000,-0.420000
10.618867,0.000000,0.022936,1.013576,-0.420000,-0.280000,-0.280000
10.622933,-0.024400,0.027816,1.002840,-0.560000,-0.700000,-0.420000
10.626999,0.006344,0.038064,1.000888,-0.560000,0.140000,-0.280000
10.631065,-0.005368,0.014152,0.997472,-0.700000,-0.840000,-0.420000
10.635132,-0.006344,0.033184,1.027240,-0.840000,0.140000,-0.420000
10.639198,-0.009272,0.024400,0.992592,-0.420000,-0.700000,-0.420000
10.643264,-0.007320,0.032696,1.019432,-0.980000,0.000000,-0.280000
10.647330,-0.009760,0.020496,1.008696,-0.280000,-0.840000,-0.280000
10.651397,-0.005856,0.040016,1.010648,-0.700000,-0.420000,-0.420000
10.655463,-0.013176,0.020008,0.990640,-0.560000,-0.980000,-0.280000
10.659529,-0.001952,0.027328,1.024312,-0.840000,0.140000,-0.560000
10.663595,-0.013176,0.031232,1.001376,-0.280000,-0.980000,-0.700000
10.667662,-0.013176,0.027816,1.004304,-0.980000,-0.140000,-0.140000
10.671728,-0.003416,0.027328,1.006744,-0.420000,-0.420000,-0.280000
10.675794,-0.012200,0.028304,1.013576,-0.560000,-0.560000,-0.280000
10.679860,-0.002928,0.043432,0.995520,-0.700000,-0.420000,-0.420000
10.683927,0.000488,0.018056,1.006256,-0.840000,-0.280000,-0.280000
10.687993,-0.010248,0.025864,1.014064,-0.840000,-0.280000,-0.560000
10.692059,-0.014640,0.026352,1.007720,-0.420000,-0.280000,-0.280000
10.696125,-0.002928,0.035624,1.001376,-0.280000,-0.140000,-0.560000
10.700191,-0.008296,0.035136,1.008696,-0.280000,-0.560000,-0.280000
10.704258,-0.016592,0.022448,1.005280,-0.700000,-0.420000,-0.560000
10.708324,-0.002440,0.018544,1.004304,-0.840000,-0.700000,-0.280000
10.712390,-0.002928,0.032696,1.008696,-0.700000,-0.280000,-0.560000
10.716456,-0.020984,0.018056,1.003816,-0.280000,-0.140000,-0.280000
10.720523,-0.012200,0.030256,1.003816,-0.420000,-1.120000,-0.420000
10.724589,-0.007808,0.029768,1.009672,-0.700000,-0.280000,-0.280000
10.728655,-0.003416,0.031232,1.008696,-0.700000,-0.420000,-0.280000
10.732721,-0.020008,0.032696,1.015040,-0.700000,-0.420000,-0.280000
10.736788,0.009272,0.027816,1.004304,-0.560000,-0.140000,-0.280000
10.740854,-0.011224,0.020008,0.993568,-0.420000,-0.420000,-0.560000
10.744920,-0.004392,0.036112,1.018456,-0.420000,-0.420000,-0.420000
10.748986,-0.012200,0.030744,1.006744,-0.700000,-0.560000,-0.420000
10.753052,0.004392,0.033672,0.999424,-0.980000,0.000000,-0.140000
10.757119,-0.020496,0.021960,1.011624,-0.560000,-0.420000,-0.420000
10.761185,0.003416,0.025376,1.013576,-0.560000,-0.560000,-0.420000
10.765251,-0.014152,0.028304,1.001376,-0.840000,-0.560000,-0.560000
10.769317,-0.001464,0.026352,1.004792,-0.840000,-0.420000,-0.280000
10.773384,-0.016104,0.022936,1.012112,-0.700000,-0.420000,-0.420000
10.777450,-0.008784,0.032208,1.010160,-0.560000,-0.280000,-0.280000
10.781516,-0.017568,0.036112,1.004304,-0.700000,-0.560000,-0.420000
10.785582,-0.002440,0.029280,1.011136,-0.700000,-0.560000,-0.280000
10.789649,-0.010248,0.021960,1.001864,-0.420000,-0.980000,-0.700000
10.793715,-0.007808,0.030256,1.004792,-0.840000,0.140000,-0.280000
10.797781,-0.011712,0.024400,1.013576,-0.700000,-0.560000,-0.420000
10.801847,-0.006344,0.032696,1.014552,-0.420000,0.000000,-0.420000
10.805913,-0.005368,0.025376,0.982832,-0.560000,-0.700000,-0.140000
10.809980,-0.001952,0.040992,1.022360,-0.980000,-0.700000,-0.280000
10.814046,0.003416,0.014152,1.000400,-0.700000,-0.280000,-0.420000
10.818112,-0.007320,0.031232,1.017968,-0.840000,-0.280000,-0.420000
10.822178,-0.010248,0.019032,0.989176,-0.280000,-0.140000,-0.420000
10.826245,-0.013664,0.040016,1.024800,-0.280000,-0.700000,-0.280000
10.830311,-0.019520,0.018056,1.002840,-0.560000,-0.140000,-0.280000
10.834377,-0.005368,0.039040,1.001864,-0.840000,-0.700000,-0.420000
10.838443,-0.002928,0.023424,1.006744,-0.420000,0.000000,-0.560000
10.842510,-0.010736,0.027816,1.020896,-0.700000,-0.980000,-0.420000
10.846576,-0.008296,0.020008,1.019432,-0.420000,-0.420000,-0.420000
10.850642,-0.002440,0.030256,0.994544,-0.560000,-0.280000,-0.280000
10.854708,-0.010736,0.038552,1.008208,-0.560000,0.000000,-0.420000
10.858774,-0.001952,0.038064,0.994056,-0.560000,-0.560000,-0.140000
10.862841,-0.009272,0.023912,1.004792,-0.980000,-0.140000,-0.420000
10.866907,-0.000488,0.023912,0.997472,-0.280000,-0.980000,-0.280000
10.870973,-0.018544,0.024400,1.025776,-0.420000,0.140000,-0.700000
10.875039,-0.005368,0.022936,0.992592,-0.560000,-0.560000,-0.140000
10.879106,-0.011224,0.039040,1.012600,-0.700000,-0.280000,-0.560000
10.883172,-0.005856,0.020496,1.004304,-0.560000,-0.560000,-0.420000
10.887238,-0.019032,0.034648,1.019432,-0.980000,-0.700000,-0.420000
10.891304,0.010248,0.028792,0.997472,-0.560000,-0.280000,-0.140000
10.895371,-0.014152,0.020008,1.013576,-0.560000,-0.280000,-0.560000
10.899437,-0.015128,0.028792,1.011136,-0.280000,-0.420000,-0.280000
10.903503,-0.004392,0.025376,1.012600,-0.420000,-0.700000,-0.560000
10.907569,-0.008296,0.034648,0.992104,-0.980000,0.000000,-0.280000
10.911636,-0.001952,0.031232,1.016504,-0.280000,-0.980000,-0.420000
10.915702,-0.003416,0.022936,1.007720,-0.700000,-0.280000,-0.420000
10.919768,-0.008296,0.033672,1.001376,-0.560000,-0.420000,-0.280000
10.923834,-0.018544,0.029280,1.009672,-0.420000,-0.420000,-0.420000
10.927900,-0.003416,0.026352,1.002840,-0.560000,-0.560000,-0.420000
10.931967,-0.005368,0.032208,1.004304,-0.840000,-0.420000,-0.280000
10.936033,-0.010248,0.029768,1.008208,-0.560000,-0.560000,-0.280000
10.940099,-0.018056,0.020984,1.023824,-0.840000,-0.140000,-0.420000
10.944165,-0.004392,0.029280,0.999912,-0.420000,-0.560000,-0.560000
10.948232,-0.009272,0.026840,1.008208,-0.560000,-0.140000,-0.420000
10.952298,0.002928,0.025864,1.007232,-0.560000,-0.280000,-0.280000
10.956364,-0.024888,0.031232,1.015528,-0.420000,-0.560000,-0.420000
10.960430,0.000488,0.030744,0.995032,-0.700000,-0.140000,-0.560000
10.964497,-0.010248,0.020984,1.016992,-0.840000,-0.700000,-0.280000
10.968563,0.004392,0.042944,1.012600,-0.560000,-0.280000,-0.420000
10.972629,-0.010736,0.013176,0.996008,-0.420000,-0.840000,-0.420000
10.976695,-0.005856,0.028792,1.011136,-0.840000,0.000000,-0.140000
10.980761,-0.011224,0.024888,0.994056,-0.140000,-0.420000,-0.420000
10.984828,-0.009760,0.042944,1.015528,-0.840000,0.140000,-0.560000
10.988894,-0.015128,0.021472,0.993080,-0.420000,-0.700000,-0.140000
10.992960,0.004880,0.033184,1.006744,-0.560000,-0.560000,-0.560000
10.997026,-0.006832,0.018544,1.008208,-0.280000,-0.280000,-0.420000
11.001093,-0.015616,0.030256,1.020408,-0.420000,-0.420000,-0.420000
11.005159,-0.006832,0.029280,1.002840,-0.560000,-0.280000,-0.560000
11.009225,-0.015616,0.026352,1.015528,-0.700000,-0.420000,-0.560000
11.013291,-0.012688,0.031720,0.996496,-0.560000,-0.700000,-0.280000
11.017358,0.001952,0.033184,1.016992,-0.700000,-0.420000,-0.420000
11.021424,-0.005856,0.026352,0.996008,-0.420000,-0.700000,-0.280000
11.025490,-0.007808,0.017080,1.023824,-0.840000,-0.420000,-0.420000
11.029556,-0.007320,0.022936,1.012112,-0.560000,-0.140000,-0.420000
11.033622,-0.010248,0.032696,0.997472,-0.420000,-0.560000,-0.140000
11.037689,-0.016104,0.048312,1.000400,-0.560000,-0.560000,-0.280000
11.041755,0.000488,0.020984,0.997472,-0.700000,-0.700000,-0.140000
11.045821,-0.016592,0.033184,1.017968,-0.420000,-0.560000,-0.420000
11.049887,0.007320,0.015616,0.988688,-0.980000,0.000000,-0.420000
11.053954,-0.003904,0.020008,1.020896,-0.560000,-0.140000,-0.420000
11.058020,-0.015128,0.040992,0.996008,-0.560000,-0.140000,-0.420000
11.062086,-0.014640,0.030256,1.025288,-0.700000,-0.980000,-0.560000
11.066152,-0.007320,0.033672,1.011136,-0.560000,-0.420000,-0.280000
11.070219,-0.000488,0.026840,1.010648,-0.560000,-0.700000,-0.420000
11.074285,-0.008296,0.020984,1.004792,-0.980000,0.000000,-0.420000
11.078351,-0.013176,0.019520,1.002352,-0.140000,-0.700000,-0.280000
11.082417,-0.002928,0.029280,1.020896,-0.700000,-0.280000,-0.420000
11.086483,-0.008296,0.023912,0.991128,-1.120000,-0.140000,-0.420000
11.090550,-0.024888,0.050264,1.000888,-0.420000,-0.700000,-0.280000
11.094616,0.008784,0.025864,1.027240,-0.560000,-0.280000,-0.420000
11.098682,-0.009760,0.013176,0.994544,-0.420000,-0.700000,-0.420000
11.102748,-0.012688,0.032208,1.013088,-0.560000,-0.280000,-0.280000
11.106815,-0.002928,0.031232,0.994056,-0.700000,-0.560000,-0.420000
11.110881,-0.004880,0.032696,1.014064,-0.560000,-0.140000,-0.420000
11.114947,-0.016104,0.024888,1.009184,-0.700000,-0.560000,-0.140000
11.119013,0.000488,0.029768,1.013088,-0.700000,-0.420000,-0.420000
11.123080,-0.017568,0.026840,0.999912,-0.140000,-0.420000,-0.420000
11.127146,-0.002928,0.027328,1.006744,-0.560000,-0.560000,-0.420000
11.131212,-0.003904,0.011712,1.007720,-0.980000,-0.280000,-0.420000
11.135278,-0.009272,0.040992,1.013088,-0.420000,-0.140000,-0.420000
11.139345,-0.018544,0.029768,0.994544,-0.420000,-0.560000,-0.560000
11.143411,0.000000,0.029280,1.032608,-0.560000,-0.560000,-0.280000
11.147477,-0.007808,0.021472,0.993568,-0.700000,-0.840000,-0.420000
11.151543,-0.012688,0.036600,1.011624,-0.980000,-0.420000,-0.280000
11.155609,-0.000976,0.015616,0.995520,-0.560000,-0.140000,-0.420000
11.159676,-0.018544,0.032696,1.012112,-0.560000,-0.560000,-0.280000
11.163742,-0.007320,0.027816,0.993080,-0.700000,-0.140000,-0.560000
11.167808,-0.008296,0.029280,1.018944,-0.420000,-0.840000,-0.140000
11.171874,-0.003904,0.032696,1.002840,-0.700000,0.000000,-0.280000
11.175941,-0.002928,0.027816,1.016504,-0.560000,-0.560000,-0.420000
11.180007,-0.003416,0.025376,0.997960,-0.700000,-0.420000,-0.140000
11.184073,-0.005856,0.031232,1.018456,-0.700000,-0.420000,-0.420000
11.188139,-0.023912,0.017080,1.006744,-0.420000,-0.280000,-0.560000
11.192206,-0.010248,0.032696,1.011624,-0.560000,-0.700000,-0.280000
11.196272,0.001464,0.033184,0.997472,-0.700000,0.000000,-0.560000
11.200338,-0.008296,0.023912,1.014064,-0.700000,-0.420000,-0.280000
11.204404,-0.007320,0.034160,1.015040,-0.420000,-0.700000,-0.280000
11.208470,-0.001952,0.016592,1.002352,-0.840000,-0.280000,-0.420000
11.212537,-0.002440,0.035136,1.006256,-0.560000,-0.140000,-0.280000
11.216603,-0.021960,0.029768,0.988688,-0.280000,-0.420000,-0.420000
11.220669,-0.005856,0.030256,1.016504,-0.420000,-0.420000,-0.420000
11.224735,-0.012200,0.027816,0.996984,-0.700000,-0.980000,-0.280000
11.228802,-0.009760,0.033672,1.024800,-0.980000,-0.420000,-0.420000
11.232868,0.000000,0.019032,1.007232,-0.560000,-0.420000,-0.140000
11.236934,-0.008296,0.027328,0.995520,-0.560000,-0.420000,-0.420000
11.241000,-0.015616,0.035136,1.012600,-0.700000,0.140000,-0.420000
11.245067,-0.010736,0.027328,1.009672,-0.420000,-0.560000,-0.420000
11.249133,-0.003904,0.029280,0.996008,-0.560000,-0.700000,-0.280000
11.253199,0.000488,0.021960,1.006744,-0.700000,-0.420000,-0.420000
11.257265,-0.002440,0.022448,1.008696,-0.840000,-0.280000,-0.140000
11.261331,-0.013664,0.030744,1.034560,-0.560000,-0.280000,-0.560000
11.265398,-0.020496,0.032208,0.978440,-0.420000,0.000000,-0.560000
11.269464,-0.008296,0.028792,1.019920,-0.420000,-0.980000,-0.140000
11.273530,-0.005368,0.027816,0.995032,-0.700000,-0.280000,-0.420000
11.277596,-0.016592,0.023424,1.014064,-0.840000,-0.420000,-0.420000
11.281663,0.000976,0.034648,1.006256,-0.560000,-0.700000,-0.280000
11.285729,0.000000,0.030256,1.008208,-0.560000,0.000000,-0.420000
11.289795,-0.006832,0.028304,1.017480,-0.420000,-0.420000,-0.140000
11.293861,-0.014640,0.027328,0.989176,-0.560000,-0.560000,-0.560000
11.297928,-0.012200,0.028792,1.017968,-0.560000,-0.140000,-0.280000
11.301994,-0.003416,0.025864,1.001376,-0.700000,-0.700000,-0.420000
11.306060,-0.009272,0.024888,1.021384,-0.980000,-0.420000,-0.280000
11.310126,0.004392,0.020496,0.996984,-0.420000,-0.280000,-0.420000
11.314192,-0.011224,0.029280,1.019920,-0.420000,-0.280000,-0.420000
11.318259,-0.011224,0.033672,0.996008,-0.560000,-0.140000,-0.280000
11.322325,-0.018544,0.030256,1.014064,-0.700000,-0.560000,-0.420000
11.326391,-0.003904,0.032696,1.008696,-0.560000,-0.840000,-0.420000
11.330457,-0.010248,0.020984,1.000888,-0.840000,-0.280000,-0.280000
11.334524,-0.001952,0.029280,1.002840,-0.560000,-0.420000,-0.420000
11.338590,-0.016592,0.031232,1.013088,-0.420000,-0.420000,-0.560000
11.342656,-0.000976,0.031232,0.994056,-0.700000,0.140000,-0.280000
11.346722,-0.012200,0.010736,1.011624,-0.700000,-0.980000,-0.420000
11.350789,0.001464,0.044408,1.008208,-0.420000,-0.420000,-0.420000
11.354855,-0.019032,0.023424,1.006256,-0.840000,-0.420000,-0.280000
11.358921,-0.004880,0.029768,1.011136,-0.700000,-0.560000,-0.280000
11.362987,-0.005856,0.013664,0.997960,-0.560000,-0.420000,-0.700000
11.367054,-0.002928,0.030256,1.026264,-0.700000,-0.280000,-0.280000
11.371120,-0.021472,0.028304,0.996008,-0.560000,-0.840000,-0.420000
11.375186,0.006832,0.035624,1.031144,-0.560000,-0.560000,-0.140000
11.379252,-0.007320,0.024400,0.979904,-0.560000,-0.560000,-0.420000
11.383318,-0.007808,0.040504,1.026264,-0.840000,-0.420000,-0.280000
11.387385,-0.013664,0.019520,1.000400,-0.560000,-0.140000,-0.420000
11.391451,-0.002440,0.027816,1.010160,-0.840000,-0.420000,-0.280000
11.395517,-0.026840,0.031232,0.997960,-0.280000,-0.560000,-0.420000
11.399583,-0.003904,0.040016,1.023336,-0.560000,-0.140000,-0.280000
11.403650,-0.015128,0.024400,0.993568,-0.560000,-1.120000,-0.560000
11.407716,0.003904,0.025864,1.007232,-0.840000,0.000000,-0.280000
11.411782,-0.000488,0.026352,1.002352,-0.420000,-0.420000,-0.140000
11.415848,-0.010736,0.032696,1.007232,-0.420000,-0.280000,-0.420000
11.419915,-0.018056,0.010736,1.005280,-0.140000,-0.420000,-0.560000
11.423981,0.004880,0.022936,1.010160,-0.840000,-0.560000,-0.420000
11.428047,-0.011224,0.034648,0.996008,-0.840000,-0.280000,-0.420000
11.432113,-0.014152,0.032208,1.013576,-0.560000,-0.420000,-0.280000
11.436179,-0.002440,0.020496,1.019920,-0.560000,-0.420000,-0.280000
11.440246,-0.002928,0.025864,1.012600,-0.560000,-0.140000,-0.560000
11.444312,-0.020496,0.032696,1.002352,-0.420000,-0.140000,-0.280000
11.448378,-0.006344,0.028304,1.001864,-0.840000,-0.700000,-0.560000
11.452444,-0.014640,0.027328,1.015528,-0.700000,-0.420000,-0.420000
11.456511,-0.010248,0.037576,1.001864,-0.560000,-0.560000,-0.420000
11.460577,-0.002928,0.025376,1.016992,-0.560000,-0.700000,-0.560000
11.464643,-0.012200,0.022448,1.007232,-0.560000,-0.420000,0.000000
11.468709,-0.001464,0.042944,0.992592,-0.700000,0.000000,-0.420000
11.472776,-0.014640,0.016592,1.008208,-0.420000,-0.700000,-0.420000
11.476842,0.001952,0.023912,0.996496,-0.700000,0.000000,-0.420000
11.480908,-0.009272,0.027328,1.015528,-0.560000,-0.980000,-0.420000
11.484974,-0.010736,0.037088,1.000400,-0.700000,0.000000,-0.420000
11.489040,-0.001464,0.017568,1.024312,-0.560000,-0.560000,-0.140000
11.493107,-0.003904,0.025376,1.009184,-0.560000,-0.140000,-0.560000
11.497173,-0.017080,0.028304,0.996984,-0.560000,-0.420000,-0.420000
11.501239,-0.012688,0.039040,1.017968,-0.560000,-0.560000,-0.280000
11.505305,0.002440,0.022448,0.999424,-0.420000,-0.700000,-0.560000
11.509372,-0.017080,0.026352,1.003328,-0.980000,0.000000,-0.280000
11.513438,-0.010736,0.036600,1.004792,-0.700000,-0.560000,-0.280000
11.517504,0.000000,0.023912,1.012600,-0.420000,-0.560000,-0.560000
11.521570,-0.013176,0.021960,1.000888,-0.700000,-0.280000,-0.280000
11.525637,-0.003904,0.027816,1.003816,-0.700000,-0.700000,-0.280000
11.529703,-0.010248,0.035136,1.012112,-0.420000,-0.280000,-0.560000
11.533769,-0.001464,0.024400,1.009672,-0.560000,-0.420000,-0.420000
11.537835,-0.014640,0.031720,1.001376,-0.840000,-0.560000,-0.420000
11.541901,0.004880,0.032208,1.015040,-0.280000,0.000000,-0.280000
11.545968,-0.005856,0.020496,1.003328,-0.700000,-0.420000,-0.420000
11.550034,-0.015616,0.021960,1.016992,-0.700000,-0.560000,-0.420000
11.554100,-0.008784,0.034160,1.003328,-0.700000,0.000000,-0.280000
11.558166,-0.019032,0.025376,1.007232,-0.420000,-0.700000,-0.420000
11.562233,-0.008784,0.029280,1.006256,-0.420000,-0.420000,-0.420000
11.566299,0.004880,0.019520,1.016504,-0.560000,-0.560000,-0.280000
11.570365,-0.010736,0.035136,1.008208,-0.840000,-0.140000,-0.140000
11.574431,-0.009272,0.037088,1.003816,-0.420000,-0.140000,-0.420000
11.578498,-0.013176,0.023912,1.024800,-0.420000,-0.980000,-0.420000
11.582564,0.005368,0.031232,0.992592,-0.840000,-0.280000,-0.420000
11.586630,-0.021960,0.038064,0.995520,-0.420000,-0.700000,-0.560000
11.590696,-0.004392,0.028304,1.012600,-0.840000,-0.140000,-0.140000
11.594762,-0.009272,0.014640,0.993568,-0.560000,-0.700000,-0.560000
11.598829,-0.002440,0.028304,1.010648,-0.840000,0.420000,-0.420000
11.602895,-0.008784,0.020496,1.009184,-0.420000,-0.980000,-0.280000
11.606961,-0.002440,0.032208,1.004304,-0.840000,-0.140000,-0.560000
11.611027,-0.013664,0.027328,1.002352,-0.560000,-0.560000,-0.280000
11.615094,-0.009272,0.032208,1.013576,-0.700000,-0.560000,-0.280000
11.619160,-0.004392,0.027328,1.027240,-0.420000,-0.280000,-0.560000
11.623226,-0.011224,0.017568,1.003328,-0.840000,-0.280000,-0.140000
11.627292,-0.006344,0.035136,1.013576,-0.700000,-0.840000,-0.420000
11.631359,-0.001952,0.034648,0.999912,-0.420000,-0.280000,-0.420000
11.635425,-0.010736,0.023912,1.004304,-0.700000,-0.560000,-0.560000
11.639491,-0.017568,0.025864,1.008208,-0.700000,-0.560000,-0.280000
11.643557,-0.002928,0.032208,1.015040,-0.840000,0.000000,-0.420000
11.647623,-0.019520,0.026352,1.008208,-0.420000,-0.980000,-0.140000
11.651690,-0.003904,0.033672,0.996496,-0.560000,-0.280000,-0.560000
11.655756,-0.004880,0.022936,1.010160,-0.840000,-0.560000,-0.280000
11.659822,-0.002928,0.038552,1.009672,-0.700000,-0.280000,-0.560000
11.663888,-0.010736,0.020008,1.003328,-0.280000,-0.560000,-0.280000
11.667955,-0.001952,0.025864,1.012600,-0.700000,-0.280000,-0.280000
11.672021,-0.008784,0.035624,0.998936,-0.420000,-0.560000,-0.280000
11.676087,-0.007320,0.026352,1.013576,-0.700000,-0.560000,-0.420000
11.680153,-0.005368,0.022936,1.007720,-0.840000,-0.280000,-0.420000
11.684220,-0.006344,0.031720,0.991128,-0.420000,-0.560000,-0.560000
11.688286,-0.010736,0.019520,1.017968,-0.420000,0.140000,-0.560000
11.692352,-0.009272,0.026840,1.011624,-0.280000,-0.840000,-0.280000
11.696418,-0.016104,0.024888,1.019432,-0.560000,-0.280000,-0.420000
11.700484,-0.011224,0.029768,0.990640,-0.560000,-0.560000,-0.280000
11.704551,0.001952,0.027816,1.014064,-0.980000,-0.420000,-0.560000
11.708617,-0.007808,0.025376,1.011136,-0.280000,-0.280000,-0.140000
11.712683,-0.019032,0.038552,0.998936,-0.700000,-0.280000,-0.560000
11.716749,-0.009760,0.026352,1.016016,-0.140000,-0.840000,-0.140000
11.720816,0.006344,0.028304,0.999424,-0.980000,-0.140000,-0.420000
11.724882,-0.006832,0.031232,1.012600,-0.700000,-0.840000,-0.280000
11.728948,-0.010736,0.028792,1.002840,-0.700000,-0.560000,-0.280000
11.733014,-0.001952,0.016104,1.017968,-0.560000,-0.280000,-0.420000
11.737081,-0.019032,0.036112,1.005768,-0.420000,-0.140000,-0.420000
11.741147,-0.008784,0.035624,1.002840,-0.560000,-0.280000,-0.420000
11.745213,-0.002440,0.022936,1.011624,-0.560000,-0.560000,-0.140000
11.749279,-0.010248,0.024400,1.003816,-0.840000,-0.280000,-0.560000
11.753346,-0.012200,0.032208,1.002840,-0.560000,-0.700000,-0.280000
11.757412,-0.001952,0.028304,1.019432,-0.700000,0.000000,-0.560000
11.761478,-0.006832,0.021960,1.008696,-0.280000,-0.980000,-0.420000
11.765544,-0.019520,0.027816,0.993080,-0.980000,0.280000,-0.420000
11.769610,-0.001464,0.032696,1.002352,-0.560000,-0.840000,-0.280000
11.773677,-0.008784,0.035624,1.001864,-0.560000,-0.280000,-0.280000
11.777743,-0.003416,0.017568,1.010648,-0.560000,-0.560000,-0.140000
11.781809,-0.013176,0.021472,1.008696,-0.420000,-0.560000,-0.420000
11.785875,-0.002440,0.038552,1.003816,-0.560000,-0.140000,-0.420000
11.789942,-0.008296,0.021472,1.007232,-0.560000,-0.280000,-0.280000
11.794008,-0.011224,0.031232,1.013576,-0.420000,-0.420000,-0.420000
11.798074,-0.001464,0.032208,1.001864,-0.560000,-0.420000,-0.280000
11.802140,-0.008296,0.018056,1.009672,-0.840000,-0.280000,-0.560000
11.806207,-0.010736,0.023424,1.012600,-0.280000,-0.420000,-0.280000
11.810273,-0.001952,0.037576,1.012112,-0.700000,-0.140000,-0.700000
11.814339,-0.010248,0.027328,1.009184,-0.420000,-0.560000,-0.560000
11.818405,-0.009760,0.035136,1.006256,-0.560000,-0.420000,-0.420000
11.822471,-0.007320,0.017568,1.014552,-0.980000,-0.420000,-0.140000
11.826538,-0.006344,0.038552,0.993080,-0.420000,-0.280000,-0.420000
11.830604,-0.013176,0.028304,0.998448,-0.420000,-0.700000,-0.140000
11.834670,0.000488,0.028304,1.018456,-0.700000,-0.420000,-0.420000
11.838736,-0.017080,0.020008,0.995520,-0.420000,-0.840000,-0.560000
11.842803,-0.009272,0.034160,1.014064,-0.840000,-0.280000,-0.280000
11.846869,-0.003416,0.025376,1.003328,-0.840000,-0.280000,-0.420000
11.850935,-0.007808,0.037576,1.018944,-0.280000,-0.560000,-0.280000
11.855001,-0.010736,0.026352,1.003328,-0.700000,-0.140000,-0.280000
11.859068,-0.006832,0.033184,1.016992,-0.420000,-0.840000,-0.560000
11.863134,-0.003416,0.023912,0.998936,-0.700000,-0.140000,-0.420000
11.867200,-0.002440,0.018544,1.013088,-0.840000,-0.420000,-0.560000
11.871266,-0.022448,0.024888,1.002352,-0.700000,-0.140000,-0.420000
11.875332,-0.004880,0.035624,1.021872,-0.420000,-0.840000,-0.140000
11.879399,-0.008296,0.023424,0.988688,-0.840000,-0.280000,-0.560000
11.883465,-0.005368,0.032208,1.012600,-0.560000,-0.840000,-0.140000
11.887531,-0.005856,0.035136,0.998936,-0.700000,0.000000,-0.420000
11.891597,-0.011224,0.018544,1.009672,-0.840000,-0.420000,-0.420000
11.895664,-0.015616,0.022448,1.003816,-0.420000,-0.420000,-0.420000
11.899730,-0.000488,0.038064,1.005280,-0.700000,-0.560000,-0.280000
11.903796,-0.008296,0.043432,1.014552,-0.560000,-0.420000,-0.420000
11.907862,-0.007808,0.019520,1.003816,-0.420000,-0.560000,-0.280000
11.911929,0.003904,0.021960,1.021384,-0.980000,-0.420000,-0.420000
11.915995,-0.013664,0.022936,1.004304,-0.420000,-0.280000,-0.560000
11.920061,-0.014640,0.033672,1.001864,-0.420000,-0.840000,-0.280000
11.924127,0.005856,0.026352,1.019432,-0.840000,0.000000,-0.280000
11.928193,-0.018056,0.023424,0.996496,-0.280000,-0.700000,-0.420000
11.932260,-0.007808,0.043432,1.010160,-0.420000,-0.140000,-0.280000
11.936326,0.003904,0.021472,1.008696,-0.700000,-0.560000,-0.420000
11.940392,-0.018056,0.022936,1.017968,-0.700000,-0.420000,-0.420000
11.944458,-0.015616,0.024400,0.986248,-0.420000,-0.280000,-0.280000
11.948525,-0.007808,0.031232,1.004792,-0.700000,-0.700000,-0.420000
11.952591,-0.013176,0.030256,1.011136,-0.420000,-0.140000,-0.280000
11.956657,-0.007808,0.037088,1.000400,-0.560000,-0.560000,-0.280000
11.960723,0.000488,0.023912,1.015528,-0.700000,-0.280000,-0.280000
11.964790,-0.004880,0.028304,1.003328,-0.560000,-0.560000,-0.420000
11.968856,-0.009760,0.020984,1.009672,-0.840000,-0.140000,-0.420000
11.972922,-0.007320,0.028304,1.007720,-0.560000,-0.700000,-0.420000
11.976988,-0.000488,0.027816,0.993568,-0.420000,-0.420000,-0.420000
11.981054,-0.015616,0.027816,1.025776,-0.560000,-0.280000,-0.420000
11.985121,-0.009272,0.030744,0.997472,-0.840000,-0.700000,-0.280000
11.989187,-0.003904,0.019520,1.017968,-0.840000,-0.280000,-0.420000
11.993253,-0.007320,0.034160,0.995520,-0.420000,-0.560000,-0.560000
11.997319,-0.010248,0.023424,1.019920,-0.700000,-0.560000,-0.420000
12.001386,-0.004392,0.029280,1.005280,-0.700000,-0.140000,-0.280000
12.005452,-0.011224,0.029280,1.000400,-0.560000,-0.280000,-0.280000
12.009518,-0.011712,0.039040,1.006744,-0.700000,-0.560000,-0.280000
12.013584,-0.007808,0.023424,1.009184,-0.700000,-0.280000,-0.280000
12.017651,-0.005856,0.032696,1.016504,-0.700000,-0.840000,-0.420000
12.021717,-0.010736,0.020984,0.990640,-0.700000,-0.140000,-0.280000
12.025783,-0.002928,0.028304,1.008208,-0.280000,-0.560000,-0.280000
12.029849,-0.010736,0.028304,1.012600,-0.420000,0.140000,-0.420000
12.033915,-0.008296,0.026352,1.003816,-0.700000,-0.700000,-0.560000
12.037982,-0.010736,0.033672,1.005280,-0.560000,-0.420000,-0.280000
12.042048,0.007320,0.020984,1.012112,-0.700000,-0.840000,-0.420000
12.046114,-0.017080,0.020496,1.005768,-0.700000,-0.280000,-0.280000
12.050180,-0.008296,0.029768,1.009184,-0.420000,-0.280000,-0.140000
12.054247,-0.016592,0.030256,1.024800,-0.700000,-0.140000,-0.560000
12.058313,-0.005856,0.027816,0.997960,-0.560000,-0.140000,-0.280000
12.062379,-0.006832,0.042456,1.002352,-0.280000,-0.840000,-0.420000
12.066445,0.000488,0.032208,1.016504,-0.700000,-0.420000,-0.280000
12.070512,-0.012200,0.022936,0.999424,-0.560000,-0.280000,-0.560000
12.074578,-0.002928,0.015128,1.002840,-0.420000,-0.420000,-0.420000
12.078644,-0.011224,0.026840,1.003816,-0.700000,-0.420000,-0.420000
12.082710,-0.011712,0.043432,1.004304,-0.420000,-0.280000,-0.280000
12.086776,-0.014152,0.031720,1.014552,-0.700000,-0.840000,-0.280000
12.090843,-0.002440,0.015616,0.998936,-0.840000,-0.140000,-0.280000
12.094909,-0.005856,0.025376,1.005768,-0.560000,-0.840000,-0.280000
12.098975,-0.013664,0.025376,1.019432,-0.840000,0.000000,-0.560000
12.103041,-0.004880,0.031232,1.011136,-0.420000,-0.560000,-0.140000
12.107108,-0.002440,0.032696,1.008208,-0.420000,-0.140000,-0.420000
12.111174,-0.011224,0.032208,1.004792,-0.420000,-0.560000,-0.420000
12.115240,-0.009760,0.026840,1.010648,-1.120000,-0.420000,-0.140000
12.119306,-0.001952,0.025864,1.005280,-0.560000,-0.700000,-0.560000
12.123373,-0.013176,0.022448,0.999424,-0.560000,-0.140000,-0.420000
12.127439,-0.003416,0.020984,1.013576,-0.280000,-0.700000,-0.140000
12.131505,-0.020496,0.034160,1.005280,-0.700000,-0.560000,-0.560000
12.135571,-0.010248,0.040016,0.989176,-0.560000,-0.420000,-0.420000
12.139637,0.010248,0.023424,1.010648,-0.840000,-0.420000,0.000000
12.143704,-0.004880,0.024888,1.014064,-0.700000,-0.280000,-0.560000
12.147770,-0.021472,0.025864,1.007232,-0.420000,-0.420000,-0.280000
12.151836,0.005856,0.024400,1.001376,-0.420000,-0.700000,-0.420000
12.155902,-0.005856,0.030744,1.017480,-0.560000,0.140000,-0.280000
12.159969,-0.014640,0.036600,1.014064,-0.280000,-0.420000,-0.560000
12.164035,-0.014640,0.021960,0.995032,-0.700000,-0.700000,-0.140000
12.168101,-0.000976,0.022448,1.013088,-0.700000,-0.140000,-0.560000
12.172167,-0.019520,0.029768,1.008696,-0.560000,-0.700000,-0.560000
12.176234,-0.007808,0.035624,1.017480,-0.560000,-0.700000,-0.420000
12.180300,-0.001464,0.015616,1.001864,-0.840000,0.280000,-0.280000
12.184366,-0.009272,0.039528,1.021872,-0.280000,-0.560000,-0.140000
12.188432,-0.015128,0.025376,0.976976,-0.560000,-0.420000,-0.280000
12.192499,-0.001952,0.029768,1.032608,-0.840000,-0.420000,-0.280000
12.196565,-0.014152,0.028304,0.990640,-0.840000,-0.560000,-0.280000
12.200631,0.001464,0.031232,1.010160,-0.560000,-0.560000,-0.280000
12.204697,-0.004880,0.019520,1.005280,-0.420000,0.000000,-0.420000
12.208763,-0.011712,0.031232,1.008696,-0.560000,-0.560000,-0.420000
12.212830,-0.009272,0.034160,1.003328,-0.700000,0.280000,-0.700000
12.216896,-0.004880,0.023912,1.012112,-0.560000,-1.120000,-0.280000
12.220962,-0.009760,0.024888,1.001376,-0.980000,-0.280000,-0.420000
12.225028,0.007320,0.027816,1.007720,-0.420000,-0.840000,-0.280000
12.229095,-0.019520,0.030256,1.004304,-0.560000,-0.280000,-0.420000
12.233161,0.000488,0.023912,1.018944,-0.420000,-0.560000,-0.420000
12.237227,-0.024400,0.021472,1.004792,-0.560000,0.000000,-0.560000
12.241293,-0.010248,0.040992,0.999912,-0.700000,-0.840000,0.000000
12.245360,-0.005368,0.028792,1.009184,-0.700000,-0.280000,-0.560000
12.249426,0.000976,0.023424,1.004304,-0.280000,-0.980000,-0.280000
12.253492,-0.006832,0.028304,1.013088,-0.840000,-0.280000,-0.280000
12.257558,-0.006832,0.025376,1.004792,-0.560000,0.000000,-0.420000
12.261624,-0.014640,0.037576,1.002840,-0.420000,-0.420000,-0.280000
12.265691,-0.006344,0.023424,0.999424,-0.700000,-0.280000,-0.140000
12.269757,-0.014152,0.031232,1.016992,-0.420000,-0.840000,-0.560000
12.273823,0.000488,0.036600,1.001376,-0.840000,-0.280000,-0.420000
12.277889,0.001952,0.012688,1.009184,-0.700000,-0.560000,-0.420000
12.281956,-0.016104,0.026352,1.014552,-0.420000,0.280000,-0.420000
12.286022,-0.009272,0.039528,1.011624,-0.280000,-0.700000,-0.280000
12.290088,-0.017080,0.022936,0.991616,-0.700000,-0.700000,-0.700000
12.294154,0.000000,0.024888,1.016016,-0.840000,-0.560000,-0.280000
12.298221,-0.009272,0.031232,1.000400,-0.840000,-0.840000,-0.140000
12.302287,-0.009760,0.027816,1.003816,-0.420000,0.140000,-0.420000
12.306353,-0.006832,0.011712,1.014552,-0.560000,-0.840000,-0.280000
12.310419,-0.015616,0.028304,1.011136,-0.560000,-0.140000,-0.420000
12.314485,-0.012200,0.044408,0.996496,-0.700000,-0.420000,-0.700000
12.318552,-0.014640,0.034648,1.013088,-0.560000,-0.560000,-0.280000
12.322618,0.013176,0.016104,1.005768,-0.840000,-0.560000,-0.280000
12.326684,-0.011712,0.034648,1.016016,-0.560000,-0.140000,-0.420000
12.330750,-0.013664,0.024400,0.998448,-0.420000,-0.700000,-0.140000
12.334817,-0.001464,0.032696,1.016016,-0.700000,0.000000,-0.560000
12.338883,-0.010736,0.019520,1.000400,-0.840000,-0.420000,-0.140000
12.342949,-0.014640,0.048312,1.012112,-0.980000,-0.560000,-0.420000
12.347015,0.002440,0.019520,1.006256,-0.280000,-0.420000,-0.280000
12.351082,-0.011712,0.024888,1.012112,-0.560000,-0.560000,-0.420000
12.355148,-0.001952,0.023912,1.001376,-0.560000,-0.560000,-0.420000
12.359214,-0.002928,0.026840,1.011624,-0.700000,-0.280000,-0.420000
12.363280,-0.015616,0.027328,0.998448,-0.560000,0.000000,-0.280000
