Time [s],lsm6dsv16x_acc_x [g],lsm6dsv16x_acc_y [g],lsm6dsv16x_acc_z [g],lsm6dsv16x_gyro_x [dps],lsm6dsv16x_gyro_y [dps],lsm6dsv16x_gyro_z [dps]
48.967286,-0.018544,0.026840,1.003816,-0.700000,-0.560000,-0.280000
48.971352,-0.002440,0.032696,1.010160,-0.700000,-0.560000,-0.280000
48.975418,-0.008784,0.027816,1.003328,-0.420000,-0.420000,-0.420000
48.979485,-0.005368,0.020984,0.999424,-0.700000,0.000000,-0.420000
48.983551,-0.011224,0.014640,1.016016,-0.420000,-0.560000,-0.280000
48.987617,0.000976,0.040016,0.997472,-0.840000,0.000000,-0.420000
48.991683,-0.020008,0.038064,0.997472,-0.840000,-0.840000,-0.420000
48.995749,0.002928,0.024888,1.021384,-0.420000,-0.280000,-0.280000
48.999816,-0.013176,0.020496,1.005280,-0.560000,-0.840000,-0.560000
49.003882,-0.009272,0.025864,0.996008,-0.700000,0.000000,-0.140000
49.007948,-0.014640,0.027816,1.015040,-0.420000,-0.280000,-0.280000
49.012014,-0.007808,0.037088,1.012600,-0.560000,-0.560000,-0.420000
49.016080,-0.004880,0.024400,0.996984,-0.840000,-0.280000,-0.560000
49.020146,-0.000488,0.036600,1.012112,-0.700000,-0.840000,-0.140000
49.024213,-0.012200,0.028792,1.016504,-0.700000,-0.280000,-0.420000
49.028279,-0.011712,0.023424,1.003816,-0.420000,-0.560000,-0.280000
49.032345,-0.001464,0.018056,0.991128,-0.560000,-0.560000,-0.560000
49.036411,-0.005368,0.027328,1.016992,-0.840000,-0.280000,-0.280000
49.040477,-0.023912,0.032696,0.986736,-0.420000,0.000000,-0.560000
49.044544,0.000000,0.037576,1.010160,-0.420000,-0.560000,-0.140000
49.048610,0.001952,0.021960,1.005280,-0.700000,-0.140000,-0.560000
49.052676,-0.008296,0.024888,1.013576,-0.280000,-0.560000,-0.140000
49.056742,-0.014152,0.037576,1.001376,-0.560000,-0.700000,-0.420000
49.060808,-0.003416,0.020984,1.008696,-0.840000,-0.140000,-0.420000
49.064874,-0.007320,0.026840,1.016504,-0.420000,-0.280000,-0.420000
49.068941,-0.020496,0.032208,0.995520,-0.700000,-0.560000,-0.420000
49.073007,-0.007320,0.028304,1.014552,-0.420000,-0.700000,-0.280000
49.077073,-0.004880,0.029280,1.003328,-0.280000,-0.280000,-0.280000
49.081139,-0.007320,0.021960,1.012600,-0.840000,-0.700000,-0.420000
49.085205,-0.001464,0.023424,0.996496,-0.700000,0.140000,-0.140000
49.089272,-0.003416,0.028304,1.009184,-0.560000,-0.700000,-0.280000
49.093338,-0.016104,0.041968,1.007720,-0.560000,0.140000,-0.420000
49.097404,-0.008296,0.026352,0.999912,-0.280000,-0.980000,-0.420000
49.101470,-0.004392,0.030744,1.001376,-0.840000,-0.140000,-0.420000
49.105536,0.001952,0.020496,1.005768,-0.840000,-0.420000,-0.140000
49.109602,-0.020496,0.030256,1.013576,-0.840000,-0.280000,-0.140000
49.113669,-0.002928,0.033672,1.004792,-0.420000,-0.560000,-0.560000
49.117735,-0.014640,0.013664,1.001864,-0.700000,-0.140000,-0.560000
49.121801,-0.003416,0.038064,1.018456,-0.560000,-0.700000,-0.140000
49.125867,-0.011712,0.033184,0.989664,-0.560000,-0.560000,-0.560000
49.129933,-0.000488,0.028304,1.018456,-0.700000,-0.140000,-0.280000
49.134000,-0.002440,0.019520,0.999912,-0.560000,-0.700000,-0.420000
49.138066,-0.011224,0.031720,1.027728,-0.420000,0.000000,-0.420000
49.142132,-0.022448,0.024888,0.983320,-0.420000,-0.560000,-0.420000
49.146198,-0.012200,0.036112,1.009184,-0.840000,-0.560000,-0.560000
49.150264,0.000000,0.022936,1.008696,-0.420000,-0.280000,-0.560000
49.154331,-0.012200,0.036600,1.008208,-0.700000,-0.700000,-0.280000
49.158397,-0.008296,0.023424,1.002352,-0.560000,-0.840000,-0.280000
49.162463,0.001464,0.022936,1.016016,-0.840000,-0.140000,-0.280000
49.166529,-0.008784,0.032208,1.000888,-0.560000,-0.420000,-0.280000
49.170595,-0.017568,0.039528,1.002352,-0.840000,-0.280000,-0.420000
49.174661,0.001952,0.024400,1.015040,-0.280000,-0.420000,-0.420000
49.178728,-0.010736,0.027328,1.001376,-0.700000,-0.560000,-0.280000
49.182794,-0.007808,0.028304,1.002352,-0.560000,-0.420000,-0.420000
49.186860,-0.004880,0.019520,1.007720,-0.560000,-0.560000,-0.280000
49.190926,-0.004880,0.027328,1.025288,-0.700000,-0.140000,-0.560000
49.194992,-0.014152,0.028792,0.981368,-0.700000,-0.420000,-0.420000
49.199059,-0.014640,0.039040,1.018944,-0.140000,-0.420000,-0.420000
49.203125,0.001952,0.024888,0.999912,-0.560000,-0.840000,-0.280000
49.207191,-0.013176,0.023912,1.012600,-0.840000,0.140000,-0.280000
49.211257,-0.007320,0.031720,0.989176,-0.420000,-0.700000,-0.140000
49.215323,-0.014640,0.030744,1.012600,-0.420000,-0.280000,-0.560000
49.219389,0.007320,0.015616,1.008208,-0.840000,-0.140000,-0.280000
49.223456,-0.022448,0.036112,1.010648,-0.840000,-0.700000,-0.420000
49.227522,-0.002928,0.035136,1.005768,-0.280000,-0.560000,-0.420000
49.231588,-0.009760,0.019032,1.002840,-0.700000,-0.420000,-0.280000
49.235654,-0.007808,0.029280,1.016992,-0.700000,-0.560000,-0.140000
49.239720,-0.006832,0.031720,1.004304,-0.560000,-0.280000,-0.420000
49.243787,-0.005856,0.029768,1.000888,-0.840000,-0.140000,-0.280000
49.247853,-0.014152,0.023912,1.006256,-0.420000,-0.420000,-0.280000
49.251919,-0.000488,0.028792,1.007232,-0.560000,-0.280000,-0.420000
49.255985,-0.016592,0.030256,1.009184,-0.280000,-0.840000,-0.420000
49.260051,0.005368,0.037576,1.001864,-0.700000,-0.280000,-0.140000
49.264117,-0.011712,0.022936,1.013576,-0.700000,-0.700000,-0.420000
49.268184,-0.000488,0.034648,1.000400,-0.420000,0.140000,-0.280000
49.272250,-0.013176,0.008296,0.995032,-0.420000,-0.980000,-0.420000
49.276316,-0.008296,0.028792,1.027728,-0.700000,0.280000,-0.280000
49.280382,-0.021472,0.035136,0.992104,-0.280000,-1.260000,-0.560000
49.284448,0.000488,0.037576,1.019432,-0.840000,0.140000,-0.140000
49.288515,-0.001464,0.011224,1.006744,-0.840000,-0.420000,-0.420000
49.292581,-0.012688,0.036112,1.017480,-0.420000,-0.140000,-0.140000
49.296647,-0.011224,0.034648,0.983808,-0.280000,-0.700000,-0.700000
49.300713,-0.009760,0.026840,1.023824,-0.840000,-0.420000,-0.140000
49.304779,-0.011712,0.027816,0.991128,-0.560000,-0.840000,-0.560000
49.308845,-0.008296,0.031720,0.991128,-0.840000,-0.140000,-0.140000
49.312912,0.001952,0.021472,1.015528,-0.560000,-0.560000,-0.140000
49.316978,-0.010736,0.023424,0.998448,-0.420000,-0.280000,-0.280000
49.321044,-0.003904,0.029768,1.020408,-0.560000,-0.420000,-0.560000
49.325110,-0.016592,0.027328,0.997960,-0.700000,-0.280000,-0.140000
49.329176,0.003416,0.037576,1.010648,-0.420000,-0.700000,-0.560000
49.333243,-0.017568,0.023912,1.003328,-0.840000,-0.420000,-0.280000
49.337309,0.006832,0.031720,1.001376,-0.420000,-0.420000,-0.420000
49.341375,-0.015128,0.017568,1.016992,-0.280000,-0.280000,-0.420000
49.345441,-0.010248,0.032696,1.003816,-0.700000,-0.140000,-0.420000
49.349507,-0.020984,0.030744,1.005280,-0.560000,-0.560000,-0.420000
49.353573,0.000976,0.032208,1.013576,-0.560000,-0.280000,-0.560000
49.357640,-0.014640,0.021960,1.006256,-0.700000,-0.840000,-0.420000
49.361706,-0.004880,0.030744,1.003816,-0.280000,-0.420000,-0.420000
49.365772,-0.002928,0.031232,1.000400,-0.700000,-0.420000,-0.280000
49.369838,-0.005368,0.026840,1.015040,-0.560000,0.000000,-0.280000
49.373904,-0.018056,0.020496,0.995520,-0.420000,-0.700000,-0.560000
49.377971,0.002440,0.028792,1.010648,-0.980000,-0.420000,-0.280000
49.382037,-0.008296,0.031232,1.010648,-0.840000,-0.560000,-0.420000
49.386103,-0.010248,0.032696,1.011624,-0.420000,-0.700000,-0.280000
49.390169,-0.011224,0.024888,1.007232,-0.560000,-0.420000,-0.420000
49.394235,0.002928,0.024888,0.996008,-0.420000,0.000000,-0.280000
49.398302,-0.012200,0.028792,1.003328,-0.840000,-0.420000,-0.560000
49.402368,-0.007320,0.033672,1.013088,-0.700000,-0.560000,-0.280000
49.406434,-0.012688,0.029280,1.000400,-0.700000,-0.840000,-0.280000
49.410500,-0.002440,0.024888,1.009672,-0.840000,0.140000,-0.420000
49.414566,-0.016104,0.030744,1.011136,-0.140000,-0.700000,-0.280000
49.418632,-0.000976,0.039040,1.004792,-0.560000,-0.140000,-0.280000
49.422699,-0.004880,0.009272,1.000400,-0.700000,-0.140000,-0.560000
49.426765,-0.018056,0.032696,1.016504,-0.560000,-0.700000,-0.280000
49.430831,0.000488,0.031720,0.999912,-0.420000,-0.560000,-0.560000
49.434897,-0.009760,0.020008,1.005768,-0.840000,-0.420000,-0.280000
49.438963,-0.022448,0.030744,0.999424,-0.560000,-0.280000,-0.140000
49.443030,-0.003416,0.036112,1.020408,-0.560000,-0.560000,-0.560000
49.447096,-0.010248,0.026352,0.978928,-0.700000,0.000000,-0.140000
49.451162,-0.002928,0.029768,1.024800,-0.700000,-0.700000,-0.420000
49.455228,-0.002928,0.019520,0.998936,-0.560000,-0.280000,-0.560000
49.459294,-0.008296,0.028792,1.011136,-0.560000,-0.420000,-0.420000
49.463360,-0.007808,0.033184,1.001376,-0.420000,-0.420000,-0.420000
49.467427,-0.000488,0.032208,1.027728,-0.980000,-0.700000,-0.420000
49.471493,-0.014152,0.033672,0.996984,-0.420000,-0.280000,-0.280000
49.475559,-0.004880,0.017080,0.997472,-0.700000,-0.840000,-0.140000
49.479625,-0.006832,0.028304,1.018456,-0.560000,-0.140000,-0.560000
49.483691,-0.017568,0.029280,0.999912,-0.280000,-0.840000,-0.560000
49.487758,-0.010736,0.034160,1.008208,-0.840000,-0.280000,-0.560000
49.491824,-0.001464,0.019520,0.997472,-0.560000,-0.420000,-0.140000
49.495890,-0.019032,0.033672,1.020896,-0.420000,-0.420000,-0.280000
49.499956,-0.002440,0.030256,0.994544,-0.560000,-0.560000,-0.280000
49.504022,0.000488,0.026352,1.015040,-0.840000,-0.280000,-0.280000
49.508088,-0.010248,0.028792,0.996984,-0.420000,-0.280000,-0.280000
49.512155,-0.011224,0.035136,1.003816,-0.420000,-0.560000,-0.560000
49.516221,-0.014152,0.025864,1.002352,-0.420000,-0.140000,-0.280000
49.520287,0.002928,0.027328,1.009184,-0.700000,-0.840000,-0.280000
49.524353,-0.015616,0.014152,1.004792,-0.700000,0.140000,-0.420000
49.528419,-0.009272,0.038064,1.020896,-0.280000,-0.840000,-0.280000
49.532486,-0.000976,0.022936,0.986736,-0.840000,-0.280000,-0.420000
49.536552,-0.005856,0.024888,1.019920,-0.560000,-0.140000,-0.420000
49.540618,-0.018056,0.029280,0.993080,-0.140000,-0.700000,-0.280000
49.544684,-0.002928,0.032696,1.034072,-0.840000,-0.420000,-0.280000
49.548750,-0.004880,0.026352,0.987712,-0.560000,-0.140000,0.000000
49.552816,-0.012688,0.036600,1.016016,-0.700000,-0.560000,-0.420000
49.556883,0.000488,0.033672,1.010648,-0.560000,-0.420000,-0.280000
49.560949,-0.002928,0.023912,0.998936,-0.560000,-0.140000,-0.560000
49.565015,-0.013664,0.025376,1.002352,-0.560000,-0.420000,-0.280000
49.569081,-0.010248,0.034160,1.012112,-0.560000,-0.420000,-0.560000
49.573147,-0.002928,0.029768,1.007232,-0.420000,-0.560000,-0.420000
49.577214,-0.011712,0.020496,1.005768,-0.980000,-0.560000,-0.420000
49.581280,-0.005856,0.022448,1.002840,-0.700000,-0.560000,-0.420000
49.585346,-0.011712,0.037576,1.017480,-0.280000,-0.560000,-0.420000
49.589412,-0.009272,0.023424,0.997472,-0.700000,-0.280000,-0.280000
49.593478,-0.011712,0.022936,1.010648,-0.560000,-0.700000,-0.140000
49.597544,-0.014152,0.034160,0.997472,-0.700000,0.000000,-0.560000
49.601611,-0.004880,0.041968,1.014552,-0.560000,-0.840000,-0.280000
49.605677,-0.006832,0.029280,1.008208,-0.840000,0.000000,-0.420000
49.609743,-0.000976,0.019032,1.000888,-0.560000,-0.700000,-0.560000
49.613809,-0.014640,0.024400,1.004792,-0.700000,0.000000,-0.280000
49.617875,0.002440,0.028304,0.999912,-0.420000,-0.420000,-0.140000
49.621942,-0.025864,0.034648,1.015528,-0.700000,-0.420000,-0.420000
49.626008,0.006832,0.028304,0.996008,-0.560000,-0.420000,-0.560000
49.630074,-0.011712,0.021960,1.009672,-0.840000,-0.560000,-0.280000
49.634140,0.003904,0.026840,1.004304,-0.560000,-0.140000,-0.280000
49.638206,-0.025376,0.022448,1.009184,-0.420000,-0.280000,-0.560000
49.642272,-0.005856,0.030744,1.005768,-0.560000,-0.420000,-0.140000
49.646339,0.001952,0.022448,1.002840,-0.840000,-0.420000,-0.560000
49.650405,-0.010248,0.035136,1.003816,-0.560000,-0.420000,-0.420000
49.654471,-0.017568,0.037576,1.007720,-0.560000,-0.700000,-0.140000
49.658537,0.006832,0.021472,1.015528,-0.560000,-0.280000,-0.560000
49.662603,-0.013664,0.021960,1.008208,-0.420000,-0.420000,-0.560000
49.666670,-0.010736,0.039040,1.007720,-0.840000,-0.280000,-0.280000
49.670736,-0.007320,0.033672,1.009184,-0.560000,-0.700000,-0.420000
49.674802,-0.001952,0.026840,0.996984,-0.700000,-0.280000,-0.140000
49.678868,-0.016104,0.025376,1.003816,-0.700000,-0.840000,-0.280000
49.682934,0.003904,0.027328,1.005768,-0.420000,0.140000,-0.280000
49.687000,-0.016592,0.027328,1.015528,-0.280000,-0.840000,-0.560000
49.691067,-0.006832,0.019520,0.997960,-0.980000,0.140000,-0.420000
49.695133,-0.004880,0.024400,1.004792,-0.560000,-0.560000,-0.420000
49.699199,-0.012688,0.037088,0.998936,-0.700000,-0.280000,-0.280000
49.703265,-0.008784,0.038552,1.010648,-0.560000,-0.560000,-0.280000
49.707331,-0.006832,0.026352,1.018944,-0.560000,-0.560000,-0.280000
49.711398,0.001464,0.032696,1.006744,-0.560000,-0.420000,-0.420000
49.715464,-0.012688,0.014640,1.000888,-0.560000,-0.280000,-0.560000
49.719530,-0.007808,0.026840,1.001376,-0.560000,-0.280000,-0.140000
49.723596,-0.014152,0.040992,1.002840,-0.560000,-0.280000,-0.280000
49.727662,-0.005368,0.017080,1.011136,-0.280000,-0.420000,-0.560000
49.731728,-0.008296,0.034648,1.010648,-0.700000,-0.700000,-0.140000
49.735795,0.009272,0.030744,0.999424,-0.840000,-0.140000,-0.560000
49.739861,-0.019520,0.021960,1.001376,-0.560000,-0.140000,-0.280000
49.743927,-0.011224,0.022448,1.003328,-0.420000,-0.980000,-0.420000
49.747993,-0.011224,0.027816,1.019432,-0.560000,-0.420000,-0.420000
49.752059,-0.000976,0.036112,0.988200,-0.700000,-0.280000,-0.280000
49.756126,-0.018056,0.030256,1.021384,-0.560000,-0.560000,-0.280000
49.760192,-0.001952,0.035136,0.999424,-0.420000,-0.420000,-0.560000
49.764258,-0.005856,0.022936,1.005280,-0.700000,-0.420000,-0.420000
49.768324,-0.002440,0.026840,1.000400,-0.560000,-0.420000,-0.280000
49.772390,-0.008784,0.026840,1.023824,-0.420000,-0.420000,-0.560000
49.776456,-0.017080,0.023424,0.994056,-0.420000,-0.700000,-0.280000
49.780523,-0.008296,0.031232,0.997472,-0.700000,-0.420000,-0.280000
49.784589,0.006344,0.033672,1.031632,-0.560000,-0.140000,-0.420000
49.788655,-0.010736,0.032696,0.995520,-0.420000,-0.420000,-0.420000
49.792721,-0.010736,0.021960,1.002840,-0.560000,-0.420000,-0.280000
49.796787,-0.005856,0.012688,1.001376,-0.560000,-0.280000,-0.280000
49.800854,-0.009760,0.046360,1.008696,-0.420000,-0.560000,-0.560000
49.804920,-0.013176,0.028792,1.003328,-0.700000,-0.560000,-0.280000
49.808986,0.004880,0.021960,1.014064,-0.560000,-0.560000,-0.420000
49.813052,-0.022448,0.024400,0.997472,-0.560000,-0.700000,-0.280000
49.817118,-0.007320,0.034648,1.017968,-0.700000,-0.140000,-0.420000
49.821184,-0.000488,0.014640,1.008696,-0.700000,-0.560000,-0.280000
49.825251,-0.011712,0.036112,1.007232,-0.420000,-0.280000,-0.420000
49.829317,-0.013176,0.037088,0.981856,-0.560000,-0.280000,-0.420000
49.833383,0.004392,0.031232,1.025776,-0.700000,-0.560000,-0.280000
49.837449,-0.010736,0.023912,0.998936,-0.420000,-0.420000,-0.420000
49.841515,-0.008296,0.022936,1.012112,-0.840000,-0.280000,-0.420000
49.845582,-0.012688,0.024888,0.996496,-0.420000,-0.280000,-0.280000
49.849648,-0.011712,0.037088,1.016992,-0.420000,-0.280000,-0.560000
49.853714,-0.009760,0.033672,1.007232,-0.560000,-0.280000,-0.420000
49.857780,0.000000,0.027328,0.993568,-0.560000,-0.420000,-0.140000
49.861846,-0.003904,0.028304,1.008696,-0.560000,-0.420000,-0.420000
49.865912,-0.005856,0.019520,1.008696,-0.700000,-0.560000,-0.140000
49.869979,-0.018544,0.027328,1.016016,-0.560000,-0.560000,-0.420000
49.874045,0.000976,0.032208,1.013576,-0.420000,-0.280000,-0.420000
49.878111,-0.021472,0.018544,0.985272,-0.700000,-0.280000,-0.420000
49.882177,-0.005368,0.040504,1.012600,-0.560000,-0.700000,-0.280000
49.886243,-0.013176,0.032696,1.003816,-0.840000,-0.140000,-0.560000
49.890310,0.005856,0.022448,1.017968,-0.700000,-0.700000,-0.280000
49.894376,-0.010736,0.023912,1.000400,-0.560000,-0.420000,-0.560000
49.898442,-0.000488,0.031720,1.007720,-0.700000,-0.420000,-0.280000
49.902508,-0.010736,0.029768,1.001376,-0.560000,-0.140000,-0.280000
49.906574,-0.015128,0.027816,0.998448,-0.560000,-0.280000,-0.420000
49.910640,-0.016592,0.027816,1.017968,-0.560000,-0.700000,-0.280000
49.914707,-0.000976,0.041968,1.002352,-0.840000,-0.560000,-0.280000
49.918773,-0.004392,0.012688,1.004792,-0.840000,-0.560000,-0.420000
49.922839,-0.004392,0.027328,1.018944,-0.700000,0.000000,-0.140000
49.926905,-0.004392,0.030256,0.994056,-0.280000,-0.420000,-0.420000
49.930971,-0.020008,0.039528,1.016016,-0.700000,-0.280000,-0.700000
49.935038,-0.008296,0.022936,0.988200,-0.700000,-0.560000,-0.140000
49.939104,-0.005856,0.031720,1.023336,-0.840000,-0.840000,-0.560000
49.943170,-0.005856,0.026840,0.995520,-0.560000,0.000000,-0.280000
49.947236,0.000976,0.022936,1.004304,-0.560000,-0.420000,-0.280000
49.951302,-0.007320,0.028304,1.008696,-0.280000,-0.140000,-0.420000
49.955368,-0.016104,0.020984,1.002840,-0.560000,-0.420000,-0.560000
49.959435,-0.012200,0.032208,1.016016,-0.560000,-0.700000,-0.140000
49.963501,0.005368,0.032208,1.004792,-0.980000,-0.560000,-0.560000
49.967567,-0.011712,0.037576,1.008208,-0.980000,-0.280000,-0.140000
49.971633,-0.010248,0.018544,0.997472,-0.280000,-0.560000,-0.140000
49.975699,-0.011224,0.022448,1.022848,-0.420000,-0.420000,-0.560000
49.979766,-0.015616,0.025376,0.981856,-0.700000,-0.140000,-0.420000
49.983832,-0.000488,0.041480,1.021384,-0.560000,-0.420000,-0.420000
49.987898,-0.007320,0.024888,0.994544,-0.840000,-0.700000,-0.280000
49.991964,-0.007808,0.027816,1.015040,-0.560000,-0.420000,-0.280000
49.996030,-0.008296,0.024400,0.995032,-0.420000,-0.560000,-0.280000
50.000096,-0.002928,0.036112,1.031632,-0.840000,-0.280000,-0.280000
50.004163,-0.010736,0.032696,0.995032,-0.280000,-0.280000,-0.420000
50.008229,-0.015616,0.029768,1.002352,-0.700000,-0.840000,-0.420000
50.012295,-0.003416,0.018544,0.998448,-0.840000,-0.140000,-0.280000
50.016361,-0.015128,0.030744,1.013088,-0.420000,-0.840000,-0.560000
50.020427,-0.001952,0.029280,1.005768,-0.700000,-0.280000,-0.140000
50.024494,-0.000488,0.018056,1.010160,-0.560000,-0.560000,-0.420000
50.028560,-0.016104,0.029768,1.011136,-0.280000,0.000000,-0.140000
50.032626,-0.009272,0.038552,0.991616,-0.700000,-0.560000,-0.700000
50.036692,-0.009272,0.037576,1.019920,-0.700000,-0.280000,-0.420000
50.040758,-0.001464,0.019032,0.993080,-0.420000,-0.980000,-0.420000
50.044824,-0.013176,0.020008,1.010648,-0.700000,-0.140000,-0.280000
50.048891,0.001464,0.028304,0.998936,-0.280000,-0.280000,-0.280000
50.052957,-0.012200,0.040016,1.012112,-0.420000,-0.280000,-0.420000
50.057023,-0.010248,0.020008,1.007232,-0.560000,-0.280000,-0.560000
50.061089,-0.007808,0.029280,1.006256,-0.840000,-0.420000,-0.140000
50.065155,-0.011224,0.030256,0.997472,-0.560000,-0.840000,-0.420000
50.069222,-0.011712,0.026352,1.018944,-0.700000,-0.140000,-0.420000
50.073288,-0.000976,0.024400,1.013576,-0.280000,-0.700000,-0.280000
50.077354,-0.004392,0.028304,1.012112,-0.840000,-0.280000,-0.420000
50.081420,-0.007320,0.029768,0.989176,-0.420000,-0.140000,-0.560000
50.085486,-0.011712,0.025864,1.008696,-0.700000,-0.560000,-0.140000
50.089552,-0.003904,0.032208,1.002840,-0.560000,-0.420000,-0.420000
50.093619,-0.022448,0.032696,1.007232,-0.420000,-0.420000,-0.420000
50.097685,0.003904,0.030256,1.008208,-0.560000,-0.560000,-0.420000
50.101751,-0.000488,0.019520,1.012600,-0.700000,-0.280000,-0.280000
50.105817,-0.009760,0.042944,0.998936,-0.140000,-0.140000,-0.420000
50.109883,-0.020496,0.016592,1.001864,-0.840000,-0.420000,-0.280000
50.113950,-0.005856,0.025864,1.017968,-0.700000,-0.420000,-0.420000
50.118016,-0.018544,0.031232,0.989176,-0.560000,-0.420000,-0.280000
50.122082,-0.004392,0.032696,1.018944,-0.560000,-0.840000,-0.280000
50.126148,-0.003416,0.013176,1.003816,-0.700000,-0.280000,-0.280000
50.130214,0.003416,0.029280,1.012600,-0.700000,-0.280000,-0.280000
50.134280,-0.018056,0.035136,0.986736,-0.700000,-0.280000,-0.420000
50.138347,-0.012200,0.031720,1.029680,-0.560000,-0.280000,-0.280000
50.142413,-0.008296,0.030744,0.998448,-0.560000,-0.840000,-0.420000
50.146479,0.007320,0.033672,1.017968,-0.840000,-0.280000,-0.140000
50.150545,-0.008784,0.026840,0.990640,-0.280000,-0.280000,-0.420000
50.154611,-0.001464,0.020008,1.005768,-0.420000,-0.280000,-0.420000
50.158678,-0.007320,0.020984,1.005768,-0.700000,0.140000,-0.560000
50.162744,-0.014640,0.028792,1.010160,-0.700000,-0.840000,-0.420000
50.166810,-0.007808,0.033184,1.007232,-0.560000,-0.420000,-0.560000
50.170876,-0.014152,0.030744,1.007232,-0.700000,-0.560000,-0.280000
50.174942,-0.017080,0.038552,1.013576,-0.420000,-0.700000,-0.280000
50.179008,-0.000488,0.020496,1.011136,-0.700000,-0.420000,-0.280000
50.183075,-0.019032,0.018056,0.999912,-0.840000,-0.140000,-0.560000
50.187141,-0.006832,0.044408,1.001376,-0.840000,-0.420000,-0.280000
50.191207,0.000000,0.021960,1.010160,-0.420000,-0.560000,-0.560000
50.195273,-0.011224,0.028792,1.005280,-0.560000,-0.420000,-0.280000
50.199339,-0.006344,0.027816,0.997472,-0.560000,-0.840000,-0.280000
50.203406,-0.001464,0.033184,1.023824,-0.700000,0.140000,-0.280000
50.207472,-0.004392,0.021472,0.992104,-0.700000,-0.560000,-0.280000
50.211538,-0.023912,0.035624,1.013576,-0.980000,-0.700000,-0.280000
50.215604,0.003904,0.016592,0.986736,-0.280000,-0.280000,-0.560000
50.219670,-0.012688,0.032208,1.016016,-0.560000,-0.840000,-0.420000
50.223736,-0.003416,0.029768,1.006744,-0.420000,0.000000,-0.420000
50.227803,-0.013176,0.028792,1.019432,-0.420000,-0.700000,-0.280000
50.231869,-0.005368,0.031720,1.010160,-0.700000,-0.140000,-0.280000
50.235935,-0.006344,0.024888,0.993080,-0.840000,-0.420000,-0.560000
50.240001,-0.017080,0.033672,1.017968,-0.560000,-0.560000,-0.280000
50.244067,-0.000976,0.028304,0.989664,-0.700000,-0.700000,-0.280000
50.248134,-0.006832,0.018056,1.013576,-0.420000,-0.140000,-0.420000
50.252200,-0.009272,0.033672,0.992592,-0.420000,-0.420000,-0.140000
50.256266,-0.009760,0.042456,1.015528,-0.560000,-0.420000,-0.420000
50.260332,-0.003904,0.020008,1.007720,-0.700000,-0.140000,-0.420000
50.264398,-0.009272,0.021472,1.003816,-0.560000,-0.560000,-0.280000
50.268464,0.003904,0.026840,0.999424,-0.280000,-0.420000,-0.560000
50.272531,-0.018544,0.025376,1.011624,-0.420000,-0.140000,-0.420000
50.276597,-0.007320,0.030744,1.005768,-0.560000,-0.840000,-0.140000
50.280663,-0.005368,0.027816,1.023824,-0.700000,-0.280000,-0.560000
50.284729,-0.009760,0.028792,0.990640,-0.560000,-0.560000,-0.140000
50.288795,-0.012688,0.034160,1.029680,-0.840000,-0.560000,-0.280000
50.292862,-0.006344,0.028792,0.995520,-0.420000,-0.140000,-0.420000
50.296928,-0.020984,0.025864,1.003328,-0.420000,-0.700000,-0.420000
50.300994,0.004880,0.031232,1.003328,-0.280000,-0.420000,-0.420000
50.305060,0.001464,0.025864,1.017480,-0.980000,-0.140000,-0.420000
50.309126,-0.010736,0.042456,0.995032,-0.700000,-0.140000,-0.140000
50.313192,-0.006832,0.022936,1.002840,-0.420000,-0.560000,-0.560000
50.317259,-0.002928,0.007808,1.005280,-0.700000,-0.140000,-0.280000
50.321325,-0.017080,0.034648,1.003816,-0.560000,-0.560000,-0.420000
50.325391,-0.013176,0.041480,1.009672,-0.560000,-0.560000,-0.560000
50.329457,0.002928,0.019520,1.004792,-0.560000,-0.560000,-0.140000
50.333523,-0.007808,0.026352,1.015528,-0.840000,-0.420000,-0.280000
50.337590,-0.016592,0.027328,0.990640,-0.700000,-0.420000,-0.420000
50.341656,-0.001464,0.028304,1.020896,-0.700000,-0.420000,-0.280000
50.345722,0.002928,0.021960,1.003328,-0.560000,-0.420000,-0.560000
50.349788,-0.019520,0.035624,1.011624,-0.560000,0.000000,-0.420000
50.353854,-0.004880,0.032696,0.994056,-0.560000,-0.700000,-0.140000
50.357920,-0.009272,0.030256,1.024312,-0.700000,-0.140000,-0.560000
50.361987,-0.005856,0.017568,0.993568,-0.700000,-0.280000,-0.420000
50.366053,-0.016104,0.034160,1.014064,-0.840000,-0.560000,-0.420000
50.370119,-0.000976,0.028792,0.996496,-0.140000,-0.560000,-0.700000
50.374185,-0.011224,0.030256,1.014552,-0.700000,-0.700000,-0.280000
50.378251,0.000488,0.027328,1.002352,-0.560000,-0.280000,-0.280000
50.382318,-0.005856,0.026840,1.006256,-0.700000,-0.420000,-0.420000
50.386384,-0.018544,0.021472,1.000888,-0.980000,-0.140000,-0.140000
50.390450,-0.008784,0.028792,1.004792,-0.420000,-0.840000,-0.420000
50.394516,-0.002928,0.028792,1.002840,-0.700000,-0.280000,-0.420000
50.398582,-0.007808,0.040016,1.016992,-0.280000,-0.560000,-0.420000
50.402648,-0.009760,0.022448,0.997472,-0.700000,-0.420000,-0.420000
50.406715,-0.009272,0.030744,1.015528,-0.980000,-0.140000,-0.280000
50.410781,-0.001952,0.039528,0.996496,-0.560000,-0.560000,-0.280000
50.414847,-0.006832,0.017568,1.009672,-0.420000,-0.840000,-0.280000
50.418913,-0.003416,0.020496,1.012112,-0.700000,-0.280000,-0.420000
50.422979,-0.012200,0.037088,0.994056,-0.420000,-0.980000,-0.420000
50.427046,-0.014640,0.028304,1.019920,-0.700000,0.420000,-0.420000
50.431112,-0.001464,0.013664,0.998936,-0.560000,-0.840000,-0.280000
50.435178,-0.015616,0.043920,1.020896,-0.700000,0.000000,-0.280000
50.439244,-0.013664,0.028792,0.986248,-0.280000,-0.980000,-0.560000
50.443310,-0.001464,0.027328,1.025776,-0.700000,-0.560000,-0.280000
50.447376,-0.000488,0.024400,0.996008,-0.560000,-0.560000,-0.280000
50.451443,-0.015128,0.033672,1.003816,-0.840000,0.140000,-0.420000
50.455509,-0.013664,0.023912,1.002352,-0.420000,-0.280000,-0.280000
50.459575,-0.009272,0.025376,1.005768,-0.560000,-0.560000,-0.420000
50.463641,-0.000488,0.032696,1.007720,-0.560000,-0.280000,-0.420000
50.467707,-0.003904,0.031720,1.005280,-0.560000,-0.700000,-0.140000
50.471774,-0.003904,0.020496,1.005280,-0.700000,-0.280000,-0.420000
50.475840,-0.007320,0.030744,1.003816,-0.560000,0.140000,-0.280000
50.479906,-0.015128,0.036112,0.998936,-0.280000,-0.560000,-0.280000
50.483972,-0.014152,0.022936,1.032120,-0.700000,-0.560000,-0.420000
50.488038,-0.002440,0.022936,0.991616,-0.420000,-0.560000,-0.560000
50.492104,-0.016104,0.032696,1.006744,-0.700000,-0.700000,-0.140000
50.496171,0.007320,0.022448,1.013088,-0.700000,0.280000,-0.420000
50.500237,-0.021472,0.029768,1.005768,-0.140000,-0.560000,-0.420000
50.504303,-0.009272,0.039528,1.011624,-0.560000,-0.420000,-0.420000
50.508369,-0.003904,0.026840,0.990640,-0.840000,-0.840000,-0.140000
50.512435,0.002928,0.032696,1.014064,-0.560000,-0.280000,-0.280000
50.516501,-0.016104,0.027816,0.996008,-0.560000,-0.280000,-0.280000
50.520568,0.001952,0.032208,1.013088,-0.560000,0.000000,-0.420000
50.524634,-0.012688,0.015128,0.999424,-0.140000,-0.420000,-0.560000
50.528700,-0.010248,0.028304,1.008208,-0.560000,-0.420000,-0.420000
50.532766,-0.002440,0.031720,1.014064,-0.560000,-0.560000,-0.420000
50.536832,-0.013176,0.030256,1.000400,-0.560000,-0.420000,-0.280000
50.540899,-0.012688,0.021472,1.006744,-0.980000,-0.560000,-0.420000
50.544965,0.002440,0.028792,1.015528,-0.420000,-0.420000,-0.280000
50.549031,-0.010736,0.037576,1.005280,-0.700000,-0.560000,-0.280000
50.553097,-0.009272,0.024888,1.014552,-0.700000,-0.280000,-0.280000
50.557163,-0.011712,0.026352,0.989664,-0.280000,-0.560000,-0.420000
50.561229,-0.012688,0.030744,1.015528,-0.700000,-0.140000,-0.280000
50.565296,-0.005856,0.036112,0.994056,-0.840000,-0.280000,-0.420000
50.569362,-0.005856,0.016104,1.014552,-0.560000,-0.560000,-0.280000
50.573428,-0.005368,0.030256,0.996008,-0.700000,-0.420000,-0.420000
50.577494,-0.004392,0.025376,1.011136,-0.420000,-0.560000,-0.420000
50.581560,-0.006832,0.032696,1.009672,-0.700000,-0.700000,-0.140000
50.585627,-0.010248,0.021960,1.011136,-0.980000,-0.140000,-0.280000
50.589693,-0.019032,0.024400,0.997472,-0.840000,-0.280000,-0.280000
50.593759,-0.012688,0.036600,1.002352,-0.420000,-0.700000,-0.280000
50.597825,0.003904,0.024888,1.016992,-0.560000,-0.700000,-0.280000
50.601891,-0.002928,0.034160,1.011136,-0.700000,-0.280000,-0.560000
50.605957,-0.009760,0.031232,1.000400,-0.560000,-0.840000,-0.420000
50.610024,-0.005368,0.021472,1.011624,-0.840000,0.280000,-0.420000
50.614090,-0.006344,0.027816,0.993080,-0.420000,-0.700000,-0.280000
50.618156,-0.020008,0.045872,1.012112,-0.700000,-0.280000,-0.420000
50.622222,0.003416,0.016592,1.004792,-0.420000,-0.420000,-0.420000
50.626288,-0.013176,0.024400,1.010648,-0.700000,-0.840000,-0.420000
50.630355,-0.000976,0.020496,0.993080,-1.120000,0.000000,-0.280000
50.634421,-0.004392,0.024888,1.023336,-0.560000,-0.420000,-0.280000
50.638487,-0.016104,0.031720,0.996984,-0.560000,-0.420000,-0.140000
50.642553,-0.008784,0.046848,1.008696,-0.280000,-0.980000,-0.420000
50.646619,-0.015128,0.027328,1.007232,-0.420000,-0.420000,-0.280000
50.650685,0.006344,0.020496,1.003816,-0.840000,-0.700000,-0.280000
50.654752,-0.016104,0.027328,1.000400,-0.700000,0.280000,-0.560000
50.658818,-0.008784,0.019032,1.001376,-0.560000,-0.560000,-0.280000
50.662884,-0.006344,0.030256,1.014064,-0.560000,-0.280000,-0.420000
50.666950,-0.006832,0.028304,1.000888,-0.420000,-0.420000,-0.420000
50.671016,-0.007808,0.037088,1.013576,-0.560000,-0.840000,-0.140000
50.675083,0.003904,0.027328,1.002352,-0.700000,-0.280000,-0.420000
50.679149,-0.007320,0.025864,1.017968,-0.700000,-0.140000,-0.420000
50.683215,-0.015616,0.023912,0.998936,-0.700000,-0.560000,-0.140000
50.687281,-0.006832,0.039040,1.013576,-0.280000,-0.420000,-0.420000
50.691347,-0.010736,0.022936,1.006744,-0.280000,-0.420000,-0.420000
50.695413,-0.019520,0.034648,1.003328,-0.700000,-0.560000,-0.280000
50.699480,0.003904,0.025864,1.008696,-0.700000,0.000000,-0.420000
50.703546,-0.008784,0.029768,1.006744,-0.420000,-0.560000,-0.560000
50.707612,-0.013176,0.019032,0.997960,-0.700000,-0.280000,-0.140000
50.711678,-0.003904,0.025376,1.012112,-0.420000,-0.700000,-0.560000
50.715744,-0.011712,0.038064,1.001376,-0.420000,-0.140000,-0.280000
50.719811,-0.000488,0.035136,1.008208,-0.560000,-0.840000,-0.280000
50.723877,-0.012200,0.023912,1.008208,-0.700000,0.140000,-0.280000
50.727943,-0.008296,0.032696,1.007232,-0.420000,-0.840000,-0.280000
50.732009,-0.011712,0.021960,0.992104,-0.420000,-0.140000,-0.420000
50.736075,0.001464,0.019032,1.015528,-0.560000,-0.420000,-0.420000
50.740141,-0.016592,0.040016,1.005280,-0.560000,-0.420000,-0.280000
50.744208,-0.005856,0.027816,1.002352,-0.560000,-0.280000,-0.560000
50.748274,-0.012688,0.025864,1.010648,-0.560000,-0.560000,-0.280000
50.752340,0.000488,0.027328,1.001864,-0.700000,-0.700000,-0.280000
50.756406,-0.011712,0.026840,1.010648,-0.700000,-0.140000,-0.420000
50.760472,-0.007808,0.025376,1.005768,-0.420000,-0.840000,-0.420000
50.764539,-0.011712,0.032208,1.016016,-0.700000,0.000000,-0.280000
50.768605,-0.007320,0.029768,0.980392,-0.560000,0.000000,-0.560000
50.772671,-0.014152,0.032208,1.020408,-0.280000,-0.980000,-0.140000
50.776737,0.004392,0.029768,0.992592,-0.700000,-0.140000,-0.420000
50.780803,-0.007320,0.025864,1.018944,-0.840000,-0.700000,-0.420000
50.784869,-0.015616,0.028792,0.998448,-0.280000,-0.420000,-0.420000
50.788936,0.007320,0.021472,1.020896,-0.840000,-0.420000,-0.280000
50.793002,-0.011712,0.025376,1.010160,-0.560000,-0.140000,-0.420000
50.797068,-0.024888,0.038064,0.987712,-0.420000,-0.700000,-0.280000
50.801134,0.001464,0.032696,1.010648,-0.560000,-0.700000,-0.280000
50.805200,-0.004392,0.020984,1.009672,-1.120000,-0.420000,-0.420000
50.809267,-0.011712,0.026352,1.007232,-0.560000,-0.560000,-0.280000
50.813333,-0.003904,0.026840,1.012112,-0.700000,0.140000,-0.420000
50.817399,-0.012200,0.027816,0.997472,-0.420000,-0.280000,-0.420000
50.821465,-0.018056,0.039040,1.005768,-0.280000,-0.700000,-0.420000
50.825531,0.000976,0.032208,1.009184,-0.840000,-0.420000,-0.420000
50.829597,-0.005856,0.023912,0.999912,-1.120000,-0.700000,-0.420000
50.833664,-0.004880,0.020008,1.010160,-0.700000,0.140000,-0.280000
50.837730,-0.002928,0.025376,1.001864,-0.560000,-0.420000,-0.420000
50.841796,-0.015616,0.039040,1.019920,-0.280000,-0.280000,-0.280000
50.845862,-0.007320,0.026840,0.995520,-0.420000,-0.560000,-0.560000
50.849928,-0.010248,0.037088,1.026752,-0.980000,-0.560000,-0.280000
50.853995,-0.003416,0.030256,0.990640,-0.560000,-0.420000,-0.420000
50.858061,-0.010248,0.015128,1.006744,-0.980000,0.000000,-0.420000
50.862127,-0.012688,0.023424,1.009184,-0.280000,-0.560000,-0.140000
50.866193,-0.011712,0.025376,1.010160,-0.280000,-0.420000,-0.560000
50.870259,-0.010248,0.038552,0.998448,-0.420000,-0.420000,-0.420000
50.874325,-0.002928,0.025864,0.999424,-0.980000,-0.560000,-0.280000
50.878392,-0.007808,0.035624,1.005768,-0.980000,-0.140000,-0.420000
50.882458,-0.009760,0.024888,1.005280,-0.560000,-0.280000,-0.280000
50.886524,0.001952,0.020496,1.009184,-0.140000,-0.980000,-0.420000
50.890590,-0.005856,0.025376,1.016992,-0.700000,-0.140000,-0.420000
50.894656,-0.016104,0.028792,1.001376,-0.560000,-0.560000,-0.420000
50.898722,-0.017568,0.042456,1.019920,-0.700000,-0.420000,-0.420000
50.902789,0.007320,0.017080,0.998936,-0.840000,0.000000,-0.420000
50.906855,-0.018056,0.037088,1.016504,-0.700000,-0.700000,-0.280000
50.910921,-0.004880,0.027816,0.988688,-0.280000,-0.420000,-0.280000
50.914987,-0.003904,0.020984,1.016504,-0.700000,-0.700000,-0.280000
50.919053,-0.002928,0.032696,0.995032,-0.420000,-0.140000,-0.420000
50.923120,-0.010736,0.036112,1.010648,-0.560000,-0.140000,-0.420000
50.927186,-0.010736,0.026352,1.009184,-0.560000,-0.280000,-0.560000
50.931252,-0.014152,0.020984,1.004304,-0.420000,-0.980000,-0.420000
50.935318,-0.002928,0.034160,1.004792,-0.700000,-0.280000,-0.420000
50.939384,0.003416,0.025864,1.010648,-0.560000,-0.560000,-0.140000
50.943450,-0.015128,0.029280,1.010160,-0.140000,0.000000,-0.560000
50.947517,-0.007320,0.024888,0.984296,-0.560000,-0.280000,-0.280000
50.951583,-0.013664,0.036600,1.024800,-0.700000,-0.420000,-0.420000
50.955649,-0.002928,0.030744,0.994056,-0.420000,-0.980000,-0.280000
50.959715,-0.018056,0.029280,1.017968,-0.840000,-0.140000,-0.280000
50.963781,-0.000976,0.020496,0.992592,-0.560000,-0.560000,-0.280000
50.967848,-0.011224,0.028304,1.024312,-0.560000,-0.280000,-0.560000
50.971914,-0.002928,0.027816,0.984296,-0.560000,0.140000,-0.420000
50.975980,-0.020984,0.030744,1.016992,-0.420000,-0.840000,-0.420000
50.980046,-0.002928,0.032696,0.982832,-0.560000,-0.140000,-0.280000
50.984112,-0.006832,0.025864,1.029192,-0.560000,-0.700000,-0.560000
50.988178,-0.007320,0.020984,0.999912,-0.560000,-0.280000,-0.140000
50.992245,-0.003904,0.023912,1.014552,-0.700000,-0.700000,-0.420000
50.996311,-0.013664,0.024400,1.006256,-0.560000,0.140000,-0.280000
51.000377,-0.016104,0.031232,1.000400,-0.420000,-1.120000,-0.280000
51.004443,-0.005856,0.037088,1.006256,-1.120000,-0.140000,-0.140000
51.008509,0.000488,0.031232,1.004792,-0.280000,-0.700000,-0.560000
51.012576,-0.011712,0.027328,1.010160,-0.980000,0.000000,-0.140000
51.016642,-0.000976,0.020496,1.005280,-0.420000,-0.280000,-0.280000
51.020708,-0.004880,0.038064,1.001376,-0.420000,0.140000,-0.560000
51.024774,-0.012200,0.026352,1.007232,-0.560000,-0.840000,-0.140000
51.028840,-0.007320,0.023424,1.008208,-0.980000,-0.140000,-0.560000
51.032906,-0.009760,0.028304,0.992104,-0.280000,-0.980000,-0.420000
51.036973,-0.008296,0.032208,1.006744,-1.120000,0.140000,-0.280000
51.041039,-0.002928,0.021960,1.029680,-0.280000,-0.560000,-0.560000
51.045105,-0.017568,0.030744,1.003328,-0.420000,-0.420000,-0.280000
51.049171,0.005368,0.033184,0.999912,-0.700000,-0.420000,-0.420000
51.053237,-0.018544,0.025376,1.020408,-0.980000,-0.420000,-0.420000
51.057304,-0.006832,0.034648,1.006744,-0.560000,-0.560000,-0.280000
51.061370,-0.006832,0.022936,0.995032,-0.840000,-0.560000,-0.280000
51.065436,-0.012200,0.028792,1.021384,-0.560000,-0.280000,-0.280000
51.069502,-0.001952,0.024888,0.997960,-0.140000,-0.700000,-0.280000
51.073568,-0.009272,0.033672,1.003328,-0.840000,-0.140000,-0.560000
51.077634,-0.003416,0.024400,0.998936,-0.560000,-0.420000,-0.280000
51.081701,-0.010248,0.030256,1.006256,-0.840000,-0.280000,-0.420000
51.085767,-0.008784,0.030256,1.008696,-0.280000,-0.560000,-0.280000
51.089833,-0.018056,0.027328,0.998936,-0.700000,-0.560000,-0.280000
51.093899,0.007320,0.031232,1.020408,-0.420000,-0.560000,-0.280000
51.097965,-0.003904,0.017568,1.011136,-0.840000,0.000000,-0.420000
51.102032,-0.017080,0.038064,1.005280,-0.700000,-0.700000,-0.140000
51.106098,-0.003904,0.023912,0.998448,-0.560000,-0.140000,-0.420000
51.110164,-0.016592,0.029280,1.019920,-0.280000,-0.840000,-0.420000
51.114230,-0.007808,0.027328,0.992104,-0.700000,-0.280000,-0.140000
51.118296,-0.002928,0.029280,1.013088,-0.700000,-0.420000,-0.280000
51.122362,-0.002440,0.033184,1.008696,-0.700000,-0.140000,-0.280000
51.126429,-0.013176,0.030256,1.003328,-0.560000,-0.700000,-0.420000
51.130495,-0.000488,0.020984,1.007232,-0.420000,-0.420000,-0.280000
51.134561,-0.018056,0.028792,1.003328,-0.700000,-0.420000,-0.560000
51.138627,-0.012200,0.032696,1.009184,-0.700000,0.000000,-0.280000
51.142693,-0.006344,0.030256,1.008696,-0.560000,-0.420000,-0.280000
51.146760,-0.000488,0.027328,1.005280,-0.700000,-0.140000,-0.280000
51.150826,-0.009272,0.025864,1.002840,-0.280000,-0.280000,-0.560000
51.154892,-0.007808,0.026352,1.005280,-0.560000,-0.420000,-0.420000
51.158958,-0.002440,0.028792,1.007720,-0.700000,-0.560000,-0.560000
51.163024,-0.002928,0.025376,0.993568,-0.700000,0.140000,-0.140000
51.167090,-0.021960,0.030744,1.025288,-0.700000,-0.700000,-0.280000
51.171157,-0.007808,0.028792,1.015040,-0.560000,-0.280000,-0.280000
51.175223,-0.007808,0.021472,0.984784,-0.560000,-0.420000,-0.560000
51.179289,-0.016592,0.042944,1.023336,-0.700000,-0.420000,-0.140000
51.183355,-0.000976,0.030256,1.000888,-0.420000,-0.280000,-0.560000
51.187421,-0.019032,0.028304,1.004792,-0.560000,-0.560000,-0.420000
51.191488,0.001464,0.022936,0.989176,-0.420000,-0.700000,-0.280000
51.195554,-0.006832,0.027328,1.030168,-0.980000,-0.280000,-0.280000
51.199620,-0.001952,0.033672,0.998936,-0.700000,-0.140000,-0.420000
51.203686,-0.017568,0.029768,1.000400,-0.700000,-0.560000,-0.280000
51.207752,0.002440,0.019032,1.003816,-0.420000,-0.140000,-0.420000
51.211818,-0.018056,0.028792,1.004304,-0.560000,-0.700000,-0.560000
51.215885,0.000000,0.034160,1.009184,-0.700000,-0.280000,-0.280000
51.219951,-0.001464,0.019520,1.000888,-0.700000,-0.280000,-0.140000
51.224017,-0.012688,0.022936,1.020896,-0.420000,-0.420000,-0.560000
51.228083,-0.019520,0.032696,0.987224,-0.700000,-0.420000,-0.420000
51.232149,0.004880,0.038552,1.019920,-0.700000,0.000000,-0.420000
51.236216,-0.012200,0.027816,1.003328,-0.700000,-0.840000,-0.420000
51.240282,-0.011224,0.023912,0.998448,-0.420000,-0.280000,-0.140000
51.244348,-0.005856,0.030744,0.990152,-0.700000,-0.420000,-0.420000
51.248414,-0.006832,0.031720,1.030656,-0.700000,-0.420000,-0.280000
51.252480,-0.004392,0.023912,0.996984,-0.560000,-0.140000,-0.420000
51.256546,-0.006832,0.018544,1.020408,-0.560000,-0.700000,-0.420000
51.260613,-0.002928,0.034160,0.989664,-0.420000,-0.280000,-0.420000
51.264679,-0.019032,0.030744,1.011624,-0.560000,-0.420000,-0.420000
51.268745,-0.011224,0.028304,1.011136,-0.560000,-0.560000,-0.280000
51.272811,-0.006832,0.031720,1.012112,-0.840000,-0.700000,-0.420000
51.276877,-0.011224,0.025376,0.986736,-0.700000,0.000000,-0.420000
51.280943,-0.005856,0.025376,1.016504,-0.560000,-0.700000,-0.420000
51.285010,-0.000976,0.024888,1.003816,-0.700000,-0.280000,-0.280000
51.289076,-0.014640,0.034648,1.014064,-0.560000,-0.280000,-0.420000
51.293142,-0.006344,0.025864,1.008696,-0.420000,-0.700000,-0.420000
51.297208,-0.009272,0.036600,1.001376,-0.840000,0.000000,-0.140000
51.301274,0.002440,0.033184,0.994056,-0.560000,-0.420000,-0.280000
51.305341,-0.014640,0.025376,1.021384,-0.560000,-0.560000,-0.420000
51.309407,-0.003904,0.010248,1.000400,-0.280000,-0.420000,-0.280000
51.313473,-0.007808,0.028792,1.002352,-0.700000,-0.420000,-0.700000
51.317539,-0.014640,0.032208,1.014552,-0.560000,-0.280000,-0.280000
51.321605,-0.004880,0.032696,1.010648,-0.560000,-0.700000,-0.280000
51.325671,-0.014640,0.024400,1.006744,-0.560000,-0.280000,-0.420000
51.329738,0.004392,0.040504,0.994056,-0.700000,-0.700000,-0.140000
51.333804,-0.016592,0.022448,1.016016,-0.700000,-0.140000,-0.420000
51.337870,-0.003904,0.023912,1.009672,-0.560000,-0.840000,-0.280000
51.341936,-0.021472,0.029768,0.984784,-0.560000,0.000000,-0.420000
51.346002,0.001464,0.031232,1.018944,-0.560000,-0.420000,-0.280000
51.350069,-0.019520,0.030256,1.007232,-0.560000,-0.700000,-0.560000
51.354135,0.013664,0.017568,0.999424,-0.700000,-0.280000,-0.140000
51.358201,-0.014152,0.027328,1.011624,-0.560000,-0.280000,-0.560000
51.362267,-0.007808,0.030256,1.007720,-0.420000,-0.560000,-0.280000
51.366333,-0.011712,0.026840,1.001864,-0.840000,-0.280000,-0.560000
51.370399,-0.008296,0.024888,1.000888,-0.560000,-0.700000,-0.280000
51.374466,-0.013176,0.033184,1.029680,-0.560000,-0.280000,-0.280000
51.378532,-0.004392,0.022448,0.992592,-0.280000,-0.560000,-0.280000
51.382598,-0.018056,0.023424,1.007720,-0.700000,-0.560000,-0.280000
51.386664,0.008296,0.040992,1.009184,-0.560000,0.000000,-0.280000
51.390730,-0.010736,0.022448,1.002352,-0.560000,-0.700000,-0.560000
51.394797,-0.006832,0.037088,1.008208,-0.560000,0.000000,-0.280000
51.398863,-0.001464,0.026352,0.996496,-0.560000,-0.560000,-0.280000
51.402929,-0.004880,0.031232,1.032608,-0.840000,0.000000,-0.280000
51.406995,-0.022448,0.022936,0.987712,-0.280000,-0.980000,-0.420000
51.411061,0.000000,0.026840,1.008208,-0.840000,-0.140000,-0.560000
51.415127,-0.004880,0.015128,1.004304,-0.700000,-0.700000,-0.420000
51.419194,-0.007320,0.040504,1.007720,-0.700000,-0.140000,-0.280000
51.423260,-0.010736,0.031232,1.014064,-0.420000,-0.420000,-0.280000
51.427326,-0.003416,0.028792,0.996008,-0.560000,-0.140000,-0.280000
51.431392,-0.017568,0.032696,1.010160,-0.560000,-0.560000,-0.280000
51.435458,-0.000976,0.028304,1.010648,-0.560000,-0.560000,-0.280000
51.439525,-0.013176,0.025864,1.003816,-0.980000,-0.700000,-0.560000
51.443591,-0.008296,0.028792,1.008696,-0.700000,0.000000,-0.280000
51.447657,-0.003904,0.023912,1.000888,-0.420000,-0.560000,-0.280000
51.451723,-0.010736,0.036112,1.007232,-0.420000,-0.140000,-0.420000
51.455789,-0.004392,0.024400,1.003816,-0.420000,-0.420000,-0.560000
51.459855,-0.010736,0.026840,1.008696,-1.120000,-0.420000,-0.280000
51.463922,-0.000976,0.032696,1.004792,-0.560000,-0.560000,-0.560000
51.467988,-0.004880,0.022448,1.006256,-0.560000,-0.140000,-0.280000
51.472054,-0.013664,0.032696,1.022360,-0.560000,-0.700000,-0.420000
51.476120,-0.021960,0.024888,0.995520,-0.420000,-0.420000,-0.280000
51.480186,-0.008784,0.036600,0.992104,-0.700000,-0.420000,-0.560000
51.484253,-0.004880,0.020984,1.012112,-0.840000,-0.420000,-0.140000
51.488319,-0.007320,0.035136,1.013576,-0.980000,-0.280000,-0.420000
51.492385,-0.007320,0.026352,1.003816,-0.560000,-0.560000,-0.280000
51.496451,-0.005368,0.021960,0.996496,-0.560000,-0.840000,-0.420000
51.500517,-0.003904,0.027816,1.009672,-0.980000,0.000000,-0.140000
51.504583,-0.004880,0.036600,1.009184,-0.420000,-0.560000,-0.420000
51.508650,-0.017080,0.030256,1.008696,-0.840000,-0.420000,-0.280000
51.512716,0.008784,0.014152,1.000888,-0.700000,-0.280000,-0.280000
51.516782,-0.016104,0.029280,1.015040,-0.700000,-0.700000,-0.700000
51.520848,-0.007320,0.035136,1.009672,-0.420000,-0.140000,-0.280000
51.524914,-0.010248,0.024888,1.006256,-0.700000,-0.420000,-0.420000
51.528980,-0.001464,0.025376,1.010160,-0.420000,-0.420000,-0.280000
51.533047,-0.020984,0.046360,0.993080,-0.840000,-0.560000,-0.420000
51.537113,-0.001952,0.022936,1.020896,-0.700000,-0.420000,-0.280000
51.541179,-0.012200,0.020984,0.999912,-0.280000,-0.980000,-0.420000
51.545245,-0.006832,0.031720,1.004792,-0.840000,0.420000,-0.280000
51.549311,-0.007320,0.027328,0.988688,-0.560000,-0.280000,-0.420000
51.553378,-0.007808,0.040016,1.013576,-0.140000,-0.280000,-0.420000
51.557444,-0.007320,0.018544,1.001376,-0.700000,-0.280000,-0.140000
51.561510,-0.006832,0.031232,1.012600,-0.980000,-0.560000,-0.280000
51.565576,-0.008784,0.025376,1.002352,-0.140000,-0.560000,-0.280000
51.569642,-0.004880,0.022936,1.009184,-0.980000,-0.280000,-0.420000
51.573708,-0.015128,0.026840,1.003816,-0.280000,-0.560000,-0.420000
51.577775,-0.010248,0.040016,1.021384,-0.560000,-0.420000,-0.280000
51.581841,-0.010248,0.020008,0.987712,-0.560000,-0.140000,-0.560000
51.585907,-0.005856,0.020984,1.009672,-0.560000,-0.840000,-0.280000
51.589973,-0.001952,0.041968,0.998936,-0.840000,0.140000,-0.280000
51.594039,-0.002440,0.028792,1.017968,-0.420000,-0.420000,-0.560000
51.598106,-0.023912,0.017080,0.998448,0.000000,-0.420000,-0.420000
51.602172,0.005856,0.034160,1.023336,-0.560000,-0.560000,-0.280000
51.606238,-0.013664,0.024888,0.994056,-0.840000,0.140000,-0.420000
51.610304,-0.013664,0.032696,1.016992,-0.280000,-0.980000,-0.140000
51.614370,-0.010248,0.026352,0.991616,-0.560000,-0.280000,-0.420000
51.618436,0.014152,0.029280,1.009184,-0.560000,-0.840000,-0.420000
51.622503,-0.013664,0.027816,1.009184,-0.420000,0.000000,-0.280000
51.626569,-0.011712,0.026840,1.015528,-0.560000,-0.280000,-0.420000
51.630635,-0.005368,0.030744,0.988688,-0.280000,-0.280000,-0.280000
51.634701,-0.017568,0.035136,1.012112,-0.560000,-0.280000,-0.140000
51.638767,-0.007808,0.036112,1.016504,-0.560000,-0.700000,-0.560000
51.642834,-0.011712,0.028792,1.003816,-0.420000,-0.560000,-0.560000
51.646900,0.002928,0.022936,0.995032,-0.700000,-0.280000,-0.140000
51.650966,-0.012200,0.011224,1.010648,-0.420000,-0.280000,-0.560000
51.655032,-0.013176,0.036112,1.008696,-0.280000,-0.280000,-0.140000
51.659098,-0.014640,0.029280,0.995520,-0.700000,-0.560000,-0.560000
51.663164,-0.001952,0.029280,1.018456,-0.700000,-0.560000,-0.420000
51.667231,-0.007808,0.025864,0.995520,-0.420000,-0.700000,-0.280000
51.671297,-0.003416,0.027328,1.007720,-0.840000,0.000000,-0.420000
51.675363,-0.010736,0.026840,0.999912,-0.420000,-0.280000,-0.140000
51.679429,-0.015128,0.028304,1.028216,-0.420000,-0.280000,-0.420000
51.683495,-0.002928,0.036112,0.977464,-0.700000,-0.700000,-0.420000
51.687562,0.002928,0.026840,1.018456,-0.840000,-0.420000,-0.420000
51.691628,0.001464,0.025376,1.001376,-0.700000,-0.280000,-0.140000
51.695694,-0.020984,0.030256,1.022848,-0.560000,-0.420000,-0.560000
51.699760,-0.012688,0.024400,0.996984,-0.280000,-0.420000,-0.280000
51.703826,-0.009760,0.023912,1.013576,-0.560000,-0.420000,-0.420000
51.707892,-0.009272,0.023424,1.000400,-0.840000,-0.420000,-0.560000
51.711959,-0.016104,0.048312,1.007232,-0.560000,-0.980000,-0.140000
51.716025,0.005368,0.018544,0.993080,-0.700000,0.000000,-0.420000
51.720091,-0.007808,0.016592,1.025776,-0.420000,-0.560000,-0.280000
51.724157,-0.006344,0.033184,0.996984,-0.840000,-0.140000,-0.420000
51.728223,-0.008784,0.033672,1.010648,-0.700000,-0.420000,-0.420000
51.732289,0.000976,0.033184,1.004792,-0.700000,0.000000,-0.280000
51.736356,-0.021960,0.031720,1.000400,-0.420000,-0.980000,-0.280000
51.740422,-0.002440,0.029280,1.012600,-0.700000,-0.140000,-0.420000
51.744488,-0.012200,0.030744,1.011624,-0.420000,-0.980000,-0.420000
51.748554,-0.005856,0.020496,1.003816,-0.840000,-0.140000,-0.420000
51.752620,-0.002928,0.025864,1.002352,-0.420000,-0.420000,-0.420000
51.756687,-0.006344,0.024888,1.002840,-0.560000,-0.420000,-0.420000
51.760753,-0.015616,0.032696,1.011136,-0.700000,-0.280000,-0.420000
51.764819,-0.008296,0.035136,1.012112,-0.420000,-0.560000,-0.280000
51.768885,-0.012200,0.028792,1.005768,-0.560000,-0.980000,-0.280000
51.772951,-0.001952,0.021472,0.997472,-0.840000,0.000000,-0.420000
51.777017,-0.009760,0.019520,1.016504,-0.700000,-0.840000,-0.560000
51.781084,-0.013176,0.035624,1.005280,-0.560000,-0.140000,-0.140000
51.785150,0.001952,0.028304,0.988200,-0.420000,-0.420000,-0.560000
51.789216,-0.013664,0.021960,1.023824,-0.560000,-0.280000,-0.140000
51.793282,-0.001464,0.040504,0.983320,-0.700000,-0.420000,-0.280000
51.797348,-0.015616,0.036600,1.030168,-0.420000,-0.560000,-0.560000
51.801415,-0.000976,0.016104,0.991616,-0.700000,-0.840000,-0.280000
51.805481,-0.008296,0.018056,1.027240,-0.840000,-0.420000,-0.280000
51.809547,-0.014152,0.030256,0.995032,-0.420000,-0.280000,-0.420000
51.813613,-0.020008,0.038552,1.009672,-0.280000,-0.700000,-0.280000
51.817679,0.008784,0.022448,1.000400,-0.840000,0.140000,-0.420000
51.821745,-0.009760,0.033184,1.003816,-0.560000,-0.700000,-0.420000
51.825812,-0.006344,0.033184,0.997960,-0.700000,-0.560000,-0.280000
51.829878,-0.003904,0.018544,1.017480,-0.420000,-0.140000,-0.280000
51.833944,-0.003416,0.030256,1.001864,-0.560000,-0.140000,-0.420000
51.838010,-0.027328,0.043432,1.009184,-0.420000,-0.560000,-0.280000
51.842076,-0.003416,0.026352,1.003328,-0.420000,-0.280000,-0.560000
51.846143,-0.004392,0.025376,1.013088,-0.700000,-0.980000,-0.280000
51.850209,-0.009760,0.028304,1.000400,-0.700000,0.140000,-0.280000
51.854275,0.000000,0.025864,1.009672,-0.700000,-0.700000,-0.420000
51.858341,-0.007320,0.022936,1.012112,-0.560000,0.140000,-0.280000
51.862407,-0.007320,0.027328,0.980880,-0.420000,-0.420000,-0.420000
51.866473,-0.011224,0.036600,1.036512,-0.280000,-0.280000,-0.420000
51.870540,-0.002440,0.032208,0.982344,-0.560000,-0.980000,-0.420000
51.874606,-0.016592,0.020984,1.026264,-0.980000,0.000000,-0.280000
51.878672,-0.008784,0.020984,0.992592,-0.420000,-0.420000,-0.560000
51.882738,-0.016104,0.037576,1.017480,-0.700000,-0.420000,-0.280000
51.886804,0.007320,0.026352,0.996984,-0.560000,-0.280000,-0.560000
51.890870,-0.016104,0.022936,1.009672,-0.700000,-0.700000,-0.280000
51.894937,0.000976,0.035624,0.994056,-0.420000,-0.420000,-0.420000
51.899003,-0.007320,0.030256,1.017968,-0.700000,-0.140000,-0.420000
51.903069,-0.010248,0.016592,1.016504,-0.840000,-0.700000,-0.280000
51.907135,-0.010248,0.032696,1.016992,-0.700000,-0.140000,-0.420000
51.911201,-0.009272,0.024400,0.989664,-0.560000,-0.700000,-0.420000
51.915268,-0.020008,0.038552,1.014064,-0.700000,-0.700000,-0.280000
51.919334,-0.001464,0.022936,0.992104,-0.280000,-0.420000,-0.420000
51.923400,-0.005856,0.030744,1.012112,-0.840000,-0.560000,-0.420000
51.927466,0.001464,0.025864,1.006744,-0.700000,-0.280000,-0.420000
51.931532,-0.006832,0.024400,1.010648,-0.840000,-0.420000,-0.140000
51.935598,0.006832,0.039040,0.996984,-0.420000,-0.140000,-0.420000
51.939665,-0.016592,0.022936,1.007720,-0.560000,-0.420000,-0.280000
51.943731,-0.005856,0.037088,1.029680,-0.420000,-0.140000,-0.280000
51.947797,-0.027328,0.031232,0.985760,-0.560000,-0.840000,-0.420000
51.951863,-0.013664,0.024888,1.008208,-0.560000,-0.420000,-0.560000
51.955929,0.004392,0.010736,1.011136,-0.840000,-0.560000,-0.280000
51.959996,-0.003416,0.033672,1.016992,-0.560000,-0.140000,-0.560000
51.964062,-0.008784,0.034648,0.982832,-0.420000,-0.280000,-0.280000
51.968128,-0.011224,0.033184,1.025288,-0.560000,-0.560000,-0.420000
51.972194,-0.015128,0.017568,1.007720,-0.700000,-0.700000,-0.280000
51.976260,-0.000488,0.036112,0.991128,-0.840000,-0.140000,-0.280000
51.980326,-0.005856,0.028304,1.001376,-0.980000,-0.560000,-0.280000
51.984393,-0.003416,0.023912,1.017968,-0.420000,-0.420000,-0.280000
51.988459,-0.008784,0.019032,0.998936,-0.560000,-0.140000,-0.420000
51.992525,-0.007320,0.040016,1.013576,-0.700000,-0.420000,-0.420000
51.996591,-0.012688,0.025864,1.001376,-0.560000,-0.280000,-0.420000
52.000657,-0.012688,0.031232,1.026264,-0.700000,-0.700000,-0.420000
52.004724,-0.009760,0.027816,0.989176,-0.700000,-0.420000,-0.280000
52.008790,-0.002440,0.026352,1.025776,-0.560000,-0.420000,-0.280000
52.012856,-0.006344,0.020984,0.988688,-0.560000,-0.420000,-0.420000
52.016922,-0.014640,0.031720,1.020896,-0.840000,-0.700000,-0.420000
52.020988,-0.001952,0.029768,0.987224,-0.560000,0.000000,-0.280000
52.025054,-0.008296,0.040016,1.028216,-0.700000,-0.700000,-0.420000
52.029121,-0.011712,0.024400,0.994056,-0.420000,-0.420000,-0.280000
52.033187,0.000488,0.028792,1.002840,-0.700000,-0.280000,-0.140000
52.037253,-0.010248,0.030256,1.009672,-0.420000,-0.140000,-0.420000
52.041319,-0.014640,0.025864,1.010648,-0.420000,-0.420000,-0.420000
52.045385,-0.010736,0.027328,0.998448,-0.560000,-0.420000,-0.420000
52.049451,-0.008784,0.032696,1.004792,-0.840000,-0.840000,-0.420000
52.053518,-0.004880,0.024400,1.004304,-0.700000,-0.420000,-0.280000
52.057584,-0.000976,0.020984,1.011136,-0.700000,-0.280000,0.000000
52.061650,-0.010248,0.032208,1.016016,-0.140000,-0.280000,-0.280000
52.065716,-0.015616,0.031232,0.989664,-0.560000,-0.140000,-0.560000
52.069782,0.000488,0.025864,1.020896,-0.560000,-0.700000,-0.280000
52.073849,-0.009272,0.032696,0.995520,-0.700000,-0.420000,-0.420000
52.077915,-0.015616,0.026352,0.997472,-0.700000,-0.280000,-0.280000
52.081981,-0.001464,0.021960,1.001376,-0.700000,-0.420000,-0.280000
52.086047,-0.018056,0.026840,1.014552,-0.420000,-0.420000,-0.420000
52.090113,0.003416,0.038552,1.010160,-0.560000,-0.140000,-0.420000
52.094179,-0.020496,0.023912,1.012600,-0.560000,-0.700000,-0.420000
52.098246,0.003416,0.026352,1.004792,-0.700000,-0.420000,-0.420000
52.102312,-0.011712,0.028304,0.997472,-0.980000,-0.420000,-0.420000
52.106378,-0.008784,0.025864,1.011136,-0.420000,-0.560000,-0.280000
52.110444,-0.006832,0.030256,1.015040,-0.420000,-0.420000,-0.280000
52.114510,-0.006344,0.027328,0.989176,-0.700000,-0.140000,-0.420000
52.118577,-0.013176,0.035136,1.014064,-0.420000,-0.560000,-0.420000
52.122643,-0.002440,0.021960,0.993568,-0.700000,-0.140000,-0.420000
52.126709,-0.013664,0.024400,1.019920,-0.700000,-0.700000,-0.700000
52.130775,-0.008296,0.033184,0.997960,-0.560000,-0.280000,-0.280000
52.134841,-0.000976,0.032208,1.016504,-0.700000,-0.420000,-0.280000
52.138907,0.000488,0.031720,0.997472,-0.420000,-0.140000,-0.280000
52.142974,-0.021472,0.022936,1.000400,-0.700000,-0.700000,-0.420000
52.147040,0.000976,0.029280,1.016504,-0.840000,0.000000,-0.140000
52.151106,-0.012688,0.029280,1.007232,-0.420000,-0.840000,-0.840000
52.155172,-0.014152,0.020008,1.005280,-0.700000,-0.280000,0.000000
52.159238,0.000976,0.030744,0.994544,-0.700000,-0.560000,-0.420000
52.163305,-0.008784,0.027816,1.021872,-0.560000,-0.280000,-0.280000
52.167371,-0.011224,0.036112,0.995032,-0.560000,-0.700000,-0.280000
52.171437,-0.009272,0.029280,1.015040,-0.840000,0.000000,-0.420000
52.175503,-0.012688,0.029768,1.010160,-0.280000,-0.840000,-0.420000
52.179569,-0.008296,0.025376,0.989176,-0.840000,0.000000,-0.280000
52.183635,0.001464,0.019032,1.002840,-0.420000,-0.840000,-0.280000
52.187702,-0.014640,0.040016,1.005280,-0.560000,-0.140000,-0.140000
52.191768,0.000976,0.027328,1.017480,-0.700000,-0.560000,-0.420000
52.195834,-0.010736,0.016592,1.016016,-0.980000,-0.140000,-0.420000
52.199900,0.002440,0.032696,0.999424,-0.560000,-0.840000,-0.420000
52.203966,-0.023912,0.037576,1.008208,-0.700000,-0.280000,-0.280000
52.208032,-0.005856,0.022936,0.995032,0.000000,-0.980000,-0.280000
52.212099,-0.017080,0.022448,1.016504,-0.840000,-0.280000,-0.420000
52.216165,0.010248,0.026840,0.994544,-0.840000,-0.140000,-0.280000
52.220231,-0.027328,0.029768,1.023336,-0.840000,-0.420000,-0.420000
52.224297,-0.002928,0.027328,1.003328,-0.560000,-0.560000,-0.140000
52.228363,-0.007320,0.027816,1.004792,-0.420000,-0.700000,-0.560000
52.232430,-0.005856,0.031232,0.998448,-0.700000,-0.140000,-0.140000
52.236496,-0.004392,0.032208,1.009672,-0.420000,-0.560000,-0.140000
52.240562,0.000976,0.031720,0.998936,-0.700000,-0.280000,-0.560000
52.244628,-0.014640,0.018544,1.004792,-0.700000,-0.700000,-0.140000
52.248694,0.004880,0.032208,1.019920,-0.420000,0.000000,-0.560000
52.252760,-0.017568,0.020984,0.997960,-0.140000,-1.120000,-0.560000
52.256827,-0.012200,0.034648,1.007720,-0.560000,0.000000,-0.280000
52.260893,0.005368,0.018056,1.004792,-0.420000,-0.560000,-0.280000
52.264959,-0.015616,0.039040,1.022360,-0.560000,0.000000,-0.280000
52.269025,-0.015616,0.025864,0.977952,-0.280000,-0.700000,-0.420000
52.273091,0.001464,0.036600,1.033584,-0.560000,-0.280000,-0.420000
52.277158,-0.007808,0.017568,0.986248,-0.560000,-0.700000,-0.420000
52.281224,-0.011712,0.028792,1.013576,-0.700000,0.140000,-0.280000
52.285290,-0.008296,0.023424,0.997472,-0.420000,-0.280000,-0.420000
52.289356,-0.016592,0.034648,1.026752,-0.840000,-0.560000,-0.140000
52.293422,-0.004392,0.034648,0.991128,-0.700000,0.000000,-0.420000
52.297488,-0.000488,0.019520,1.004304,-0.700000,-0.980000,-0.280000
52.301555,-0.009760,0.030744,0.996496,-0.700000,0.000000,-0.420000
52.305621,0.008296,0.028304,1.010648,-0.560000,-0.420000,-0.420000
52.309687,-0.020008,0.022936,1.016992,-0.700000,-0.420000,-0.280000
52.313753,-0.002928,0.034648,0.999912,-0.280000,-0.700000,-0.140000
52.317819,-0.020984,0.031720,1.015528,-0.420000,-0.420000,-0.840000
52.321886,-0.007320,0.028792,1.004792,-0.980000,-0.700000,0.000000
52.325952,-0.002928,0.026352,1.002840,-0.700000,0.000000,-0.700000
52.330018,-0.011224,0.020008,1.004792,-0.280000,-0.560000,-0.420000
52.334084,-0.011712,0.030744,0.999912,-0.700000,-0.420000,-0.280000
52.338150,-0.010248,0.022448,1.006744,-0.560000,-0.420000,-0.280000
52.342216,0.005368,0.052216,1.005280,-0.700000,-0.280000,-0.420000
52.346283,-0.016592,0.027328,1.011136,-0.840000,-0.420000,-0.280000
52.350349,0.001952,0.019520,1.007232,-0.700000,-0.140000,-0.420000
52.354415,-0.014640,0.014640,1.001864,-0.700000,-0.560000,-0.420000
52.358481,-0.007808,0.032696,1.003328,-0.420000,-0.280000,-0.420000
52.362547,0.000976,0.023424,1.009184,-0.700000,-0.140000,-0.280000
52.366614,-0.014640,0.039040,1.010160,-0.560000,-0.840000,-0.420000
52.370680,-0.010248,0.026840,0.997960,-0.840000,-0.560000,-0.140000
52.374746,-0.008296,0.028792,1.021384,-0.700000,-0.560000,-0.420000
52.378812,-0.006344,0.023912,1.013088,-0.700000,-0.560000,-0.140000
52.382878,-0.015616,0.035136,1.007720,-0.280000,-0.280000,-0.420000
52.386944,-0.009760,0.024400,0.986736,-0.560000,-0.420000,-0.280000
52.391011,-0.006832,0.028304,1.015040,-0.700000,-0.560000,-0.420000
52.395077,-0.011224,0.034648,0.982344,-0.700000,0.280000,-0.420000
52.399143,0.000488,0.024400,1.030168,-0.700000,-0.700000,-0.280000
52.403209,-0.003904,0.024400,0.992592,-0.560000,-0.280000,-0.280000
52.407275,-0.009272,0.024400,1.016504,-0.280000,-0.560000,-0.420000
52.411341,-0.018056,0.036112,1.001864,-0.560000,-0.560000,-0.420000
52.415408,-0.004392,0.033672,1.022360,-0.700000,-0.560000,-0.280000
52.419474,-0.012688,0.014640,1.000400,-0.980000,0.000000,-0.280000
52.423540,-0.004880,0.031232,1.001864,-0.700000,-0.980000,-0.280000
52.427606,-0.004880,0.033672,1.009184,-0.280000,0.000000,-0.140000
52.431672,-0.006832,0.023424,1.013576,-0.420000,-0.700000,-0.700000
52.435739,-0.009272,0.027328,0.993080,-0.560000,-0.420000,-0.420000
52.439805,-0.001952,0.033184,1.013576,-0.840000,-0.140000,-0.140000
52.443871,-0.016592,0.037576,1.000400,-0.700000,-0.280000,-0.420000
52.447937,-0.012688,0.026840,1.022360,-0.420000,-0.700000,-0.280000
52.452003,-0.004880,0.025864,0.988200,-0.420000,-0.420000,-0.420000
52.456069,-0.003904,0.026352,1.019432,-0.840000,-0.700000,-0.420000
52.460136,-0.014152,0.020496,0.988200,-0.280000,0.000000,-0.280000
52.464202,0.001464,0.027816,1.014552,-0.700000,-0.280000,-0.280000
52.468268,-0.005368,0.035136,1.009672,-0.560000,0.000000,-0.280000
52.472334,-0.016592,0.033672,0.996008,-0.560000,-0.700000,-0.280000
52.476400,-0.015616,0.032208,1.020896,-0.560000,-0.700000,-0.280000
52.480467,0.002440,0.023912,1.000888,-0.560000,-0.560000,-0.560000
52.484533,-0.012688,0.022448,1.003328,-0.700000,0.140000,-0.420000
52.488599,-0.004880,0.024888,1.005768,-0.560000,-0.420000,-0.420000
52.492665,-0.018544,0.027328,1.009672,-0.420000,-0.560000,-0.420000
52.496731,-0.005368,0.043432,0.993568,-0.560000,0.140000,-0.420000
52.500797,-0.008784,0.019520,1.014552,-0.700000,-1.260000,-0.280000
52.504864,0.000488,0.029768,0.995520,-0.840000,0.000000,-0.280000
52.508930,-0.012200,0.025864,1.005280,-0.700000,-0.420000,-0.420000
52.512996,-0.008784,0.025864,1.015528,-0.560000,-0.420000,-0.140000
52.517062,-0.000488,0.027328,1.019920,-0.420000,-0.700000,-0.420000
52.521128,-0.013664,0.021472,0.987712,-0.420000,-0.420000,-0.420000
52.525194,-0.013176,0.038552,1.011624,-0.840000,-0.700000,-0.280000
52.529261,-0.001952,0.023424,1.008696,-0.560000,0.000000,-0.420000
52.533327,-0.009272,0.029280,1.011624,-0.700000,-0.700000,-0.560000
52.537393,-0.010736,0.032208,1.001864,-0.700000,-0.140000,-0.280000
52.541459,0.000000,0.025864,1.005768,-0.560000,-0.420000,-0.280000
52.545525,-0.009760,0.034160,1.000400,-0.840000,-0.420000,-0.280000
52.549592,-0.010736,0.037576,1.011136,-0.560000,-0.700000,-0.420000
52.553658,0.003904,0.021472,1.012112,-0.700000,0.000000,-0.280000
52.557724,-0.012200,0.025376,1.008208,-0.420000,-0.840000,-0.420000
52.561790,-0.013176,0.027816,0.998448,-0.560000,-0.140000,-0.280000
52.565856,-0.004392,0.022936,1.003328,-0.560000,-0.420000,-0.420000
52.569922,-0.006832,0.034160,1.008696,-0.700000,0.000000,-0.420000
52.573989,-0.018056,0.026840,0.991616,-0.560000,-0.420000,-0.560000
52.578055,-0.004880,0.025864,1.017968,-0.700000,-0.700000,-0.140000
52.582121,-0.005368,0.025864,1.008208,-0.420000,-0.980000,-0.420000
52.586187,-0.004392,0.031720,1.007232,-0.980000,-0.140000,-0.280000
52.590253,-0.016592,0.024400,1.001864,-0.560000,-0.420000,-0.280000
52.594320,-0.011224,0.033672,1.006256,-0.560000,-0.420000,-0.420000
52.598386,-0.007808,0.026840,1.001864,-0.560000,-0.280000,-0.560000
52.602452,0.000000,0.029768,1.010648,-0.700000,-0.420000,-0.140000
52.606518,-0.005856,0.030744,1.009184,-0.420000,-0.700000,-0.420000
52.610584,-0.007808,0.029280,1.005280,-0.700000,-0.140000,-0.280000
52.614650,-0.001952,0.016104,0.997472,-0.560000,-0.560000,-0.560000
52.618717,-0.013176,0.029768,1.017968,-0.840000,-0.140000,-0.280000
52.622783,-0.017568,0.032696,1.000888,-0.560000,-0.280000,-0.420000
52.626849,-0.008784,0.025864,1.007232,-0.420000,-0.700000,-0.420000
52.630915,-0.004880,0.028792,1.008208,-0.560000,-0.420000,-0.280000
52.634981,-0.001464,0.032696,1.008696,-0.700000,-0.700000,-0.420000
52.639047,-0.007320,0.035624,1.017480,-0.840000,-0.140000,-0.560000
52.643114,-0.012200,0.015128,0.993568,-0.560000,-0.140000,-0.140000
52.647180,0.001952,0.038064,1.003328,-0.560000,-0.420000,-0.560000
52.651246,-0.012200,0.029280,1.010648,-0.140000,-0.700000,-0.140000
52.655312,-0.011224,0.037088,1.013576,-0.840000,-0.420000,-0.280000
52.659378,-0.010736,0.024400,0.996496,-0.420000,-0.840000,-0.420000
52.663445,0.000488,0.023912,0.999912,-0.840000,0.000000,-0.280000
52.667511,-0.008296,0.016592,1.013088,-0.840000,-0.140000,-0.280000
52.671577,-0.007320,0.035136,1.010648,-0.420000,0.000000,-0.420000
52.675643,-0.026352,0.031232,0.992592,-0.140000,-0.420000,-0.420000
52.679709,0.002928,0.032696,1.015040,-0.560000,-0.840000,-0.280000
52.683775,0.001464,0.027328,1.010648,-0.840000,-0.560000,-0.420000
52.687842,-0.006832,0.030744,1.004304,-0.980000,-0.140000,-0.140000
52.691908,-0.017568,0.024400,0.995520,-0.140000,-0.280000,-0.700000
52.695974,-0.010248,0.019520,1.019920,0.000000,-0.560000,-0.420000
52.700040,-0.016592,0.033672,0.989176,-0.840000,-0.140000,-0.560000
52.704106,0.000976,0.035136,1.021872,-0.700000,-0.840000,-0.420000
52.708172,-0.012688,0.029280,0.994056,-0.560000,-0.140000,-0.280000
52.712239,0.002440,0.025864,1.013576,-0.840000,-0.420000,-0.280000
52.716305,-0.006832,0.020984,0.996008,-0.420000,-0.420000,-0.420000
52.720371,-0.002928,0.034648,1.024800,-0.560000,-0.420000,-0.140000
52.724437,-0.010248,0.021960,1.001376,-0.560000,-0.280000,-0.560000
52.728503,-0.019520,0.033184,1.005768,-0.700000,-0.700000,-0.420000
52.732570,0.009760,0.033672,0.994056,-0.700000,-0.140000,-0.280000
52.736636,-0.020496,0.027328,1.022360,-0.840000,-0.840000,-0.560000
52.740702,-0.004880,0.022448,0.989176,-0.280000,-0.560000,-0.280000
52.744768,-0.002440,0.025376,1.013576,-0.840000,-0.280000,-0.280000
52.748834,-0.001952,0.029768,1.008208,-0.280000,-0.280000,-0.420000
52.752900,-0.023424,0.036112,1.002840,-0.420000,-0.420000,-0.420000
52.756967,-0.001952,0.028304,1.016992,-0.840000,-0.420000,-0.140000
52.761033,-0.008296,0.031720,0.986736,-0.700000,-0.420000,-0.560000
52.765099,-0.006832,0.025864,1.024800,-0.560000,-0.280000,-0.280000
52.769165,0.000000,0.025376,0.996008,-0.420000,-0.280000,-0.420000
52.773231,-0.001464,0.026352,1.012112,-0.420000,-0.280000,-0.560000
52.777298,-0.014640,0.025864,0.995032,-0.560000,-0.280000,-0.280000
52.781364,-0.007320,0.034648,1.008696,-0.700000,-0.560000,-0.420000
52.785430,-0.012200,0.034648,1.011624,-0.840000,-0.700000,-0.280000
52.789496,-0.014152,0.025864,0.995520,-0.560000,-0.560000,-0.280000
52.793562,-0.008784,0.018544,1.016504,-0.840000,-0.560000,-0.420000
52.797628,-0.010248,0.023912,1.004792,-0.560000,-0.140000,-0.420000
52.801695,-0.004392,0.035136,0.993568,-0.420000,-0.280000,-0.420000
52.805761,-0.004392,0.027328,1.020896,-0.700000,0.000000,-0.420000
52.809827,-0.002440,0.026352,0.995032,-0.840000,-0.980000,-0.140000
52.813893,-0.017568,0.040504,1.019920,-0.700000,-0.140000,-0.420000
52.817959,-0.001464,0.024888,1.001864,-0.420000,-0.840000,-0.280000
52.822025,-0.007808,0.023424,1.017968,-0.700000,-0.560000,-0.420000
52.826092,-0.012200,0.015616,0.990152,-0.420000,0.140000,-0.140000
52.830158,-0.011712,0.043432,1.019432,-0.560000,-0.840000,-0.420000
52.834224,-0.003904,0.025864,0.988200,-0.840000,0.140000,-0.280000
52.838290,-0.007320,0.038552,1.017968,-0.420000,-0.980000,-0.560000
52.842356,-0.005856,0.015616,0.997960,-0.840000,-0.280000,-0.140000
52.846423,-0.010248,0.030744,1.010160,-0.560000,-0.700000,-0.420000
52.850489,-0.001952,0.022448,1.003328,-0.280000,0.000000,-0.420000
52.854555,-0.016104,0.036112,1.016504,-0.560000,-0.700000,-0.420000
52.858621,-0.007808,0.036600,1.000400,-0.700000,0.000000,-0.420000
52.862687,-0.007808,0.029768,1.015040,-0.560000,-1.400000,-0.420000
52.866753,-0.008784,0.025864,0.991616,-0.980000,0.000000,-0.280000
52.870820,0.000488,0.021472,1.012600,-0.420000,-0.560000,-0.420000
52.874886,-0.008296,0.031232,1.016016,-0.420000,-0.140000,-0.420000
52.878952,-0.009760,0.013664,0.989664,-0.700000,-0.560000,-0.420000
52.883018,-0.016104,0.036600,1.016016,-0.700000,-0.420000,-0.420000
52.887084,0.001464,0.037088,1.004304,-0.700000,-0.840000,-0.420000
52.891151,-0.014640,0.024400,1.002840,-0.700000,0.000000,-0.140000
52.895217,-0.008784,0.022448,0.993568,-0.560000,-0.280000,-0.280000
52.899283,-0.019032,0.027816,1.021872,-0.280000,-0.420000,-0.420000
52.903349,-0.006344,0.031232,0.999912,-0.280000,0.140000,-0.700000
52.907415,-0.005856,0.024400,1.009184,-0.700000,-0.840000,-0.560000
52.911481,0.005856,0.031232,1.007232,-0.840000,-0.420000,-0.280000
52.915548,-0.010736,0.031720,1.004304,-0.280000,-0.560000,-0.420000
52.919614,-0.013664,0.023912,1.013576,-0.420000,-0.140000,-0.280000
52.923680,-0.002440,0.023912,1.011136,-0.420000,-0.420000,-0.280000
52.927746,-0.011712,0.029768,1.004304,-0.700000,-0.280000,-0.560000
52.931812,-0.014640,0.031720,1.008208,-0.840000,-0.840000,-0.280000
52.935878,-0.001952,0.031720,0.994544,-0.560000,-0.140000,-0.280000
52.939945,-0.015128,0.031720,1.011136,-0.420000,-0.560000,-0.420000
52.944011,0.001464,0.028304,1.001376,-0.560000,-0.420000,-0.140000
52.948077,-0.014152,0.017080,1.011624,-0.700000,-0.560000,-0.140000
52.952143,0.007320,0.042944,1.005768,-0.560000,-0.420000,-0.420000
52.956209,-0.016592,0.025376,1.002840,-0.700000,-0.560000,-0.420000
52.960276,-0.000976,0.025376,1.005768,-0.840000,-0.140000,-0.280000
52.964342,-0.022448,0.030744,0.995520,-0.560000,-0.700000,-0.560000
52.968408,-0.008296,0.028792,1.011136,-0.560000,-0.140000,-0.140000
52.972474,-0.005856,0.016104,1.011136,-0.420000,-0.420000,-0.560000
52.976540,0.004392,0.034160,1.010160,-0.420000,-0.420000,-0.420000
52.980606,-0.012688,0.035624,1.005768,-0.840000,-0.140000,-0.420000
52.984673,-0.008784,0.023912,1.000888,-0.420000,-0.700000,-0.280000
52.988739,-0.014640,0.030256,1.016016,-0.560000,-0.840000,-0.420000
52.992805,-0.006344,0.024888,0.982344,-0.700000,0.000000,-0.140000
52.996871,-0.008784,0.034648,1.023824,-0.700000,-0.560000,-0.420000
53.000937,-0.007320,0.032696,0.995032,-0.420000,-0.420000,-0.280000
53.005004,0.000000,0.014152,1.000400,-0.700000,-0.280000,-0.420000
53.009070,-0.008784,0.025376,1.007720,-0.840000,-0.280000,-0.420000
53.013136,-0.007320,0.028304,1.010648,-0.560000,-0.700000,-0.560000
53.017202,-0.013664,0.031720,1.011624,-0.840000,0.000000,-0.280000
53.021268,-0.006832,0.025864,0.997960,-0.560000,-0.980000,-0.420000
53.025334,-0.002440,0.030744,1.028216,-0.560000,-0.280000,-0.140000
53.029401,-0.009760,0.014640,0.980880,-0.840000,-0.420000,-0.420000
53.033467,-0.007320,0.038064,1.027728,-0.700000,-0.140000,-0.280000
53.037533,-0.011712,0.028304,0.993568,-0.560000,-0.560000,-0.280000
53.041599,-0.007808,0.023912,1.016504,-0.840000,-0.420000,-0.560000
53.045665,-0.004880,0.028304,0.994544,-0.420000,-0.840000,-0.280000
53.049731,-0.003904,0.039528,1.015528,-0.980000,-0.140000,-0.140000
53.053798,-0.000488,0.026352,0.998936,-0.560000,-0.420000,-0.420000
53.057864,-0.017080,0.022448,1.011136,-0.700000,-0.420000,-0.280000
53.061930,-0.006832,0.032208,0.997472,-0.840000,-0.140000,-0.560000
53.065996,-0.004392,0.029768,1.017480,-0.700000,-0.700000,-0.560000
53.070062,-0.012200,0.024400,0.989176,-0.560000,-0.140000,-0.280000
53.074129,-0.005856,0.023424,1.020408,-0.840000,-0.700000,-0.140000
53.078195,-0.006832,0.033672,1.013088,-0.420000,-0.140000,-0.280000
53.082261,-0.009760,0.036112,1.001864,-0.700000,-0.560000,-0.140000
53.086327,-0.011712,0.029280,1.009672,-0.700000,0.000000,-0.700000
53.090393,-0.014152,0.027328,1.001376,-0.420000,-0.980000,-0.420000
53.094459,-0.003904,0.020984,1.006256,-0.700000,-0.280000,-0.140000
53.098526,-0.009760,0.019520,0.989176,-0.560000,-0.420000,-0.280000
53.102592,-0.006832,0.042944,1.016992,-0.280000,-0.280000,-0.420000
53.106658,-0.003416,0.021472,0.993080,-0.840000,-0.140000,-0.280000
53.110724,-0.005856,0.020984,1.023336,-0.980000,-0.560000,-0.560000
53.114790,-0.008296,0.030744,0.989664,-0.280000,-0.560000,-0.280000
53.118857,-0.005856,0.037088,1.020408,-0.700000,-0.560000,-0.420000
53.122923,-0.011712,0.014152,1.011136,-0.420000,-0.420000,-0.420000
53.126989,0.002928,0.028304,1.001376,-0.700000,-0.560000,-0.140000
53.131055,-0.014640,0.035136,0.999912,-0.700000,-0.280000,-0.420000
53.135121,-0.010736,0.036600,1.022360,-0.560000,-0.560000,-0.280000
53.139187,-0.007320,0.025376,0.998448,-0.560000,-0.420000,-0.420000
53.143254,-0.002928,0.025864,1.007232,-0.560000,-0.140000,-0.560000
53.147320,-0.024400,0.024888,0.997472,-0.420000,-0.420000,-0.280000
53.151386,-0.005368,0.039040,1.018456,-0.560000,-0.420000,-0.140000
53.155452,0.002928,0.027816,0.998936,-0.840000,-0.280000,-0.420000
53.159518,-0.011224,0.030256,1.016504,-0.560000,-0.700000,-0.280000
53.163584,-0.004392,0.016592,0.999424,-0.280000,-0.280000,-0.420000
53.167651,-0.013176,0.030256,1.013088,-0.840000,-0.420000,-0.420000
53.171717,-0.019032,0.027328,0.996496,-0.420000,-0.140000,-0.420000
53.175783,-0.001952,0.029768,1.007720,-0.420000,-0.700000,-0.420000
53.179849,-0.003416,0.024888,1.007720,-0.560000,-0.280000,-0.420000
53.183915,-0.001464,0.045384,1.003816,-0.840000,-0.700000,0.000000
53.187982,-0.010248,0.021472,1.010648,-0.560000,0.000000,-0.560000
53.192048,-0.009760,0.019520,1.003328,-0.280000,-0.840000,-0.280000
53.196114,-0.017568,0.030744,0.998936,-0.840000,0.140000,-0.420000
53.200180,-0.007320,0.035136,1.007720,-0.420000,-0.840000,-0.280000
53.204246,-0.012200,0.038552,1.009672,-0.700000,-0.280000,-0.420000
53.208312,-0.001952,0.013176,0.996496,-0.700000,-0.560000,-0.420000
53.212379,0.006832,0.033184,1.022848,-0.840000,0.000000,-0.420000
53.216445,-0.007320,0.023424,0.999912,-0.560000,-0.560000,-0.280000
53.220511,-0.016592,0.021960,1.001376,-0.280000,-0.140000,-0.420000
53.224577,-0.010248,0.025864,1.013576,-0.420000,-0.700000,-0.420000
53.228643,-0.005368,0.035136,1.002840,-0.560000,-0.420000,-0.420000
53.232710,-0.010736,0.035136,1.001376,-0.700000,-0.140000,-0.280000
53.236776,-0.006832,0.020008,1.011624,-0.700000,-0.700000,-0.420000
53.240842,0.004392,0.026352,0.992104,-0.980000,-0.140000,-0.420000
53.244908,-0.007320,0.027328,1.017968,-0.140000,-0.420000,-0.560000
53.248974,-0.019032,0.027816,0.997960,-0.560000,-0.560000,-0.280000
53.253040,-0.003904,0.036112,1.024312,-0.560000,-0.840000,-0.280000
53.257107,-0.010248,0.025376,1.007720,-0.840000,0.140000,-0.420000
53.261173,-0.019520,0.029280,1.006256,-0.700000,-1.120000,-0.140000
53.265239,0.004392,0.027816,0.994056,-0.700000,-0.140000,-0.420000
53.269305,-0.004392,0.029280,1.018944,-0.420000,-0.560000,-0.560000
53.273371,-0.008296,0.021472,0.991128,-0.700000,-0.280000,-0.280000
53.277437,-0.008784,0.028304,1.014064,-0.420000,-0.700000,-0.280000
53.281504,-0.001952,0.023912,0.989664,-0.840000,0.140000,-0.280000
53.285570,-0.023912,0.041968,1.012112,-0.560000,-0.840000,-0.280000
53.289636,0.000488,0.036600,1.013576,-0.420000,-0.280000,-0.280000
53.293702,-0.015128,0.017568,1.013576,-0.420000,-1.120000,-0.700000
53.297768,-0.005856,0.022448,0.990640,-0.700000,0.000000,-0.140000
53.301835,0.002928,0.027328,1.009672,-0.700000,-0.560000,-0.420000
53.305901,-0.011224,0.029280,1.004304,-0.560000,-0.140000,-0.280000
53.309967,-0.007320,0.031720,0.993568,-0.420000,-0.560000,-0.420000
53.314033,-0.004392,0.023912,1.022360,-0.700000,-0.280000,-0.420000
53.318099,-0.004392,0.031232,1.007720,-0.560000,-0.700000,-0.420000
53.322165,-0.019520,0.029280,1.009184,-0.560000,0.000000,-0.280000
53.326232,-0.011712,0.023912,1.004792,-0.280000,-0.560000,-0.420000
53.330298,-0.013664,0.020496,1.006256,-0.560000,-0.280000,-0.280000
53.334364,-0.000488,0.041968,0.985760,-0.700000,-0.420000,-0.420000
53.338430,-0.009760,0.029768,1.018456,-0.560000,-0.840000,-0.280000
53.342496,-0.001952,0.022448,0.999424,-0.560000,-0.420000,-0.420000
53.346563,-0.013176,0.016592,1.012600,-0.700000,-0.280000,-0.560000
53.350629,-0.000976,0.029768,0.995520,-0.560000,-0.280000,-0.280000
53.354695,-0.012200,0.039040,1.025288,-0.700000,-0.140000,-0.140000
53.358761,-0.006344,0.025376,1.001864,-0.560000,-0.560000,-0.280000
53.362827,-0.024400,0.035136,0.991128,-0.560000,-0.560000,-0.280000
53.366893,0.014640,0.023912,1.019432,-0.420000,-0.140000,-0.280000
53.370960,-0.017080,0.022936,1.010648,-0.560000,-0.420000,-0.840000
53.375026,-0.006832,0.021472,1.005280,-0.280000,-0.560000,-0.280000
53.379092,-0.005368,0.028304,0.997472,-0.840000,-0.420000,-0.420000
53.383158,-0.005856,0.031232,1.018944,-0.560000,-0.420000,-0.280000
53.387224,-0.023912,0.050752,1.002352,-0.420000,-0.560000,-0.280000
53.391290,0.002440,0.026352,0.997960,-0.700000,-0.280000,-0.420000
53.395357,-0.007808,0.018056,1.009672,-0.700000,-0.420000,-0.280000
53.399423,-0.014152,0.022936,0.993568,-0.560000,0.000000,-0.420000
53.403489,-0.005856,0.027816,1.004792,-0.560000,-0.700000,-0.420000
53.407555,-0.005856,0.040504,1.013576,-0.700000,0.000000,-0.420000
53.411621,-0.010736,0.015128,1.002352,-0.700000,-0.700000,-0.280000
53.415688,-0.017568,0.038552,1.021872,-0.980000,-0.420000,-0.420000
53.419754,0.003416,0.020496,0.991128,-0.560000,-0.840000,-0.280000
53.423820,-0.005368,0.028792,1.020408,-0.840000,0.000000,-0.420000
53.427886,-0.011224,0.020008,0.992592,-0.420000,-0.560000,-0.420000
53.431952,-0.018544,0.038552,1.022848,-0.700000,-0.560000,-0.420000
53.436018,0.000488,0.023424,0.973560,-0.840000,-0.140000,-0.280000
53.440085,-0.000976,0.034160,1.031144,-0.840000,-0.420000,-0.420000
53.444151,-0.014152,0.029280,0.991616,-0.280000,-0.280000,-0.140000
53.448217,0.003416,0.034160,1.008696,-0.560000,-0.840000,-0.420000
53.452283,-0.011712,0.009272,1.005768,-0.420000,-0.420000,-0.420000
53.456349,-0.007808,0.039528,1.009672,-0.840000,-0.280000,-0.420000
53.460415,-0.011712,0.027816,1.011136,-0.700000,0.000000,-0.560000
53.464482,-0.017080,0.034160,0.998936,-0.700000,-0.420000,-0.280000
53.468548,-0.007320,0.025864,1.011624,-0.420000,-0.700000,-0.420000
53.472614,0.001952,0.029280,1.007232,-0.560000,-0.700000,-0.280000
53.476680,-0.005368,0.028304,1.004304,-0.560000,-0.280000,-0.420000
53.480746,0.000000,0.022448,1.010160,-0.700000,-0.420000,-0.140000
53.484813,-0.012688,0.025376,1.000888,-0.700000,0.000000,-0.560000
53.488879,-0.018544,0.040992,0.992104,-0.420000,-0.420000,-0.280000
53.492945,-0.005856,0.032208,1.014064,-0.560000,-0.560000,-0.420000
53.497011,-0.012200,0.021960,1.005280,-0.560000,-0.840000,-0.420000
53.501077,-0.002928,0.026352,1.001864,-0.980000,-0.280000,-0.280000
53.505143,0.000000,0.027816,1.006256,-0.560000,-0.140000,-0.280000
53.509210,-0.020984,0.029768,1.012600,-0.560000,-0.420000,-0.420000
53.513276,0.000976,0.030256,0.998448,-0.840000,-0.280000,-0.280000
53.517342,-0.016104,0.025864,1.006256,-0.420000,-0.840000,-0.560000
53.521408,0.004392,0.030256,1.011624,-0.280000,-0.700000,-0.140000
53.525474,-0.008296,0.026840,1.003816,-0.700000,-0.280000,-0.420000
53.529540,-0.013176,0.024888,1.008208,-0.700000,0.000000,-0.420000
53.533607,-0.009760,0.025864,1.015528,-0.560000,-0.420000,-0.420000
53.537673,-0.010736,0.024888,0.988200,-0.560000,-0.280000,-0.560000
53.541739,-0.004880,0.037576,1.005280,-0.420000,-0.560000,-0.280000
53.545805,-0.003904,0.033184,1.009672,-0.840000,-0.560000,-0.420000
53.549871,-0.004392,0.018544,1.010648,-0.700000,-0.420000,-0.280000
53.553938,-0.009760,0.020008,0.995520,-0.560000,-0.280000,-0.280000
53.558004,-0.011224,0.038064,1.018944,-0.840000,-0.280000,-0.280000
53.562070,-0.008784,0.033184,1.005768,-0.420000,-0.420000,-0.420000
53.566136,-0.009272,0.027816,0.996984,-0.420000,-0.700000,-0.280000
53.570202,0.001464,0.023424,1.013576,-0.840000,-0.280000,-0.140000
53.574268,-0.015128,0.026840,1.002840,-0.420000,-0.560000,-0.560000
53.578335,-0.001952,0.023912,1.010648,-0.700000,-0.280000,-0.280000
53.582401,-0.006344,0.023424,1.004304,-0.700000,-0.280000,-0.560000
53.586467,-0.008784,0.035624,1.001864,-0.280000,-0.560000,-0.420000
53.590533,-0.010736,0.043920,1.016504,-0.560000,-0.560000,-0.420000
53.594599,-0.010736,0.022936,0.993568,-0.700000,-0.140000,-0.280000
53.598666,-0.006344,0.031232,1.029680,-0.700000,-0.420000,-0.280000
53.602732,-0.003416,0.018544,0.983808,-0.420000,-0.560000,-0.280000
53.606798,-0.005856,0.027816,1.022848,-0.840000,-0.280000,-0.280000
53.610864,-0.012688,0.037088,0.988688,-0.280000,-0.420000,-0.420000
53.614930,-0.008784,0.022936,1.008208,-0.700000,-0.420000,-0.560000
53.618996,-0.015128,0.029768,1.014064,-0.560000,-0.140000,-0.280000
53.623063,-0.004880,0.029768,1.000888,-0.700000,-1.120000,-0.420000
53.627129,-0.013176,0.027328,1.007720,-0.700000,0.280000,-0.280000
53.631195,0.004392,0.015616,1.004304,-0.420000,-0.840000,-0.420000
53.635261,-0.025376,0.031720,1.024312,-0.560000,-0.140000,-0.280000
53.639327,0.004392,0.038552,0.988688,-0.420000,-0.420000,-0.420000
53.643393,-0.018544,0.017568,1.013576,-0.980000,-0.280000,-0.420000
53.647460,0.007320,0.032696,0.997960,-0.420000,-0.700000,-0.140000
53.651526,-0.012200,0.036600,1.005768,-0.560000,-0.420000,-0.560000
53.655592,-0.002440,0.025376,1.000888,-0.560000,-0.840000,-0.140000
53.659658,-0.008784,0.017568,1.016992,-0.980000,0.000000,-0.420000
53.663724,-0.011224,0.022936,1.006256,-0.420000,-0.560000,-0.420000
53.667791,-0.024400,0.034648,1.009184,-0.840000,-0.420000,-0.420000
53.671857,0.007320,0.034648,1.006744,-0.420000,-0.700000,-0.420000
53.675923,-0.014152,0.030744,1.010648,-0.700000,-0.560000,-0.420000
53.679989,-0.002440,0.041968,1.005280,-0.700000,-0.560000,-0.140000
53.684055,-0.009272,0.013664,0.998936,-0.840000,-0.420000,-0.280000
53.688121,0.003904,0.031720,1.007720,-0.560000,0.140000,-0.420000
53.692188,-0.025864,0.028792,0.996984,-0.420000,-0.560000,-0.420000
53.696254,-0.011224,0.037576,1.013576,-0.420000,-0.280000,-0.420000
53.700320,-0.001464,0.016104,0.995520,-0.560000,-1.260000,-0.560000
53.704386,-0.002440,0.035624,1.017968,-1.120000,0.280000,-0.140000
53.708452,-0.006344,0.025376,0.999912,-0.420000,-0.560000,-0.420000
53.712518,-0.011224,0.029280,1.019920,-0.560000,-0.280000,-0.280000
53.716585,-0.011224,0.014640,0.979416,-0.560000,-0.140000,-0.420000
53.720651,-0.012688,0.046848,1.033096,-0.560000,-0.700000,-0.280000
53.724717,-0.006832,0.031720,0.996984,-0.420000,-0.700000,-0.420000
53.728783,0.001464,0.024888,1.008696,-0.980000,-0.140000,-0.280000
53.732849,-0.016104,0.014640,0.992104,-0.700000,-0.420000,-0.140000
53.736916,-0.005368,0.032208,1.023336,-0.420000,-0.420000,-0.560000
53.740982,-0.015128,0.023912,0.976976,-0.140000,-0.280000,-0.560000
53.745048,-0.001464,0.030256,1.022848,-0.980000,-0.560000,-0.280000
53.749114,-0.009272,0.036112,0.996008,-0.420000,-0.560000,-0.420000
53.753180,-0.000488,0.034160,1.022360,-0.840000,-0.280000,-0.280000
53.757246,-0.008784,0.018056,0.998936,-0.700000,-0.700000,-0.280000
53.761313,0.000488,0.035136,1.020896,-0.840000,-0.140000,-0.140000
53.765379,-0.008784,0.019520,0.995520,-0.140000,-0.280000,-0.560000
53.769445,-0.014152,0.031720,1.007720,-0.560000,-0.840000,-0.280000
53.773511,-0.009272,0.029768,1.001376,-0.560000,-0.140000,-0.420000
53.777577,-0.003904,0.036112,1.008696,-0.700000,-0.560000,-0.420000
53.781643,-0.014640,0.019520,1.010160,-0.700000,-0.280000,-0.560000
53.785710,0.001464,0.028792,1.003328,-0.700000,-0.560000,-0.140000
53.789776,-0.004392,0.032696,1.007232,-0.420000,-0.420000,-0.560000
53.793842,-0.012688,0.036600,1.006744,-0.560000,-0.420000,-0.140000
53.797908,-0.011712,0.026840,1.007720,-0.560000,-0.280000,-0.560000
53.801974,-0.005368,0.025864,1.004304,-0.560000,-0.560000,-0.280000
53.806041,-0.012200,0.031720,1.005280,-0.700000,-0.280000,-0.420000
53.810107,-0.004392,0.022448,0.999912,-0.560000,-0.560000,-0.140000
53.814173,-0.010736,0.036600,1.017968,-0.420000,-0.560000,-0.560000
53.818239,-0.003416,0.015128,0.988200,-0.560000,-0.140000,-0.280000
53.822305,-0.007320,0.032696,1.015040,-0.700000,-0.280000,-0.420000
53.826371,-0.005856,0.032208,0.996008,-0.420000,-0.420000,-0.420000
53.830438,-0.017568,0.029280,1.003816,-0.560000,-0.280000,-0.280000
53.834504,-0.005856,0.020496,1.004304,-0.420000,-0.700000,-0.280000
53.838570,-0.009760,0.020984,1.023336,-0.560000,-0.420000,-0.420000
53.842636,-0.002440,0.038552,0.986248,-0.840000,0.000000,-0.140000
53.846702,-0.005368,0.024400,1.026264,-0.420000,-0.420000,-0.420000
53.850768,-0.016104,0.032208,1.003816,-0.420000,-0.140000,-0.420000
53.854835,-0.002928,0.034648,0.991128,-0.560000,-0.840000,-0.420000
53.858901,0.000000,0.033184,1.013576,-0.700000,-0.560000,-0.420000
53.862967,-0.003416,0.018544,1.016016,-0.420000,-0.560000,-0.280000
53.867033,-0.010736,0.018544,1.004304,-0.700000,-0.140000,-0.280000
53.871099,-0.021472,0.032208,1.007720,-0.420000,-0.420000,-0.420000
53.875166,-0.001464,0.029280,0.994056,-0.700000,-0.140000,-0.280000
53.879232,-0.019032,0.038552,1.021872,-0.280000,-1.120000,-0.560000
53.883298,-0.001952,0.031232,0.984296,-0.700000,-0.420000,-0.280000
53.887364,-0.011224,0.020984,1.019432,-0.700000,-0.560000,-0.140000
53.891430,0.004392,0.027328,0.996008,-0.560000,0.000000,-0.560000
53.895496,-0.021960,0.029280,1.013088,-0.560000,-0.560000,-0.420000
53.899563,0.001952,0.028792,0.998936,-0.700000,0.140000,-0.420000
53.903629,-0.011712,0.030256,1.012600,-0.560000,-1.120000,-0.560000
53.907695,-0.011224,0.027328,1.004304,-0.700000,0.000000,-0.280000
53.911761,0.000976,0.029768,1.000888,-0.420000,-0.700000,-0.280000
53.915827,-0.005368,0.030256,1.017480,-0.700000,0.280000,-0.280000
53.919894,-0.014152,0.020008,1.000400,-0.700000,-0.700000,-0.560000
53.923960,-0.008296,0.031720,1.005280,-0.700000,-0.560000,-0.420000
53.928026,0.001464,0.028792,1.004304,-0.420000,-0.700000,-0.420000
53.932092,-0.020008,0.021960,1.004792,-0.980000,-0.140000,-0.280000
53.936158,-0.010248,0.032208,1.018456,-0.560000,-0.420000,-0.280000
53.940224,-0.015128,0.027328,1.004792,-0.420000,-0.140000,-0.280000
53.944291,-0.001464,0.036600,0.994056,-0.560000,-0.140000,-0.420000
53.948357,-0.007808,0.018056,1.011624,-0.420000,-0.700000,-0.560000
53.952423,0.009272,0.032208,0.995520,-0.980000,-0.280000,-0.280000
53.956489,-0.015616,0.030744,1.018944,-0.700000,-0.280000,-0.280000
53.960555,-0.016592,0.030744,1.011624,-0.420000,-0.420000,-0.420000
53.964621,-0.005856,0.030744,1.020896,-0.560000,-0.700000,-0.140000
53.968688,-0.001464,0.023424,0.991128,-0.700000,0.000000,-0.420000
53.972754,-0.019520,0.031232,1.016504,-0.560000,-0.980000,-0.280000
53.976820,-0.002928,0.029768,0.991616,-0.840000,0.000000,-0.560000
53.980886,-0.012200,0.024400,0.998936,-0.560000,-0.420000,-0.560000
53.984952,0.000000,0.021960,1.007720,-0.560000,-0.280000,-0.420000
53.989019,-0.019032,0.024888,1.013576,-0.840000,-0.560000,-0.280000
53.993085,0.002440,0.040016,1.006744,-0.280000,-0.560000,-0.280000
53.997151,-0.012200,0.036600,0.999424,-0.980000,-0.420000,-0.280000
54.001217,0.002928,0.021472,1.018944,-0.840000,-0.560000,-0.420000
54.005283,-0.016104,0.027328,1.000400,-0.420000,-0.420000,-0.560000
54.009349,-0.004880,0.022936,0.999424,-0.560000,-0.280000,-0.140000
54.013416,-0.011224,0.028304,1.001376,-0.560000,-0.280000,-0.280000
54.017482,-0.001464,0.041480,1.017968,-0.420000,-0.560000,-0.420000
54.021548,-0.011224,0.021472,1.001376,-0.700000,-0.420000,-0.420000
54.025614,-0.003904,0.028304,1.019920,-0.700000,-0.280000,-0.280000
54.029680,-0.016592,0.022936,1.000888,-0.280000,-0.560000,-0.560000
54.033746,-0.010248,0.034648,1.003328,-0.840000,-0.140000,-0.280000
54.037813,-0.013664,0.025864,0.993568,-0.140000,-0.840000,-0.420000
54.041879,-0.008784,0.025864,1.022848,-0.700000,-0.420000,-0.280000
54.045945,-0.004880,0.021960,0.976488,-0.840000,-0.420000,-0.420000
54.050011,-0.004392,0.035136,1.025776,-0.700000,-0.280000,-0.280000
54.054077,-0.007320,0.024400,0.999912,-0.280000,-0.280000,-0.420000
54.058144,-0.016592,0.027328,1.003816,-0.420000,-0.560000,-0.560000
54.062210,-0.004880,0.029280,1.009672,-0.280000,-0.560000,-0.420000
54.066276,0.000976,0.037576,1.007232,-0.840000,-0.560000,-0.140000
54.070342,-0.005856,0.020496,1.020896,-0.700000,-0.280000,-0.420000
54.074408,-0.005368,0.029768,0.992592,-0.560000,-0.560000,-0.280000
54.078474,-0.015128,0.023912,1.013576,-0.840000,-0.140000,-0.420000
54.082541,-0.001952,0.031232,1.002352,-0.140000,-0.700000,-0.420000
54.086607,-0.015616,0.024888,1.004304,-0.560000,-0.420000,-0.560000
54.090673,-0.008784,0.026840,1.009184,-0.700000,-0.280000,0.000000
54.094739,0.005856,0.030256,1.006256,-0.560000,-0.280000,-0.420000
54.098805,-0.013664,0.032696,1.002352,-0.560000,-0.280000,-0.420000
54.102871,-0.001464,0.030256,1.000400,-0.420000,-0.280000,-0.420000
54.106938,-0.014152,0.022448,1.010160,-0.560000,-0.700000,-0.420000
54.111004,-0.012688,0.030744,1.003328,-0.560000,0.000000,-0.420000
54.115070,-0.011224,0.025864,0.995032,-0.560000,-0.420000,-0.140000
54.119136,-0.001952,0.040016,1.022848,-0.560000,-0.280000,-0.420000
54.123202,-0.013176,0.013664,0.994544,-0.700000,-0.140000,-0.280000
54.127269,-0.000976,0.035624,1.018456,-0.560000,-0.700000,-0.280000
54.131335,-0.000488,0.026352,1.000400,-0.420000,-0.560000,-0.560000
54.135401,-0.010248,0.024400,1.011624,-0.560000,-0.280000,-0.420000
54.139467,-0.015616,0.021960,1.005768,-0.420000,-0.280000,-0.420000
54.143533,-0.005368,0.034648,1.017480,-0.700000,-0.560000,-0.560000
54.147599,-0.020008,0.034160,0.989176,-0.980000,0.280000,-0.280000
54.151666,-0.000976,0.024400,1.011136,-0.420000,-1.120000,-0.420000
54.155732,-0.009760,0.026840,1.001864,-0.560000,0.000000,-0.560000
54.159798,-0.002440,0.031232,1.012112,-0.280000,-0.420000,-0.280000
54.163864,-0.012688,0.021472,1.008208,-0.700000,-0.560000,-0.560000
54.167930,-0.006832,0.035136,1.013576,-0.700000,-0.420000,-0.140000
54.171997,0.001952,0.039040,0.995520,-0.560000,-0.420000,-0.280000
54.176063,-0.019520,0.030256,1.008696,-0.560000,-0.980000,-0.280000
54.180129,-0.002440,0.016104,0.994544,-0.560000,-0.140000,-0.280000
54.184195,-0.005368,0.023424,1.007720,-0.420000,-0.420000,-0.700000
54.188261,-0.016592,0.020008,0.999912,-0.980000,0.000000,-0.420000
54.192327,-0.004392,0.030256,1.015528,-0.560000,-0.420000,-0.420000
54.196394,-0.005368,0.031232,1.011136,-0.560000,-0.700000,-0.420000
54.200460,-0.005856,0.037576,0.992592,-0.840000,-0.420000,-0.280000
54.204526,-0.009272,0.025864,1.016016,-0.560000,-0.560000,-0.140000
54.208592,-0.003416,0.031232,1.018944,-0.700000,-0.420000,-0.560000
54.212658,-0.023912,0.019032,0.991128,-0.700000,-0.280000,-0.140000
54.216724,0.005856,0.037576,1.007232,-0.420000,-0.420000,-0.420000
54.220791,-0.014152,0.030744,1.005280,-0.560000,-0.700000,-0.420000
54.224857,-0.009272,0.024888,1.001864,-0.700000,-0.420000,-0.280000
54.228923,-0.004392,0.028304,1.007720,-0.700000,-0.700000,-0.280000
54.232989,0.005856,0.017568,1.000888,-0.840000,-0.280000,-0.560000
54.237055,-0.021472,0.027816,1.007720,-0.420000,0.000000,-0.140000
54.241122,-0.008784,0.040016,1.000400,-0.280000,-0.980000,-0.420000
54.245188,-0.011712,0.020008,1.028704,-0.840000,-0.280000,-0.280000
54.249254,-0.001464,0.026352,0.970632,-0.840000,-0.420000,-0.280000
54.253320,-0.015128,0.038064,1.028216,-0.700000,-0.560000,-0.420000
54.257386,0.002440,0.027328,1.003816,-0.560000,-0.280000,-0.140000
54.261452,-0.017568,0.013664,1.004304,-0.560000,-0.420000,-0.700000
54.265519,0.003904,0.038552,1.005280,-0.420000,-0.420000,-0.420000
54.269585,-0.011712,0.030744,1.006744,-0.560000,-0.140000,-0.420000
54.273651,-0.000488,0.028792,1.026752,-0.840000,-0.560000,-0.280000
54.277717,-0.023424,0.028792,0.994544,-0.840000,-0.420000,-0.280000
54.281783,0.003416,0.029280,1.011624,-0.420000,-0.560000,-0.140000
54.285849,-0.017568,0.028304,1.008208,-0.420000,-0.560000,-0.700000
54.289916,-0.003904,0.022448,0.998936,-0.700000,-0.560000,-0.140000
54.293982,-0.012200,0.028304,1.008208,-0.560000,-0.280000,-0.420000
54.298048,0.000000,0.032208,0.997472,-0.560000,-0.420000,-0.420000
54.302114,-0.020496,0.033672,1.011136,-0.560000,-0.700000,-0.420000
54.306180,0.003904,0.023424,0.988688,-0.700000,0.000000,-0.140000
54.310247,-0.007320,0.029280,1.018944,-0.420000,-0.980000,-0.560000
54.314313,-0.015616,0.029280,1.013576,-0.280000,0.280000,-0.280000
54.318379,0.001952,0.020496,0.997960,-0.700000,-0.840000,-0.280000
54.322445,-0.015616,0.036600,1.017480,-0.840000,0.280000,-0.280000
54.326511,-0.009760,0.022448,0.996496,-0.280000,-0.980000,-0.560000
54.330577,-0.012200,0.037088,1.020896,-0.840000,-0.420000,-0.280000
54.334644,0.012200,0.020984,0.986736,-0.280000,-0.840000,-0.420000
54.338710,-0.007808,0.027328,1.016016,-0.980000,0.140000,-0.140000
54.342776,-0.019032,0.018056,1.004304,-0.420000,-0.560000,-0.420000
54.346842,-0.007320,0.039040,1.015040,-0.280000,-0.280000,-0.420000
54.350908,-0.019032,0.027328,0.989664,-0.560000,-0.280000,-0.420000
54.354974,-0.002440,0.037576,1.011136,-0.700000,-0.560000,-0.280000
54.359041,-0.010248,0.024888,1.007720,-0.280000,-0.700000,-0.560000
54.363107,0.007320,0.023424,1.000400,-0.560000,-0.140000,-0.280000
54.367173,-0.016592,0.014640,1.010648,-0.700000,-0.700000,-0.560000
54.371239,-0.005856,0.043432,1.021872,-0.420000,0.140000,-0.140000
54.375305,-0.000488,0.025864,0.989664,-0.420000,-0.840000,-0.280000
54.379372,-0.018544,0.037576,1.018456,-0.560000,-0.280000,-0.280000
54.383438,-0.005368,0.024400,0.997472,-0.420000,-0.420000,-0.280000
54.387504,-0.009760,0.031232,1.016504,-0.840000,-0.420000,-0.420000
54.391570,-0.011224,0.018056,0.994544,-0.420000,-0.280000,-0.420000
54.395636,0.000488,0.019520,1.014064,-0.560000,-0.280000,-0.280000
54.399702,-0.012688,0.038064,1.005280,-0.420000,-0.420000,-0.560000
54.403769,-0.013176,0.044408,0.995032,-0.560000,-0.560000,-0.280000
54.407835,-0.006344,0.026352,1.012112,-0.700000,-0.420000,-0.280000
54.411901,-0.008296,0.023424,1.009184,-0.700000,-0.840000,-0.560000
54.415967,-0.015128,0.029280,1.001864,-0.700000,-0.140000,-0.280000
54.420033,0.000976,0.024400,1.002352,-0.700000,-0.560000,-0.280000
54.424099,-0.007320,0.030256,1.013088,-0.280000,-0.280000,-0.560000
54.428166,-0.005368,0.021960,0.994056,-0.560000,-0.560000,-0.420000
54.432232,-0.000488,0.032208,1.019920,-0.840000,-0.280000,-0.280000
54.436298,-0.009272,0.032208,1.005768,-0.560000,-0.840000,-0.420000
54.440364,-0.005368,0.027328,1.011136,-0.840000,0.000000,-0.140000
54.444430,-0.012200,0.017568,0.988200,-0.280000,-0.840000,-0.420000
54.448497,-0.011224,0.036600,1.023824,-0.560000,0.000000,-0.420000
54.452563,-0.017080,0.028304,0.984784,-0.700000,-0.420000,-0.560000
54.456629,-0.007320,0.026840,1.013088,-0.560000,-0.560000,-0.420000
54.460695,-0.006832,0.026352,1.005768,-0.700000,-0.280000,-0.420000
54.464761,-0.002440,0.030744,1.018456,-0.560000,-0.700000,-0.280000
54.468827,-0.006832,0.022936,0.998448,-0.700000,-0.560000,-0.420000
54.472894,-0.003416,0.035624,1.016504,-0.700000,-0.420000,-0.420000
54.476960,-0.014640,0.021960,1.002352,-0.700000,0.000000,-0.280000
54.481026,-0.010736,0.030744,1.012600,-0.560000,-0.420000,-0.280000
54.485092,-0.005368,0.032208,0.992104,-0.840000,-0.420000,-0.280000
54.489158,-0.000488,0.039040,1.024312,-0.560000,-0.700000,-0.420000
54.493224,-0.006832,0.016104,0.989664,-0.560000,-0.420000,-0.420000
54.497291,-0.009272,0.020984,1.011624,-0.980000,-0.420000,-0.280000
54.501357,-0.010248,0.040016,0.992104,-0.280000,0.000000,-0.700000
54.505423,-0.020496,0.034160,1.017480,-0.700000,-0.560000,-0.280000
54.509489,-0.000488,0.026352,1.006744,-0.420000,-0.280000,-0.420000
54.513555,-0.008784,0.029280,0.994056,-0.420000,-1.260000,-0.420000
54.517622,-0.001952,0.026352,1.012600,-0.840000,0.000000,-0.140000
54.521688,0.003416,0.018544,1.005280,-0.700000,-0.420000,-0.420000
54.525754,-0.015128,0.032696,1.019432,-0.280000,0.000000,-0.280000
54.529820,-0.017080,0.028792,0.990640,-0.560000,-0.560000,-0.420000
54.533886,-0.008296,0.025864,1.018456,-0.420000,-0.700000,-0.560000
54.537952,-0.004880,0.037088,1.008208,-0.700000,-0.840000,-0.280000
54.542019,-0.008784,0.026352,0.991616,-0.840000,-0.420000,-0.280000
54.546085,-0.004392,0.018544,1.016016,-0.420000,-0.280000,-0.420000
54.550151,-0.014640,0.018544,1.003328,-0.420000,-0.280000,-0.420000
54.554217,-0.008296,0.034160,0.997472,-0.700000,-0.420000,-0.420000
54.558283,-0.008784,0.034648,1.007720,-0.420000,-0.700000,-0.140000
54.562349,-0.009272,0.028792,0.996984,-0.700000,-0.840000,-0.420000
54.566416,-0.005856,0.034160,1.014552,-0.980000,-0.140000,-0.280000
54.570482,0.003904,0.024400,1.001864,-0.560000,-0.280000,-0.420000
54.574548,-0.016104,0.029280,1.034072,-0.560000,-0.420000,-0.420000
54.578614,-0.009272,0.020008,0.982344,-0.280000,-0.280000,-0.560000
54.582680,-0.011712,0.034648,1.017480,-0.700000,-0.980000,-0.280000
54.586747,-0.000976,0.028304,0.996984,-0.700000,-0.140000,-0.280000
54.590813,-0.012688,0.036112,1.008696,-0.280000,-0.840000,-0.560000
54.594879,-0.008296,0.021472,1.003328,-0.700000,0.140000,-0.140000
54.598945,-0.012200,0.023912,1.009672,-0.420000,-0.560000,-0.280000
54.603011,0.001464,0.028792,0.996984,-0.280000,-0.140000,-0.420000
54.607077,-0.018544,0.035136,1.008696,-0.420000,-0.840000,-0.420000
54.611144,-0.001952,0.023912,0.999424,-0.840000,0.000000,-0.140000
54.615210,-0.010736,0.034648,1.019920,-0.560000,-0.840000,-0.420000
54.619276,-0.009272,0.025864,0.994056,-0.420000,-0.140000,-0.280000
54.623342,0.002440,0.028792,1.015040,-0.420000,-0.420000,-0.280000
54.627408,-0.011712,0.030256,1.008208,-0.560000,-0.140000,-0.280000
54.631474,-0.012688,0.019032,0.992104,-0.560000,-0.280000,-0.560000
54.635541,-0.008784,0.037088,1.015528,-0.560000,-0.280000,-0.280000
54.639607,-0.002440,0.024888,1.004792,-0.560000,-0.840000,-0.420000
54.643673,-0.013176,0.029768,1.010648,-0.700000,0.140000,-0.140000
54.647739,-0.005368,0.028304,0.995032,-0.280000,-0.980000,-0.420000
54.651805,-0.013664,0.027328,1.024800,-0.700000,-0.140000,-0.420000
54.655871,-0.005368,0.025864,0.983808,-0.140000,-0.280000,-0.560000
54.659938,-0.010248,0.029280,1.018456,-0.980000,-0.420000,-0.280000
54.664004,-0.011712,0.029768,0.991616,-0.560000,-0.420000,-0.280000
54.668070,-0.003416,0.033672,1.015528,-0.700000,-0.560000,-0.420000
54.672136,-0.009760,0.026352,1.004792,-0.560000,-0.700000,-0.420000
54.676202,-0.002440,0.024400,1.016504,-0.980000,-0.420000,-0.280000
54.680269,-0.009272,0.019032,1.000400,-0.420000,0.140000,-0.560000
54.684335,-0.012688,0.030744,1.012600,-0.840000,-0.560000,-0.280000
54.688401,-0.012688,0.031720,1.010648,-0.560000,-0.280000,-0.560000
54.692467,0.008784,0.037576,0.995032,-0.700000,-0.700000,-0.280000
54.696533,-0.010248,0.024888,1.016016,-0.840000,-0.420000,-0.420000
54.700599,-0.009272,0.025376,0.998448,-0.700000,-0.280000,0.140000
54.704666,-0.007320,0.035136,1.008696,-0.560000,-0.420000,-0.560000
54.708732,-0.016104,0.023912,1.001376,-0.560000,-0.420000,0.000000
54.712798,-0.006832,0.033184,1.018944,-0.560000,-0.560000,-0.700000
54.716864,-0.010736,0.029768,1.000888,-0.560000,-0.700000,-0.420000
54.720930,-0.002928,0.033672,0.996496,-0.840000,-0.420000,-0.280000
54.724996,-0.005368,0.015616,1.007232,-0.980000,-0.140000,-0.280000
54.729063,-0.013664,0.024400,1.013576,-0.280000,-0.420000,-0.560000
54.733129,-0.012688,0.026840,0.993568,-0.420000,-0.280000,-0.420000
54.737195,-0.003416,0.038064,1.022360,-0.700000,-0.700000,-0.280000
54.741261,-0.010736,0.021960,0.995032,-0.560000,-0.420000,-0.420000
54.745327,-0.001464,0.032208,1.005280,-0.840000,-0.560000,-0.140000
54.749394,-0.007808,0.031232,1.008696,-0.840000,-0.140000,-0.280000
54.753460,-0.001952,0.021960,1.023824,-0.420000,-0.560000,-0.280000
54.757526,-0.018056,0.036600,0.992104,-0.700000,0.140000,-0.420000
54.761592,-0.003416,0.026352,1.004792,-0.420000,-0.840000,-0.280000
54.765658,-0.014152,0.027816,1.009184,-0.560000,-0.560000,-0.700000
54.769724,-0.002928,0.025376,0.994056,-0.980000,-0.280000,-0.140000
54.773791,-0.012200,0.033184,1.010160,-0.560000,-0.560000,-0.420000
54.777857,-0.005368,0.026840,1.022848,-0.420000,-0.280000,-0.140000
54.781923,-0.010248,0.014152,1.010160,-0.420000,-0.840000,-0.560000
54.785989,-0.012200,0.033672,1.005280,-0.560000,-0.420000,-0.280000
54.790055,0.000488,0.037576,0.990152,-0.560000,-0.420000,-0.420000
54.794121,-0.014152,0.029280,1.021384,-0.700000,-0.420000,-0.280000
54.798188,-0.003904,0.028304,0.996984,-0.560000,-0.280000,-0.280000
54.802254,-0.008784,0.031720,1.009672,-0.700000,-0.280000,-0.140000
54.806320,0.002928,0.026840,0.990152,-0.420000,-0.420000,-0.420000
54.810386,-0.014152,0.031720,1.018456,-0.420000,-0.420000,-0.420000
54.814452,-0.003416,0.021472,0.996008,-0.560000,-0.420000,-0.420000
54.818519,-0.011712,0.029768,1.011624,-0.560000,-0.280000,-0.560000
54.822585,-0.014640,0.021960,1.009184,-0.560000,-0.560000,-0.280000
54.826651,-0.011224,0.036112,1.012600,-0.560000,-0.420000,-0.280000
54.830717,0.001464,0.028304,0.996008,-0.280000,-0.560000,-0.280000
54.834783,-0.012688,0.022448,1.008696,-0.840000,-0.280000,-0.280000
54.838849,-0.003904,0.029280,1.007720,-0.560000,-0.560000,-0.280000
54.842916,-0.001952,0.030256,1.001864,-0.840000,-0.420000,-0.420000
54.846982,-0.010736,0.027816,1.002352,-0.560000,-0.420000,-0.280000
54.851048,-0.009760,0.026352,1.010160,-0.280000,-0.560000,-0.280000
54.855114,-0.011712,0.033184,1.019432,-0.560000,-0.280000,-0.420000
54.859180,-0.003416,0.027328,0.982832,-0.700000,-0.140000,-0.420000
54.863246,-0.008784,0.018544,1.025776,-0.700000,-0.280000,-0.420000
54.867313,-0.005856,0.027816,0.987712,-0.700000,-0.280000,-0.280000
54.871379,-0.022936,0.044896,1.015040,-0.420000,-0.560000,-0.560000
54.875445,-0.003416,0.023424,1.003328,-0.280000,-0.700000,-0.280000
54.879511,-0.006344,0.021960,1.021872,-0.700000,-0.560000,-0.420000
54.883577,-0.006832,0.027816,0.998448,-0.840000,-0.140000,-0.140000
54.887644,-0.013664,0.031232,1.005768,-0.700000,-0.840000,-0.420000
54.891710,0.001952,0.023424,1.009672,-0.980000,-0.140000,-0.280000
54.895776,-0.011224,0.030256,0.998936,-0.280000,-0.700000,-0.560000
54.899842,-0.004880,0.034160,0.994056,-0.560000,-0.560000,-0.140000
54.903908,-0.008296,0.024400,1.021384,-0.980000,-0.280000,-0.280000
54.907974,-0.006832,0.027816,0.996496,-0.700000,0.000000,-0.280000
54.912041,-0.010736,0.032696,1.004792,-0.420000,-0.840000,-0.560000
54.916107,-0.008296,0.023424,1.011624,-0.560000,-0.140000,-0.420000
54.920173,-0.008296,0.028304,1.013088,-0.700000,-0.700000,-0.560000
54.924239,-0.014152,0.037088,1.003816,-0.840000,0.000000,-0.280000
54.928305,-0.002928,0.025376,0.996496,-0.280000,-0.560000,-0.280000
54.932371,-0.008296,0.021960,1.022360,-0.560000,0.000000,-0.420000
54.936438,-0.007320,0.020984,0.993568,-0.560000,-0.700000,-0.280000
54.940504,-0.010248,0.038552,1.018944,-0.840000,-0.280000,-0.420000
54.944570,0.002440,0.024400,0.999424,-0.420000,-0.840000,-0.420000
54.948636,-0.014640,0.029768,1.003328,-0.980000,0.000000,-0.280000
54.952702,-0.010248,0.026840,1.001376,-0.420000,-0.420000,-0.140000
54.956768,-0.015128,0.027328,1.017968,-0.700000,-0.560000,-0.280000
54.960835,-0.007808,0.029280,0.994544,-0.280000,-0.420000,-0.280000
54.964901,-0.006832,0.030744,1.002352,-0.840000,-0.700000,-0.420000
54.968967,0.003904,0.023912,1.000400,-0.980000,-0.280000,-0.420000
54.973033,-0.010248,0.035624,1.007720,-0.560000,0.000000,-0.420000
54.977099,-0.012688,0.017080,1.011624,-0.280000,-0.700000,-0.420000
54.981166,-0.005856,0.037088,1.011136,-0.560000,-0.280000,-0.280000
54.985232,-0.005856,0.022936,1.008696,-0.560000,-0.560000,-0.280000
54.989298,-0.013176,0.033672,1.015040,-0.560000,-0.700000,-0.280000
54.993364,-0.002440,0.024400,0.996984,-0.700000,-0.140000,-0.420000
54.997430,-0.014640,0.032208,1.007720,-0.420000,-0.560000,-0.560000
55.001496,-0.003904,0.022936,1.001376,-0.840000,0.000000,-0.420000
55.005563,-0.012688,0.026840,1.015040,-0.280000,-0.700000,-0.140000
55.009629,-0.002440,0.039040,0.997472,-0.700000,-0.280000,-0.280000
55.013695,-0.009272,0.029768,1.014064,-0.420000,-0.700000,-0.420000
55.017761,0.000976,0.023912,1.008208,-0.840000,0.000000,-0.280000
55.021827,-0.004880,0.020984,0.996984,-0.700000,-0.560000,-0.560000
55.025893,-0.024400,0.035136,0.998936,-0.280000,0.000000,-0.280000
55.029960,-0.003416,0.024400,1.003328,-0.140000,-0.560000,-0.280000
55.034026,-0.013176,0.039528,1.015040,-0.840000,-0.420000,-0.420000
55.038092,-0.003904,0.022936,0.995520,-0.420000,-0.700000,-0.420000
55.042158,-0.002928,0.031720,1.014064,-0.560000,-0.420000,-0.280000
55.046224,-0.001952,0.014640,1.006744,-0.560000,-0.560000,-0.560000
55.050291,-0.017080,0.032208,1.011624,-0.420000,0.140000,-0.280000
55.054357,-0.004880,0.033184,1.001376,-0.420000,-0.980000,-0.420000
55.058423,-0.008784,0.022936,1.019432,-0.700000,-0.420000,-0.280000
55.062489,-0.014640,0.036600,0.977952,-0.420000,-0.140000,-0.420000
55.066555,-0.004880,0.022936,1.014064,-0.980000,-0.560000,-0.280000
55.070621,0.001464,0.025864,1.008208,-0.560000,-0.140000,-0.420000
55.074688,-0.020008,0.026840,1.007232,-0.280000,-0.420000,-0.280000
55.078754,-0.012200,0.039528,1.010648,-0.420000,-0.840000,-0.420000
55.082820,-0.001464,0.028792,1.009184,-0.840000,-0.280000,-0.420000
55.086886,-0.010736,0.027816,1.008696,-0.700000,-0.280000,-0.280000
55.090952,-0.013176,0.028304,0.995032,-0.700000,-0.700000,-0.280000
55.095018,-0.000976,0.019032,1.011624,-0.560000,-0.280000,-0.420000
55.099085,-0.012688,0.024400,1.002352,-0.560000,-0.700000,-0.560000
55.103151,-0.004880,0.033184,1.016504,-0.700000,-0.560000,-0.420000
55.107217,0.000976,0.020496,0.993568,-0.700000,-0.140000,-0.140000
55.111283,-0.006832,0.032208,1.008208,-0.560000,-0.560000,-0.280000
55.115349,-0.013176,0.040016,1.013088,-0.700000,-0.560000,-0.280000
55.119416,0.000000,0.027816,1.005768,-0.700000,0.000000,-0.420000
55.123482,-0.016104,0.032208,1.000888,-0.420000,-0.700000,-0.560000
55.127548,-0.006832,0.020008,1.004792,-0.420000,-0.280000,-0.280000
55.131614,-0.007808,0.020496,1.002840,-0.700000,-0.420000,-0.280000
55.135680,-0.004392,0.038552,1.007232,-0.560000,-0.140000,-0.280000
55.139746,-0.013176,0.023912,1.009672,-0.420000,-0.420000,-0.420000
55.143813,-0.009272,0.030256,1.011136,-0.700000,-0.420000,-0.280000
55.147879,-0.002928,0.029768,0.998936,-0.700000,-0.700000,-0.560000
55.151945,-0.010248,0.028792,1.004792,-0.560000,0.280000,-0.420000
55.156011,-0.013176,0.024400,1.006744,-0.420000,-0.980000,-0.420000
55.160077,-0.012688,0.025376,1.006256,-0.560000,-0.280000,-0.420000
55.164143,-0.000488,0.033184,0.990640,-0.700000,-0.560000,-0.280000
55.168210,-0.001464,0.025376,1.018456,-0.840000,-0.280000,-0.280000
55.172276,-0.010248,0.028304,1.000888,-0.700000,-0.700000,-0.420000
55.176342,-0.009272,0.029768,1.010160,-0.700000,0.000000,-0.420000
55.180408,0.000000,0.020008,1.002352,-0.420000,-0.700000,-0.280000
55.184474,-0.016104,0.035136,1.022848,-0.560000,0.000000,-0.420000
55.188541,-0.012688,0.031720,0.997472,-0.560000,-0.700000,-0.420000
55.192607,-0.020496,0.034160,1.017480,-0.840000,-0.840000,-0.280000
55.196673,0.002928,0.017080,0.988688,-0.700000,-0.140000,-0.420000
55.200739,-0.003416,0.023912,1.014064,-0.560000,-0.840000,-0.560000
55.204805,-0.011712,0.027816,0.996496,-0.280000,0.140000,-0.280000
55.208871,-0.006344,0.026840,1.016992,-0.560000,-0.560000,-0.280000
55.212938,-0.004392,0.037088,0.999912,-0.560000,0.000000,-0.420000
55.217004,-0.005856,0.045384,1.008208,-0.700000,-0.980000,-0.420000
55.221070,-0.011224,0.017080,1.016504,-0.840000,0.000000,-0.280000
55.225136,-0.002928,0.023912,0.993568,-0.420000,-1.120000,-0.420000
55.229202,-0.020984,0.023424,1.015040,-0.560000,0.000000,-0.420000
55.233268,0.006344,0.034160,1.005280,-0.420000,-0.560000,-0.140000
55.237335,-0.023912,0.028304,1.010160,-0.560000,-0.140000,-0.560000
55.241401,-0.008296,0.037576,0.994056,-0.560000,-0.560000,-0.280000
55.245467,-0.008296,0.027816,1.009184,-0.840000,-0.420000,-0.420000
55.249533,0.010736,0.027816,1.015040,-0.560000,-0.280000,-0.280000
55.253599,-0.020496,0.016104,0.990640,-0.420000,-0.280000,-0.280000
55.257666,-0.007320,0.030256,1.012112,-0.420000,-0.560000,-0.420000
55.261732,-0.016104,0.026840,1.004304,-0.420000,-0.700000,-0.420000
55.265798,-0.000976,0.038552,1.004304,-1.120000,0.000000,-0.280000
55.269864,-0.016104,0.024888,1.002840,-0.280000,-0.700000,-0.420000
55.273930,0.002928,0.026840,0.996984,-0.420000,-0.140000,-0.420000
55.277996,-0.009760,0.021472,1.025288,-0.560000,-0.420000,-0.280000
55.282063,-0.007808,0.024400,0.999424,-0.420000,-0.420000,-0.420000
55.286129,-0.007320,0.032696,1.014552,-0.560000,-0.420000,-0.420000
55.290195,-0.007808,0.029280,1.003328,-0.840000,-0.280000,-0.140000
55.294261,-0.015616,0.035136,1.007232,-0.700000,-0.980000,-0.420000
55.298327,-0.006832,0.033184,1.010160,-0.420000,-0.280000,-0.140000
55.302393,-0.001952,0.022936,0.994544,-0.280000,-0.700000,-0.420000
55.306460,-0.001952,0.014640,1.007232,-0.840000,-0.140000,-0.560000
55.310526,-0.014152,0.032696,1.006256,-0.840000,-0.140000,-0.140000
55.314592,0.000000,0.040016,0.994056,-0.420000,-0.280000,-0.420000
55.318658,-0.019032,0.024400,1.020896,-0.420000,-0.420000,-0.280000
55.322724,-0.007320,0.024888,0.995032,-0.420000,-0.700000,-0.140000
55.326790,-0.003416,0.033672,1.019432,-0.700000,-0.700000,-0.560000
55.330857,-0.006344,0.021472,0.998448,-0.840000,-0.140000,-0.420000
55.334923,-0.010248,0.025864,1.013088,-0.560000,-0.560000,-0.280000
55.338989,-0.009760,0.033184,1.000400,-0.420000,-0.140000,-0.560000
55.343055,-0.016104,0.030256,1.005280,-0.560000,-0.700000,-0.420000
55.347121,-0.010736,0.032208,1.021384,-0.700000,-0.280000,-0.280000
55.351188,0.003904,0.026352,1.000400,-0.420000,-0.980000,-0.420000
55.355254,-0.008296,0.023912,1.004304,-1.120000,0.000000,-0.140000
55.359320,-0.009272,0.024888,1.008696,-0.560000,-0.700000,-0.420000
55.363386,-0.002440,0.026352,1.007232,-0.700000,-0.140000,-0.280000
55.367452,-0.016104,0.039040,0.989664,-0.560000,-0.420000,-0.560000
55.371518,-0.008296,0.026840,1.001864,-0.700000,-0.420000,-0.280000
55.375585,-0.000976,0.027816,1.015040,-0.980000,-0.700000,-0.420000
55.379651,-0.004880,0.025864,0.997472,-0.840000,0.000000,-0.280000
55.383717,-0.015616,0.026840,1.013088,-0.420000,-0.840000,-0.560000
55.387783,-0.002928,0.020984,1.024312,-0.560000,-0.280000,-0.280000
55.391849,-0.016592,0.021960,0.986736,-0.560000,-0.560000,-0.560000
55.395915,-0.013176,0.045384,1.023824,-0.700000,-0.420000,-0.280000
55.399982,0.000976,0.030256,0.997472,-0.560000,-0.420000,-0.560000
55.404048,-0.010736,0.015128,1.018456,-0.700000,-0.420000,-0.140000
55.408114,-0.004880,0.026840,0.981368,-0.280000,-0.420000,-0.420000
55.412180,-0.007808,0.025864,1.014064,-0.700000,-0.140000,-0.140000
55.416246,0.000000,0.036112,0.994544,-0.420000,-0.280000,-0.420000
55.420313,-0.017568,0.034160,1.000888,-0.700000,-0.560000,-0.280000
55.424379,0.001952,0.031720,1.019920,-0.560000,-0.280000,-0.280000
55.428445,-0.014152,0.020984,1.008696,-0.560000,-0.840000,-0.420000
55.432511,0.000976,0.031232,1.009184,-0.420000,-0.280000,-0.420000
55.436577,-0.009760,0.022448,1.004304,-0.840000,-0.420000,-0.280000
55.440643,-0.009760,0.027328,1.014064,-0.420000,-0.420000,-0.560000
55.444710,-0.017080,0.030744,0.986248,-0.700000,-0.280000,-0.560000
55.448776,-0.007320,0.039528,1.013576,-0.700000,-0.420000,-0.280000
55.452842,-0.006832,0.020984,1.001864,-0.840000,-0.700000,-0.420000
55.456908,-0.010736,0.025376,1.013576,-0.420000,-0.140000,-0.280000
55.460974,-0.004880,0.024888,0.983808,-0.560000,-1.120000,-0.280000
55.465040,-0.009272,0.032208,1.040416,-0.840000,-0.280000,-0.560000
55.469107,-0.006344,0.029768,0.976000,-0.560000,-0.280000,-0.280000
55.473173,-0.006344,0.028792,1.018944,-0.700000,-0.560000,-0.420000
55.477239,-0.005856,0.023424,0.979904,-0.420000,0.000000,-0.280000
55.481305,-0.007320,0.030744,1.033584,-0.420000,-0.560000,-0.280000
55.485371,-0.002440,0.025864,0.992592,-0.560000,-0.420000,-0.420000
55.489437,-0.001464,0.034648,1.028216,-0.700000,-0.560000,-0.420000
55.493504,-0.017080,0.017080,0.991616,-0.700000,0.000000,-0.420000
55.497570,-0.015128,0.039528,1.018944,-0.560000,-0.840000,-0.420000
55.501636,-0.015128,0.024888,1.000400,-0.420000,-0.140000,-0.420000
55.505702,-0.002440,0.036112,1.005280,-0.700000,-0.840000,-0.280000
55.509768,-0.001952,0.019032,0.998936,-0.420000,-0.560000,-0.420000
55.513835,-0.005368,0.029280,1.019920,-0.840000,-0.280000,-0.280000
55.517901,-0.006344,0.026352,0.981368,-0.560000,-0.280000,-0.280000
55.521967,-0.008296,0.040504,1.016992,-0.560000,-0.280000,-0.280000
55.526033,-0.020496,0.026840,1.008696,-0.280000,-0.140000,-0.420000
55.530099,-0.011224,0.030744,0.996008,-0.420000,-1.260000,-0.420000
55.534165,0.002928,0.022448,1.009672,-0.840000,0.000000,-0.280000
55.538232,0.000976,0.015616,1.003328,-0.840000,-0.420000,-0.280000
55.542298,-0.010736,0.038064,1.027240,-0.420000,-0.140000,-0.560000
55.546364,-0.010736,0.022448,0.983808,-0.420000,-0.420000,-0.420000
55.550430,-0.015616,0.034160,1.019432,-0.700000,-0.420000,-0.280000
55.554496,-0.001464,0.032696,1.000400,-0.560000,-0.840000,-0.560000
55.558562,-0.011712,0.030256,1.005768,-0.840000,-0.140000,-0.420000
55.562629,-0.002928,0.028304,1.000888,-0.840000,0.000000,0.000000
55.566695,-0.013664,0.026352,1.030656,-0.420000,-0.280000,-0.700000
55.570761,-0.012688,0.023424,0.992104,-0.280000,-0.420000,-0.420000
55.574827,-0.005368,0.025864,1.003328,-0.700000,-0.560000,-0.700000
55.578893,0.001464,0.023912,0.999912,-0.560000,-0.560000,-0.280000
55.582959,-0.019032,0.038064,1.013088,-0.840000,-0.280000,-0.420000
55.587026,0.000488,0.026352,1.002840,-0.560000,-0.700000,-0.280000
55.591092,-0.004392,0.020984,1.014552,-0.840000,-0.280000,-0.140000
55.595158,-0.008784,0.021960,1.003816,-0.560000,0.000000,-0.280000
55.599224,-0.020496,0.039528,1.006744,-0.280000,-0.700000,-0.420000
55.603290,0.000000,0.029280,0.997960,-0.700000,0.140000,-0.560000
55.607357,-0.002440,0.028304,1.010648,-0.700000,-0.840000,-0.280000
55.611423,-0.011712,0.028792,1.009672,-0.840000,0.000000,-0.420000
55.615489,-0.008296,0.035624,1.011624,-0.420000,-0.980000,-0.140000
55.619555,0.000488,0.026352,0.990640,-0.420000,0.140000,-0.560000
55.623621,-0.005856,0.028304,1.009184,-0.560000,-0.700000,-0.280000
55.627687,-0.030256,0.033184,1.017480,-0.840000,0.140000,-0.420000
55.631754,0.006832,0.025864,0.994544,-0.280000,-1.120000,-0.420000
55.635820,-0.014152,0.015616,1.005280,-0.980000,0.140000,-0.560000
55.639886,0.003416,0.029280,1.012112,-0.700000,-0.560000,0.000000
55.643952,-0.012200,0.036600,1.013088,-0.420000,-0.420000,-0.560000
55.648018,-0.007808,0.027328,1.002840,-0.420000,-0.280000,-0.560000
55.652084,-0.009760,0.026352,1.003816,-0.980000,-0.280000,-0.280000
55.656151,-0.006344,0.034160,1.013576,-0.420000,-0.560000,-0.560000
55.660217,-0.015128,0.024400,0.995520,-0.700000,-0.420000,-0.280000
55.664283,-0.002440,0.024400,1.006744,-0.840000,-0.560000,-0.280000
55.668349,-0.011224,0.035624,0.997960,-0.700000,-0.280000,-0.280000
55.672415,-0.011224,0.032696,1.017480,-0.560000,-0.280000,-0.560000
55.676482,-0.007808,0.016592,0.997960,-0.700000,-0.700000,-0.140000
55.680548,-0.001952,0.024888,1.002840,-0.700000,-0.140000,-0.700000
55.684614,-0.018544,0.040504,1.006256,-0.700000,-0.560000,-0.140000
55.688680,0.003904,0.032208,1.013576,-0.280000,-0.700000,-0.560000
55.692746,-0.004880,0.018544,1.017480,-0.700000,-0.420000,-0.280000
55.696812,-0.007808,0.026352,0.990152,-0.840000,-0.280000,-0.280000
55.700879,-0.019520,0.031232,1.016992,-0.560000,-0.280000,-0.420000
55.704945,0.000000,0.023424,0.996496,-0.280000,-0.560000,-0.420000
55.709011,-0.019520,0.033184,1.006256,-0.700000,-0.420000,-0.280000
55.713077,0.003416,0.032696,1.001376,-0.560000,-0.980000,-0.420000
55.717143,-0.014640,0.023912,1.019920,-1.120000,0.000000,-0.280000
55.721209,0.005856,0.036112,0.995520,-0.420000,-0.140000,-0.280000
55.725276,-0.015128,0.026840,1.016992,-0.560000,-0.280000,-0.420000
55.729342,-0.007320,0.022936,1.004304,-0.420000,-0.420000,-0.280000
55.733408,-0.015128,0.031232,1.005768,-0.560000,-0.980000,-0.560000
55.737474,-0.001464,0.036600,1.004792,-0.980000,-0.280000,-0.280000
55.741540,-0.013664,0.024400,1.006256,-0.700000,-0.560000,-0.280000
55.745606,-0.001952,0.020984,1.020896,-0.420000,-0.280000,-0.280000
55.749673,-0.016592,0.023912,0.983808,-0.700000,-0.420000,-0.560000
55.753739,-0.010248,0.034648,1.021384,-0.420000,-0.560000,0.000000
55.757805,-0.003904,0.029280,0.989664,-0.420000,-0.700000,-0.560000
55.761871,-0.006344,0.025864,1.017968,-1.120000,-0.140000,-0.140000
55.765937,-0.006344,0.028304,0.988688,-0.420000,-0.280000,-0.280000
55.770004,-0.007808,0.032208,1.026264,-0.560000,-0.280000,-0.280000
55.774070,-0.010248,0.025376,0.998936,-0.280000,-0.700000,-0.420000
55.778136,-0.003904,0.024888,1.002840,-0.840000,-0.280000,-0.420000
55.782202,-0.013176,0.029768,1.008208,-0.560000,-0.560000,-0.560000
55.786268,-0.008784,0.032696,1.007720,-0.560000,-0.140000,-0.420000
55.790334,-0.009272,0.022936,1.003328,-0.420000,-0.840000,-0.420000
55.794401,0.002928,0.033672,1.021872,-0.840000,0.000000,-0.140000
55.798467,-0.010736,0.017080,0.998448,-0.280000,-0.560000,-0.420000
55.802533,-0.019520,0.040016,1.010160,-0.560000,-0.840000,-0.280000
55.806599,0.013176,0.022448,0.993568,-0.700000,-0.140000,-0.420000
55.810665,-0.016592,0.032696,1.013088,-0.560000,-0.420000,-0.420000
55.814731,-0.011712,0.026352,0.996008,-0.280000,-0.280000,-0.280000
55.818798,-0.015616,0.027816,1.013088,-0.700000,-0.700000,-0.140000
55.822864,0.000000,0.035624,0.993568,-0.420000,0.140000,-0.420000
55.826930,-0.006344,0.033184,1.018456,-0.700000,-0.700000,-0.280000
55.830996,-0.012200,0.023912,1.014064,-0.700000,-0.280000,-0.420000
55.835062,-0.004392,0.023424,0.993568,-0.420000,-0.700000,-0.420000
55.839128,-0.003904,0.030256,1.012112,-0.700000,-0.280000,-0.420000
55.843195,-0.011712,0.016592,1.004792,-0.420000,-0.140000,-0.140000
55.847261,-0.010736,0.051240,1.010160,-0.140000,-0.560000,-0.560000
55.851327,-0.001464,0.013664,1.000400,-0.840000,-0.280000,-0.420000
55.855393,-0.004880,0.027328,1.021384,-0.700000,-0.420000,-0.280000
55.859459,-0.008784,0.026840,1.003328,-0.560000,-0.700000,-0.420000
55.863526,-0.015128,0.034648,1.006256,-0.560000,-0.140000,-0.420000
55.867592,-0.017568,0.022448,0.994056,-0.280000,-0.420000,-0.140000
55.871658,-0.009272,0.034648,1.025288,-0.700000,-0.700000,-0.420000
55.875724,-0.006344,0.024888,0.971120,-0.840000,-0.420000,-0.280000
55.879790,0.002440,0.026840,1.022848,-0.840000,-0.560000,-0.420000
55.883856,-0.006344,0.024888,0.995032,-0.700000,-0.140000,-0.420000
55.887923,-0.008784,0.032208,1.016504,-0.420000,-0.560000,-0.280000
55.891989,-0.017568,0.030744,0.988688,-0.280000,-0.140000,-0.420000
55.896055,0.008784,0.028792,1.022848,-0.700000,-0.700000,-0.280000
55.900121,-0.020496,0.027328,1.011136,-0.840000,0.000000,-0.280000
55.904187,-0.001952,0.031232,1.000400,-0.420000,-0.840000,-0.420000
55.908253,-0.008296,0.020008,1.015528,-0.700000,0.140000,-0.560000
55.912320,-0.008784,0.028792,0.996008,-0.280000,-0.840000,-0.420000
55.916386,-0.017568,0.031720,1.011136,-0.700000,-0.280000,-0.560000
55.920452,-0.002440,0.028792,1.007232,-0.560000,-0.560000,-0.140000
55.924518,-0.006832,0.033184,1.009672,-0.840000,-0.140000,-0.420000
55.928584,-0.008296,0.030744,1.001864,-0.700000,-0.420000,-0.280000
55.932650,-0.008296,0.029280,1.005768,-0.560000,-0.560000,-0.420000
55.936717,-0.012200,0.023912,1.005280,-0.420000,-0.700000,-0.420000
55.940783,-0.010248,0.025864,0.997472,-0.840000,-0.140000,-0.420000
55.944849,-0.003416,0.031720,1.005280,-0.420000,-0.560000,-0.280000
55.948915,-0.009272,0.035624,1.005768,-0.700000,-0.280000,-0.420000
55.952981,-0.007808,0.020008,1.010160,-0.700000,-0.420000,-0.280000
55.957048,-0.005856,0.030744,1.003816,-0.560000,-0.420000,-0.280000
55.961114,-0.007808,0.030744,1.005280,-0.840000,-0.560000,-0.560000
55.965180,-0.004392,0.029768,1.001376,-0.560000,-0.140000,-0.280000
55.969246,-0.011712,0.021472,1.010648,-0.560000,-0.840000,-0.560000
55.973312,-0.012688,0.020496,1.013088,-0.560000,-0.420000,-0.280000
55.977378,0.000000,0.034648,0.993568,-0.840000,-0.420000,-0.420000
55.981445,-0.011224,0.028792,1.018456,-0.420000,-0.700000,-0.280000
55.985511,-0.006344,0.028792,1.004304,-0.700000,-0.140000,-0.560000
55.989577,-0.010736,0.027328,1.003328,-0.280000,-0.700000,-0.560000
55.993643,-0.004880,0.033672,1.000400,-0.980000,-0.280000,-0.280000
55.997709,-0.009272,0.024888,1.023824,-0.420000,-0.280000,-0.140000
56.001775,-0.005368,0.035624,0.996984,-0.280000,-0.560000,-0.420000
56.005842,-0.010736,0.029768,1.002352,-0.700000,-0.700000,-0.140000
56.009908,0.002928,0.020008,1.014064,-0.840000,0.000000,-0.420000
56.013974,-0.019032,0.032696,1.011624,-0.420000,-0.840000,-0.420000
56.018040,-0.003904,0.027328,0.996984,-0.700000,0.140000,-0.420000
56.022106,-0.006832,0.013176,1.004304,-0.420000,-0.560000,-0.280000
56.026173,-0.010248,0.032696,1.009672,-0.560000,-0.280000,-0.280000
56.030239,-0.007320,0.043920,0.999912,-0.700000,-0.700000,-0.560000
56.034305,0.002928,0.019032,1.011136,-0.420000,-0.420000,-0.280000
56.038371,-0.009272,0.031232,1.016992,-0.560000,-0.840000,-0.420000
56.042437,-0.020984,0.019520,1.003328,-0.560000,-0.140000,-0.420000
56.046503,-0.009760,0.038064,1.007720,-0.280000,-0.700000,-0.420000
56.050570,-0.010736,0.032208,0.999912,-0.560000,-0.140000,-0.420000
56.054636,-0.013664,0.033184,1.002840,-0.700000,-0.420000,-0.560000
56.058702,0.004392,0.019520,1.002352,-0.700000,-0.560000,-0.280000
56.062768,-0.001952,0.023912,1.002840,-0.700000,-0.560000,-0.560000
56.066834,-0.007808,0.030744,1.021384,-0.280000,0.140000,-0.420000
56.070900,-0.009272,0.022936,0.996496,-0.280000,-1.260000,-0.140000
56.074967,-0.015616,0.036600,1.012600,-0.980000,0.000000,-0.280000
56.079033,-0.006832,0.025376,1.001376,-0.700000,-0.700000,-0.280000
56.083099,-0.017568,0.034160,1.000888,-0.700000,-0.700000,-0.140000
56.087165,0.012200,0.023424,1.001376,-0.560000,-0.140000,-0.560000
56.091231,-0.017568,0.021960,1.015528,-0.420000,-0.840000,-0.420000
56.095297,-0.002440,0.025376,0.997960,-0.560000,0.000000,-0.420000
56.099364,-0.011224,0.032208,1.023336,-0.700000,-0.560000,-0.560000
56.103430,-0.002440,0.041968,0.998936,-0.840000,-0.140000,-0.280000
56.107496,-0.020496,0.032696,1.013088,-0.560000,-0.840000,-0.280000
56.111562,0.001952,0.023912,1.012112,-0.280000,-0.280000,-0.420000
56.115628,-0.014640,0.020496,0.992592,-0.560000,-0.980000,-0.420000
56.119695,-0.006832,0.029768,0.995032,-0.420000,0.140000,-0.420000
56.123761,0.000000,0.020984,1.008696,-0.980000,-0.420000,-0.280000
56.127827,-0.013664,0.036112,1.014552,-0.560000,-0.420000,-0.280000
56.131893,-0.003416,0.029768,0.992104,-0.560000,-0.280000,-0.420000
56.135959,-0.005856,0.032696,1.031144,-0.560000,-0.420000,-0.140000
56.140025,-0.015128,0.026840,0.995032,-0.560000,-0.560000,-0.420000
56.144092,-0.005856,0.023912,1.008208,-0.560000,-0.420000,-0.420000
56.148158,-0.006832,0.020008,0.998448,-0.840000,-0.280000,-0.420000
56.152224,-0.016104,0.032696,1.021384,-0.560000,-0.560000,-0.280000
56.156290,-0.005368,0.039528,0.987712,-0.560000,-0.280000,-0.700000
