Time [s],lsm6dsv16x_acc_x [g],lsm6dsv16x_acc_y [g],lsm6dsv16x_acc_z [g],lsm6dsv16x_gyro_x [dps],lsm6dsv16x_gyro_y [dps],lsm6dsv16x_gyro_z [dps]
79.975846,-0.053680,-0.011224,0.999424,0.840000,0.420000,-0.840000
79.983934,-0.030744,0.018544,1.011624,0.840000,0.700000,-0.980000
79.992021,-0.036112,0.016592,1.014552,0.840000,0.700000,-0.840000
80.000109,-0.039528,0.019520,1.015040,1.120000,0.420000,-0.840000
80.008196,-0.046360,0.003416,0.989664,0.560000,0.700000,-0.840000
80.016284,-0.035624,0.016592,1.018456,0.980000,0.420000,-0.700000
80.024371,-0.036600,0.015616,1.012112,0.840000,0.420000,-0.840000
80.032459,-0.044896,0.011224,1.002352,0.840000,0.700000,-0.840000
80.040547,-0.033184,0.016592,1.015528,0.840000,0.700000,-0.840000
80.048634,-0.041480,0.010736,1.005768,0.840000,0.280000,-0.840000
80.056722,-0.043920,0.011224,1.011624,0.840000,0.840000,-1.260000
80.064809,-0.004392,0.013664,1.011136,0.840000,0.280000,-0.700000
80.072897,-0.068808,0.011224,1.000400,0.840000,0.000000,-0.420000
80.080985,-0.053192,0.019032,1.011136,0.840000,1.400000,-1.120000
80.089072,-0.018544,0.018056,1.025776,1.120000,0.560000,-0.980000
80.097160,-0.040504,0.012200,0.979416,0.560000,0.140000,-0.560000
80.105247,-0.048800,0.006344,1.027240,0.560000,0.560000,-0.840000
80.113335,-0.035136,0.011712,1.004304,0.700000,0.980000,-1.120000
80.121422,-0.033672,0.019520,1.014064,0.560000,0.140000,-0.700000
80.129510,-0.036600,0.009760,1.009672,0.840000,0.560000,-0.840000
80.137598,-0.044408,0.015616,1.000888,0.700000,0.560000,-0.840000
80.145685,-0.038064,0.017568,1.011136,0.840000,0.560000,-0.840000
80.153773,-0.042944,0.013664,1.013088,0.560000,0.560000,-0.840000
80.161860,-0.038064,0.006832,1.003816,0.840000,0.420000,-0.840000
80.169948,-0.043920,0.015616,1.001864,0.840000,0.420000,-0.840000
80.178036,-0.028792,0.012688,1.012112,0.840000,0.280000,-0.700000
80.186123,-0.039528,0.013664,1.012600,0.980000,0.560000,-0.840000
80.194211,-0.043920,0.010736,1.001376,0.840000,0.700000,-0.980000
80.202298,-0.034648,0.019032,1.020896,0.700000,0.840000,-0.700000
80.210386,-0.039040,0.010736,1.005280,0.840000,0.560000,-0.840000
80.218473,-0.045872,0.013664,0.999424,0.700000,0.560000,-0.840000
80.226561,-0.030744,0.016592,1.021384,0.840000,0.700000,-0.700000
80.234649,-0.041968,0.007320,1.001864,0.840000,0.560000,-0.840000
80.242736,-0.043920,0.017080,0.998448,0.840000,0.280000,-0.840000
80.250824,-0.028792,0.012688,1.027240,0.980000,0.700000,-0.840000
80.258911,-0.034160,0.015616,1.013088,0.980000,0.560000,-0.840000
80.266999,-0.053192,0.015128,1.000888,0.700000,0.980000,-0.980000
80.275086,-0.033672,0.011712,1.013088,0.980000,0.420000,-0.840000
80.283174,-0.041968,0.015616,1.010160,0.840000,0.840000,-0.840000
80.291262,-0.041480,0.009272,0.988200,0.700000,0.560000,-0.840000
80.299349,-0.035136,0.012688,1.031632,0.980000,0.140000,-0.840000
80.307437,-0.040016,0.012200,0.997472,0.840000,0.700000,-0.840000
80.315524,-0.039528,0.020984,1.011624,0.980000,0.560000,-0.840000
80.323612,-0.036112,0.007808,1.016016,0.980000,0.420000,-0.840000
80.331700,-0.048312,0.016592,1.004304,0.840000,0.840000,-0.840000
80.339787,-0.043920,0.015128,1.002352,0.700000,0.840000,-0.840000
80.347875,-0.030744,0.011224,1.017968,0.560000,0.000000,-0.700000
80.355962,-0.037576,0.014640,1.012112,0.700000,0.560000,-0.840000
80.364050,-0.039040,0.017080,0.998936,0.840000,0.840000,-0.980000
80.372137,-0.037088,0.010736,1.003328,0.840000,0.420000,-0.700000
80.380225,-0.043920,0.015128,1.021384,0.840000,0.700000,-0.840000
80.388313,-0.033672,0.015128,1.001376,0.840000,0.560000,-0.980000
80.396400,-0.035624,0.007808,1.012112,0.700000,0.280000,-0.700000
80.404488,-0.041480,0.014152,1.009672,0.840000,0.700000,-0.840000
80.412575,-0.033672,0.021472,1.017968,1.120000,0.420000,-0.980000
80.420663,-0.042456,0.010248,0.996984,0.840000,0.560000,-0.700000
80.428751,-0.042456,0.006344,1.005768,0.980000,0.560000,-0.700000
80.436838,-0.031720,0.022448,1.022360,0.980000,0.420000,-0.980000
80.444926,-0.045384,0.007808,1.001864,0.700000,0.840000,-0.700000
80.453013,-0.037088,0.009272,1.007720,0.700000,0.420000,-0.840000
80.461101,-0.029280,0.016104,1.007720,0.980000,0.420000,-0.980000
80.469188,-0.039528,0.020984,1.018456,0.840000,0.560000,-0.700000
80.477276,-0.041480,0.011712,1.005280,0.840000,0.560000,-0.840000
80.485364,-0.042456,0.014640,1.002840,0.840000,0.700000,-0.980000
80.493451,-0.035136,0.015128,1.016504,0.980000,0.420000,-0.840000
80.501539,-0.041968,0.011224,0.993568,0.700000,0.840000,-0.840000
80.509626,-0.039528,0.012200,1.018944,0.980000,0.560000,-0.840000
80.517714,-0.040504,0.015128,1.005768,0.980000,0.560000,-0.840000
80.525801,-0.039528,0.016592,1.008696,0.980000,0.840000,-0.840000
80.533889,-0.036112,0.006832,1.012600,0.980000,0.280000,-0.840000
80.541977,-0.051240,0.016104,0.999424,0.980000,0.840000,-0.840000
80.550064,-0.033672,0.011712,1.018456,0.840000,0.560000,-0.840000
80.558152,-0.031232,0.013176,1.002840,0.840000,0.560000,-0.840000
80.566239,-0.047824,0.020008,1.015040,0.700000,0.840000,-0.980000
80.574327,-0.031232,0.008784,1.004792,0.700000,0.000000,-0.700000
80.582415,-0.037088,0.013176,1.010648,0.840000,0.560000,-0.700000
80.590502,-0.040992,0.019520,1.008696,0.980000,0.560000,-0.840000
80.598590,-0.039528,0.010248,1.005280,0.700000,0.560000,-0.700000
80.606677,-0.033672,0.011224,1.012600,1.120000,0.560000,-0.700000
80.614765,-0.042456,0.016592,1.005280,0.980000,0.560000,-0.840000
80.622852,-0.040016,0.014640,1.019432,0.980000,0.280000,-0.700000
80.630940,-0.040504,0.008296,1.005768,0.700000,0.700000,-0.840000
80.639028,-0.043432,0.018056,1.002352,0.840000,0.560000,-0.840000
80.647115,-0.035136,0.009272,1.011624,0.560000,0.280000,-0.700000
80.655203,-0.047824,0.014640,1.003816,0.840000,0.700000,-0.840000
80.663290,-0.034648,0.012200,1.009672,0.840000,0.700000,-0.980000
80.671378,-0.041480,0.016104,1.006744,0.700000,0.560000,-0.840000
80.679466,-0.042456,0.014640,1.009672,0.840000,0.840000,-0.840000
80.687553,-0.041968,0.009760,1.007232,0.700000,0.560000,-0.840000
80.695641,-0.044408,0.014152,0.999912,0.700000,0.700000,-0.840000
80.703728,-0.033184,0.010736,1.018944,0.980000,0.280000,-0.840000
80.711816,-0.031720,0.014640,1.010160,0.700000,0.560000,-0.840000
80.719903,-0.033672,0.018544,1.004792,0.980000,0.560000,-0.840000
80.727991,-0.040016,0.015128,1.012112,0.980000,0.560000,-0.700000
80.736079,-0.040992,0.013176,1.008696,0.840000,0.700000,-0.840000
80.744166,-0.029280,0.011224,1.014064,0.980000,0.280000,-0.980000
80.752254,-0.037088,0.017568,1.018944,0.840000,0.420000,-0.700000
80.760341,-0.040992,0.010736,1.000888,0.700000,0.700000,-0.840000
80.768429,-0.043920,0.015128,1.001864,0.840000,0.420000,-0.700000
80.776516,-0.038064,0.009272,1.018456,0.840000,0.420000,-0.840000
80.784604,-0.044408,0.017568,1.002840,0.980000,0.980000,-0.840000
80.792692,-0.041480,0.008296,1.009672,0.700000,0.560000,-0.840000
80.800779,-0.036600,0.018056,1.009672,0.840000,0.420000,-0.840000
80.808867,-0.041968,0.012688,1.005768,0.700000,0.560000,-0.700000
80.816954,-0.040992,0.010736,1.007232,0.560000,0.560000,-0.840000
80.825042,-0.043432,0.016104,1.006744,0.700000,0.840000,-0.980000
80.833130,-0.032208,0.012688,1.012600,0.700000,0.420000,-0.840000
80.841217,-0.033672,0.015616,1.013088,0.980000,0.420000,-0.840000
80.849305,-0.040016,0.015616,0.999424,0.840000,0.840000,-0.840000
80.857392,-0.035624,0.014640,1.017968,0.980000,0.420000,-0.700000
80.865480,-0.039040,0.010248,0.996008,0.700000,0.420000,-0.700000
80.873567,-0.041480,0.015616,1.018456,0.980000,0.420000,-0.980000
80.881655,-0.035624,0.014640,1.009184,0.980000,0.420000,-0.840000
80.889743,-0.040504,0.014640,1.008696,0.840000,0.560000,-0.840000
80.897830,-0.043920,0.016104,1.004792,0.840000,0.700000,-0.840000
80.905918,-0.046360,0.006344,1.001864,0.980000,0.560000,-0.700000
80.914005,-0.040016,0.019520,1.016504,0.840000,0.840000,-0.840000
80.922093,-0.036600,0.004392,1.004792,0.700000,0.840000,-0.840000
80.930180,-0.042456,0.020008,1.015528,0.700000,0.560000,-0.980000
80.938268,-0.035136,0.013664,1.005280,0.840000,0.560000,-0.840000
80.946356,-0.037576,0.007808,1.013576,0.700000,0.420000,-0.840000
80.954443,-0.041968,0.020008,1.007720,0.840000,0.840000,-0.840000
80.962531,-0.036112,0.009760,1.013088,0.840000,0.420000,-0.840000
80.970618,-0.033184,0.014640,1.002840,0.840000,0.420000,-0.700000
80.978706,-0.038064,0.016592,1.008208,0.980000,0.700000,-0.980000
80.986794,-0.031232,0.020496,1.015528,0.980000,0.140000,-0.700000
80.994881,-0.041968,0.010736,1.003328,0.700000,0.700000,-0.700000
81.002969,-0.041968,0.012200,1.011624,0.980000,0.280000,-0.840000
81.011056,-0.042944,0.008296,1.004304,0.560000,0.420000,-0.840000
81.019144,-0.037088,0.019032,1.010160,0.840000,0.700000,-0.700000
81.027231,-0.037576,0.009272,1.005768,0.840000,0.420000,-0.840000
81.035319,-0.040504,0.014640,1.020408,0.840000,0.840000,-0.840000
81.043407,-0.044408,0.015616,1.000888,0.700000,0.560000,-0.840000
81.051494,-0.034160,0.006832,1.016504,0.560000,0.560000,-0.840000
81.059582,-0.041968,0.018544,1.003328,0.560000,0.700000,-0.840000
81.067669,-0.037576,0.014640,1.011136,0.700000,0.700000,-0.840000
81.075757,-0.035136,0.014152,1.008696,0.700000,0.560000,-0.840000
81.083845,-0.042456,0.011712,1.000400,0.980000,0.420000,-0.840000
81.091932,-0.034648,0.017568,1.024312,0.980000,0.560000,-0.840000
81.100020,-0.042944,0.014640,1.001376,0.840000,0.700000,-0.840000
81.108107,-0.038552,0.013664,1.006256,0.980000,0.560000,-0.980000
81.116195,-0.042456,0.013664,1.009184,0.700000,0.560000,-0.840000
81.124282,-0.033672,0.014640,1.006744,0.840000,0.560000,-0.700000
81.132370,-0.038552,0.013176,1.013088,0.980000,0.420000,-0.840000
81.140458,-0.043920,0.006832,1.004304,0.840000,0.560000,-0.840000
81.148545,-0.035624,0.017568,1.012600,0.980000,0.420000,-0.840000
81.156633,-0.031232,0.010248,1.009672,0.840000,0.840000,-0.840000
81.164720,-0.044408,0.019032,1.014064,0.980000,0.560000,-0.840000
81.172808,-0.037088,0.014152,1.000400,0.560000,0.700000,-0.840000
81.180896,-0.038064,0.015128,1.016992,0.840000,0.420000,-0.840000
81.188983,-0.043920,0.010736,1.002352,0.700000,0.700000,-0.980000
81.197071,-0.035624,0.017568,1.015528,0.840000,0.420000,-0.840000
81.205158,-0.034648,0.012200,1.012600,0.700000,0.420000,-0.700000
81.213246,-0.045872,0.012688,0.991128,1.120000,0.560000,-0.840000
81.221333,-0.034648,0.016592,1.024312,0.980000,0.140000,-0.840000
81.229421,-0.042944,0.012688,0.998936,0.840000,0.840000,-0.840000
81.237509,-0.037576,0.012200,1.008208,0.840000,0.420000,-0.840000
81.245596,-0.043432,0.014152,1.009672,0.700000,0.560000,-0.840000
81.253684,-0.040992,0.014640,1.011136,0.700000,0.700000,-0.840000
81.261771,-0.033184,0.012200,1.014064,0.980000,0.280000,-0.840000
81.269859,-0.046360,0.010736,1.010160,0.420000,0.840000,-0.840000
81.277947,-0.039528,0.013664,0.998936,0.840000,0.560000,-0.840000
81.286034,-0.036112,0.012200,1.015528,0.840000,0.420000,-0.840000
81.294122,-0.036600,0.014640,1.006744,0.840000,0.700000,-0.980000
81.302209,-0.046848,0.021472,1.008696,0.840000,0.840000,-0.700000
81.310297,-0.031232,0.010248,1.009184,0.840000,0.280000,-0.840000
81.318384,-0.043432,0.011224,1.003328,0.700000,0.560000,-0.980000
81.326472,-0.033672,0.011712,1.020896,0.980000,0.280000,-0.840000
81.334560,-0.037576,0.016104,1.004304,0.980000,0.700000,-0.840000
81.342647,-0.040992,0.016592,1.004792,0.980000,0.840000,-0.840000
81.350735,-0.036600,0.006344,1.009184,0.840000,0.420000,-0.840000
81.358822,-0.042456,0.020984,1.013576,0.840000,0.560000,-0.700000
81.366910,-0.040504,0.008784,1.002840,0.840000,0.560000,-0.980000
81.374998,-0.041480,0.014640,1.016504,0.560000,0.700000,-0.840000
81.383085,-0.036600,0.008296,1.005768,0.700000,0.420000,-0.840000
81.391173,-0.034160,0.014640,1.011136,0.840000,0.560000,-0.840000
81.399260,-0.040992,0.013176,1.009672,0.980000,0.560000,-0.840000
81.407348,-0.043920,0.012200,1.002840,0.840000,0.700000,-0.840000
81.415435,-0.031720,0.018056,1.013088,0.840000,0.560000,-0.840000
81.423523,-0.042944,0.012688,1.004792,0.840000,0.280000,-0.840000
81.431611,-0.038552,0.018544,1.012600,0.840000,0.420000,-0.700000
81.439698,-0.041480,0.009760,1.004304,0.700000,0.700000,-0.840000
81.447786,-0.039040,0.010736,1.004304,0.980000,0.560000,-0.980000
81.455873,-0.040016,0.010736,1.015528,0.840000,0.420000,-0.840000
81.463961,-0.037088,0.018544,1.004304,0.840000,0.560000,-0.700000
81.472048,-0.040016,0.012200,1.013576,0.840000,0.700000,-0.980000
81.480136,-0.040992,0.009760,1.004792,0.840000,0.560000,-0.840000
81.488224,-0.035624,0.020008,1.010160,0.980000,0.280000,-0.700000
81.496311,-0.034648,0.010736,1.012112,0.700000,0.700000,-0.980000
81.504399,-0.045872,0.014640,1.008696,0.700000,0.700000,-0.840000
81.512486,-0.040016,0.013664,1.005280,0.980000,0.700000,-0.840000
81.520574,-0.031720,0.015616,1.009184,0.840000,0.560000,-0.840000
81.528662,-0.037576,0.010248,1.011136,0.840000,0.280000,-0.840000
81.536749,-0.043920,0.020496,1.012600,0.980000,0.700000,-0.840000
81.544837,-0.038064,0.008784,1.007720,0.700000,0.560000,-0.840000
81.552924,-0.035624,0.012688,1.008696,0.700000,0.420000,-0.840000
81.561012,-0.044896,0.013664,1.000888,0.840000,0.560000,-0.840000
81.569099,-0.038064,0.015128,1.014064,0.700000,0.560000,-0.700000
81.577187,-0.038064,0.015616,1.010160,0.840000,0.560000,-0.840000
81.585275,-0.045384,0.007808,1.004304,0.980000,0.700000,-0.840000
81.593362,-0.035624,0.017080,1.011136,0.980000,0.420000,-0.840000
81.601450,-0.037088,0.014640,1.014064,0.840000,0.700000,-0.980000
81.609537,-0.040504,0.015128,1.012112,0.980000,0.560000,-0.840000
81.617625,-0.040504,0.010248,1.000400,0.560000,0.560000,-0.700000
81.625713,-0.030744,0.010736,1.012112,0.840000,0.280000,-0.840000
81.633800,-0.042456,0.018544,1.012600,0.840000,0.560000,-0.840000
81.641888,-0.037088,0.011224,1.005768,0.840000,0.560000,-0.840000
81.649975,-0.036600,0.014152,1.015528,0.840000,0.560000,-0.840000
81.658063,-0.036600,0.007808,1.000400,0.840000,0.420000,-0.840000
81.666150,-0.042944,0.024888,1.013088,0.840000,0.560000,-0.700000
81.674238,-0.040016,0.007808,1.003328,0.700000,0.700000,-0.840000
81.682326,-0.045872,0.012688,1.004792,0.840000,0.420000,-0.840000
81.690413,-0.036112,0.009272,1.005768,0.840000,0.560000,-0.700000
81.698501,-0.043920,0.017568,1.017968,0.840000,0.980000,-0.840000
81.706588,-0.036112,0.012688,1.001376,0.840000,0.420000,-0.980000
81.714676,-0.035136,0.015128,1.019432,0.980000,0.420000,-0.840000
81.722764,-0.043920,0.010736,0.995520,0.840000,0.560000,-0.700000
81.730851,-0.033672,0.010248,1.015528,0.700000,0.560000,-0.980000
81.738939,-0.035624,0.019032,1.010648,0.840000,0.560000,-0.840000
81.747026,-0.040504,0.011712,1.000888,0.560000,0.420000,-0.700000
81.755114,-0.028304,0.017568,1.025776,0.980000,0.280000,-0.840000
81.763201,-0.038552,0.007320,1.008208,0.840000,0.700000,-0.840000
81.771289,-0.038064,0.020008,1.011136,1.120000,0.420000,-0.840000
81.779377,-0.041480,0.012200,1.006256,0.700000,0.560000,-0.840000
81.787464,-0.042456,0.010248,1.002352,0.700000,0.700000,-0.840000
81.795552,-0.036112,0.017568,1.013088,0.980000,0.140000,-0.700000
81.803639,-0.041480,0.011224,1.011136,0.840000,0.700000,-0.840000
81.811727,-0.050752,0.011712,0.993568,0.700000,0.980000,-0.840000
81.819815,-0.039040,0.014152,1.016504,0.980000,0.420000,-0.840000
81.827902,-0.035136,0.013176,1.008696,0.840000,0.420000,-0.840000
81.835990,-0.044408,0.015616,1.008696,0.980000,0.980000,-0.840000
81.844077,-0.031720,0.012200,1.010160,0.840000,0.420000,-0.980000
81.852165,-0.042456,0.013176,1.006256,0.700000,0.420000,-0.700000
81.860252,-0.037088,0.013176,1.006744,0.840000,0.560000,-0.840000
81.868340,-0.040992,0.013664,1.009184,0.840000,0.560000,-0.840000
81.876428,-0.032696,0.014152,1.014552,0.840000,0.560000,-0.840000
81.884515,-0.042944,0.016592,1.007232,0.840000,0.560000,-0.840000
81.892603,-0.036112,0.008296,1.011624,0.840000,0.140000,-0.840000
81.900690,-0.035624,0.016104,1.009672,1.120000,0.560000,-0.840000
81.908778,-0.049288,0.015616,1.001864,0.700000,0.840000,-0.700000
81.916866,-0.034648,0.013176,1.016504,0.840000,0.420000,-0.840000
81.924953,-0.039040,0.009272,0.999912,0.560000,0.840000,-0.840000
81.933041,-0.034160,0.018544,1.016992,0.840000,0.420000,-0.700000
81.941128,-0.041480,0.010736,1.007720,0.840000,0.560000,-0.980000
81.949216,-0.034160,0.014640,1.017480,0.840000,0.560000,-0.840000
81.957303,-0.042944,0.015616,1.000400,0.560000,0.560000,-0.700000
81.965391,-0.034648,0.009760,1.012600,0.980000,0.420000,-0.840000
81.973479,-0.039528,0.014152,1.005768,0.700000,0.700000,-0.840000
81.981566,-0.040992,0.020008,1.013088,0.840000,0.840000,-0.700000
81.989654,-0.033672,0.011224,1.007720,0.700000,0.280000,-0.840000
81.997741,-0.038064,0.012200,1.012112,0.980000,0.420000,-0.840000
82.005829,-0.041968,0.015128,1.002840,0.980000,0.560000,-0.840000
82.013916,-0.040992,0.010736,0.998936,0.980000,0.560000,-0.840000
82.022004,-0.038552,0.013664,1.019920,0.980000,0.700000,-0.840000
82.030092,-0.040016,0.012688,1.004792,0.980000,0.700000,-0.840000
82.038179,-0.043920,0.012688,1.005768,0.840000,0.420000,-0.700000
82.046267,-0.041480,0.009760,1.006744,0.840000,0.840000,-0.840000
82.054354,-0.043920,0.017080,1.003816,0.700000,0.980000,-0.980000
82.062442,-0.034648,0.011712,1.013088,0.840000,0.140000,-0.700000
82.070530,-0.039528,0.015128,1.007232,0.700000,0.840000,-0.980000
82.078617,-0.032696,0.014152,1.017480,1.120000,0.280000,-0.980000
82.086705,-0.035624,0.017568,1.006256,0.840000,0.560000,-0.700000
82.094792,-0.042456,0.015616,1.006744,0.980000,0.840000,-0.840000
82.102880,-0.027816,0.010736,1.014552,0.980000,0.420000,-0.840000
82.110967,-0.042456,0.019032,1.005768,0.840000,0.840000,-0.700000
82.119055,-0.036112,0.013176,1.015040,0.700000,0.280000,-0.840000
82.127143,-0.044896,0.007808,1.003816,0.840000,0.560000,-0.840000
82.135230,-0.038064,0.009760,1.003816,0.700000,0.420000,-0.840000
82.143318,-0.040504,0.017568,1.014552,0.840000,0.420000,-0.700000
82.151405,-0.038552,0.007808,1.002840,0.840000,0.560000,-0.980000
82.159493,-0.041480,0.016104,1.012600,0.980000,0.700000,-0.840000
82.167580,-0.039528,0.013664,1.010648,0.700000,0.560000,-0.840000
82.175668,-0.036112,0.011224,1.009184,0.560000,0.420000,-0.840000
82.183756,-0.042456,0.018544,1.019432,0.840000,0.840000,-0.840000
82.191843,-0.041480,0.013176,0.990640,0.700000,0.420000,-0.840000
82.199931,-0.036112,0.017080,1.020408,0.700000,0.420000,-0.840000
82.208018,-0.033672,0.008296,0.999424,1.120000,0.560000,-0.840000
82.216106,-0.045384,0.021960,1.015040,0.840000,0.420000,-0.840000
82.224194,-0.031720,0.007808,1.003816,0.980000,0.420000,-0.840000
82.232281,-0.045872,0.012200,1.006744,0.980000,0.560000,-0.840000
82.240369,-0.031232,0.016592,1.012600,0.980000,0.280000,-0.840000
82.248456,-0.038552,0.016592,1.010160,0.980000,0.700000,-0.840000
82.256544,-0.046848,0.010736,1.008208,0.840000,0.840000,-0.840000
82.264631,-0.039040,0.006344,1.006744,0.700000,0.420000,-0.840000
82.272719,-0.038552,0.019520,1.006744,0.700000,0.700000,-0.700000
82.280807,-0.043432,0.010248,1.012600,0.700000,0.700000,-0.980000
82.288894,-0.034160,0.015616,1.005768,0.840000,0.560000,-0.840000
82.296982,-0.037576,0.013664,1.009672,0.840000,0.700000,-0.840000
82.305069,-0.032696,0.011712,1.012112,0.980000,0.280000,-0.840000
82.313157,-0.037088,0.011224,1.005768,0.980000,0.560000,-0.840000
82.321245,-0.043920,0.019520,1.016992,0.840000,0.700000,-0.700000
82.329332,-0.032696,0.012688,0.999912,0.700000,0.420000,-0.840000
82.337420,-0.033184,0.015128,1.016504,0.840000,0.140000,-0.700000
82.345507,-0.043432,0.015128,1.004304,0.840000,0.700000,-0.700000
82.353595,-0.037576,0.013664,1.007232,0.980000,0.420000,-0.840000
82.361682,-0.039040,0.008784,1.009672,0.840000,0.700000,-0.700000
82.369770,-0.047336,0.012200,1.004304,0.840000,0.560000,-0.700000
82.377858,-0.037576,0.019032,1.009672,0.980000,0.560000,-0.840000
82.385945,-0.036112,0.008296,1.010648,0.700000,0.560000,-0.840000
82.394033,-0.041968,0.016592,1.015528,0.840000,0.700000,-0.840000
82.402120,-0.044408,0.015616,0.995520,0.700000,0.560000,-0.840000
82.410208,-0.034648,0.006344,1.013576,0.560000,0.560000,-0.840000
82.418295,-0.040992,0.018056,1.010160,0.840000,0.420000,-0.840000
82.426383,-0.033672,0.010736,1.007720,0.840000,0.560000,-0.840000
82.434471,-0.039528,0.018544,1.007232,0.840000,0.420000,-0.840000
82.442558,-0.037576,0.004880,1.010648,1.120000,0.420000,-0.840000
82.450646,-0.048312,0.024400,1.005280,0.980000,0.980000,-0.840000
82.458733,-0.037088,0.013176,1.006256,0.840000,0.420000,-0.840000
82.466821,-0.033672,0.005368,1.012112,1.120000,0.420000,-0.840000
82.474909,-0.042944,0.018544,1.004304,0.980000,0.420000,-0.840000
82.482996,-0.032208,0.013664,1.016992,0.840000,0.560000,-0.840000
82.491084,-0.042944,0.012688,1.011624,0.840000,0.700000,-0.840000
82.499171,-0.040992,0.004392,0.996496,0.700000,0.420000,-0.840000
82.507259,-0.033184,0.020496,1.020408,0.840000,0.560000,-0.840000
82.515346,-0.035624,0.011712,1.016992,0.840000,0.700000,-0.980000
82.523434,-0.046848,0.017080,1.008696,0.980000,0.700000,-0.840000
82.531522,-0.033184,0.014640,1.008208,0.700000,0.280000,-0.700000
82.539609,-0.040992,0.009760,1.008696,0.700000,0.560000,-0.980000
82.547697,-0.041480,0.016592,1.007232,0.840000,0.560000,-0.700000
82.555784,-0.040992,0.015616,1.005768,0.980000,0.700000,-0.840000
82.563872,-0.034160,0.012200,1.005768,0.560000,0.280000,-0.840000
82.571960,-0.038064,0.009272,1.014064,1.120000,0.560000,-0.840000
82.580047,-0.043432,0.022448,1.013088,0.980000,0.560000,-0.840000
82.588135,-0.037088,0.011712,0.995520,0.840000,0.700000,-0.980000
82.596222,-0.042456,0.007808,1.006744,0.980000,0.560000,-0.700000
82.604310,-0.043920,0.014152,1.007232,0.980000,0.560000,-0.840000
82.612397,-0.031232,0.014152,1.021384,0.840000,0.280000,-0.980000
82.620485,-0.039040,0.010736,1.005280,0.560000,0.700000,-0.840000
82.628573,-0.042456,0.015616,1.006744,0.700000,0.420000,-0.840000
82.636660,-0.036112,0.013176,1.010160,0.700000,0.420000,-0.840000
82.644748,-0.038064,0.011712,1.010160,0.700000,0.840000,-0.840000
82.652835,-0.034160,0.018056,1.007232,0.980000,0.420000,-0.840000
82.660923,-0.038064,0.016592,1.017480,0.840000,0.840000,-0.840000
82.669010,-0.040016,0.015616,1.002352,0.840000,0.420000,-0.840000
82.677098,-0.037576,0.008296,1.006256,0.840000,0.560000,-0.700000
82.685186,-0.041480,0.020008,1.020896,0.840000,0.700000,-0.840000
82.693273,-0.036112,0.012688,0.996496,0.700000,0.700000,-0.840000
82.701361,-0.039040,0.011224,1.016992,1.120000,0.560000,-0.840000
82.709448,-0.042944,0.013176,0.997960,0.700000,0.560000,-0.840000
82.717536,-0.040016,0.018544,1.021384,0.840000,0.560000,-0.840000
82.725624,-0.038064,0.005856,1.000400,0.840000,0.700000,-0.840000
82.733711,-0.045384,0.016592,1.010648,0.980000,0.700000,-0.840000
82.741799,-0.035136,0.017080,1.009672,0.840000,0.560000,-0.840000
82.749886,-0.035136,0.006832,1.010160,0.840000,0.420000,-0.840000
82.757974,-0.041480,0.015128,1.003816,0.840000,0.560000,-0.840000
82.766061,-0.046360,0.018544,1.003816,0.840000,0.700000,-0.700000
82.774149,-0.026840,0.006832,1.016992,0.700000,0.280000,-0.840000
82.782237,-0.037576,0.016592,1.004792,0.840000,0.560000,-0.840000
82.790324,-0.046848,0.023424,1.014064,0.980000,0.700000,-0.700000
82.798412,-0.036112,0.007808,0.997960,0.980000,0.560000,-0.840000
82.806499,-0.037088,0.012200,1.016504,0.980000,0.560000,-0.840000
82.814587,-0.044896,0.011712,1.003816,0.840000,0.560000,-0.840000
82.822674,-0.039040,0.017568,1.011624,0.700000,0.700000,-0.840000
82.830762,-0.035624,0.010248,1.007720,0.840000,0.700000,-0.840000
82.838850,-0.041968,0.020008,1.013576,0.840000,0.420000,-0.840000
82.846937,-0.031720,0.013176,1.014552,0.840000,0.700000,-0.980000
82.855025,-0.040016,0.009760,1.005280,0.560000,0.700000,-0.840000
82.863112,-0.040992,0.013664,1.009672,0.700000,0.560000,-0.840000
82.871200,-0.036600,0.016592,1.009184,0.840000,0.700000,-0.840000
82.879288,-0.033184,0.008784,1.011624,0.980000,0.420000,-0.700000
82.887375,-0.037576,0.017568,1.018944,0.980000,0.560000,-0.980000
82.895463,-0.044896,0.014640,1.000400,0.700000,0.700000,-0.700000
82.903550,-0.040016,0.008784,1.012112,0.560000,0.280000,-0.700000
82.911638,-0.037088,0.015616,1.008208,0.840000,0.560000,-0.840000
82.919725,-0.037088,0.015128,0.997960,0.700000,0.140000,-0.700000
82.927813,-0.042944,0.017080,1.013576,0.980000,0.700000,-0.700000
82.935901,-0.038064,0.007808,1.006744,0.840000,0.840000,-0.980000
82.943988,-0.043432,0.012688,1.002840,0.840000,0.420000,-0.840000
82.952076,-0.041480,0.018056,1.017968,0.840000,0.420000,-0.840000
82.960163,-0.033672,0.008296,1.013088,0.840000,0.700000,-0.980000
82.968251,-0.044408,0.017568,0.998448,0.840000,0.840000,-0.840000
82.976339,-0.034160,0.016104,1.016992,0.840000,0.420000,-0.840000
82.984426,-0.038064,0.006832,1.011624,0.700000,0.560000,-0.840000
82.992514,-0.039040,0.016592,1.008208,0.840000,0.420000,-0.840000
83.000601,-0.035624,0.016592,1.013576,0.700000,0.560000,-0.700000
83.008689,-0.041480,0.011224,1.002352,0.840000,0.700000,-0.840000
83.016776,-0.035624,0.013176,1.006256,1.120000,0.420000,-0.840000
83.024864,-0.039528,0.015128,1.019432,0.980000,0.560000,-0.840000
83.032952,-0.043432,0.012200,1.001864,0.840000,0.560000,-0.840000
83.041039,-0.041480,0.013176,1.005768,0.980000,0.700000,-0.840000
83.049127,-0.038552,0.012200,1.010160,0.700000,0.420000,-0.840000
83.057214,-0.035624,0.017568,1.012600,0.840000,0.700000,-0.840000
83.065302,-0.038552,0.009272,1.006744,0.700000,0.420000,-0.840000
83.073390,-0.046848,0.011224,1.010648,0.700000,0.560000,-0.840000
83.081477,-0.029768,0.016104,0.999424,0.700000,0.420000,-0.840000
83.089565,-0.036112,0.012200,1.020408,0.840000,0.420000,-0.840000
83.097652,-0.039040,0.018056,1.009672,0.840000,0.560000,-0.840000
83.105740,-0.034648,0.015616,1.006256,0.840000,0.420000,-0.840000
83.113827,-0.032696,0.011712,1.018944,0.700000,0.420000,-0.700000
83.121915,-0.040504,0.009760,1.000400,0.840000,0.560000,-0.840000
83.130003,-0.042456,0.020496,1.015528,0.700000,0.420000,-0.700000
83.138090,-0.038552,0.007320,0.999912,0.700000,0.560000,-0.840000
83.146178,-0.044408,0.019520,1.008208,0.980000,0.560000,-0.840000
83.154265,-0.037088,0.013664,1.015040,0.840000,0.280000,-0.840000
83.162353,-0.048312,0.016592,1.002840,0.700000,0.840000,-0.840000
83.170441,-0.037088,0.001952,1.008208,0.840000,0.840000,-0.980000
83.178528,-0.043432,0.012688,1.007720,0.980000,0.560000,-0.840000
83.186616,-0.037088,0.016104,1.007232,0.980000,0.560000,-0.840000
83.194703,-0.034160,0.013176,1.011624,0.840000,0.420000,-0.840000
83.202791,-0.040504,0.018544,1.015040,0.840000,0.560000,-0.840000
83.210878,-0.041968,0.013176,0.993568,0.700000,0.700000,-0.840000
83.218966,-0.035624,0.014640,1.023824,0.700000,0.420000,-0.840000
83.227054,-0.035624,0.006832,1.005768,0.980000,0.700000,-0.840000
83.235141,-0.042456,0.025376,1.011136,0.980000,0.420000,-0.700000
83.243229,-0.032208,0.005368,1.009184,0.840000,0.280000,-0.700000
83.251316,-0.045384,0.013176,1.009184,1.120000,0.420000,-0.840000
83.259404,-0.038552,0.016104,1.006744,0.700000,0.700000,-0.840000
83.267491,-0.040016,0.011712,1.006744,0.700000,0.560000,-0.700000
83.275579,-0.034648,0.014152,1.015040,0.840000,0.560000,-0.980000
83.283667,-0.041968,0.012200,1.013088,0.840000,0.560000,-0.840000
83.291754,-0.038064,0.018056,1.004792,0.700000,0.560000,-0.840000
83.299842,-0.040504,0.001952,1.011136,0.840000,0.420000,-0.840000
83.307929,-0.037576,0.021960,1.011136,0.700000,0.560000,-0.840000
83.316017,-0.037576,0.011712,1.001864,0.700000,0.840000,-0.840000
83.324105,-0.035624,0.012200,1.017968,0.840000,0.280000,-0.840000
83.332192,-0.039040,0.018544,1.005280,0.840000,0.700000,-0.840000
83.340280,-0.039528,0.012200,1.003328,0.700000,0.560000,-0.840000
83.348367,-0.038064,0.010736,1.011624,0.840000,0.420000,-0.700000
83.356455,-0.042456,0.010248,1.004304,0.840000,0.560000,-0.840000
83.364542,-0.035136,0.019520,1.017968,1.120000,0.280000,-0.700000
83.372630,-0.043432,0.007808,1.004304,0.700000,0.700000,-0.840000
83.380718,-0.043432,0.014152,0.999912,0.980000,0.560000,-0.840000
83.388805,-0.041480,0.012688,1.007720,0.840000,0.560000,-0.840000
83.396893,-0.041968,0.017080,1.016016,0.840000,0.700000,-0.980000
83.404980,-0.035136,0.011712,1.006256,0.700000,0.700000,-0.840000
83.413068,-0.040504,0.016592,1.017480,0.840000,0.700000,-0.840000
83.421156,-0.038064,0.019032,0.995520,0.560000,0.560000,-0.840000
83.429243,-0.033672,0.009272,1.023824,0.980000,0.560000,-0.840000
83.437331,-0.040504,0.014152,1.006256,0.700000,0.420000,-0.840000
83.445418,-0.034648,0.013176,1.007232,0.700000,0.560000,-0.840000
83.453506,-0.034648,0.014152,1.016992,0.840000,0.560000,-0.840000
83.461593,-0.036112,0.009760,1.000888,1.120000,0.560000,-0.840000
83.469681,-0.042456,0.025864,1.016016,0.980000,0.560000,-0.840000
83.477769,-0.035136,0.006344,1.002352,0.700000,0.420000,-0.700000
83.485856,-0.041968,0.010248,1.009184,0.980000,0.560000,-0.840000
83.493944,-0.040992,0.015128,1.007232,0.840000,0.280000,-0.840000
83.502031,-0.040016,0.009760,1.003328,0.560000,0.560000,-0.700000
83.510119,-0.038552,0.017568,1.017480,0.840000,0.560000,-0.840000
83.518207,-0.042456,0.008784,1.003816,0.700000,0.700000,-0.840000
83.526294,-0.044896,0.017568,1.008696,0.840000,0.280000,-0.700000
83.534382,-0.031720,0.007808,1.010648,0.700000,0.840000,-0.980000
83.542469,-0.047824,0.020496,1.009184,0.840000,0.560000,-0.840000
83.550557,-0.039040,0.017568,1.000888,0.840000,0.840000,-0.840000
83.558644,-0.034648,0.009760,1.012112,0.980000,0.280000,-0.700000
83.566732,-0.034160,0.012688,1.013088,0.840000,0.560000,-0.840000
83.574820,-0.042944,0.015616,1.009672,0.980000,0.560000,-0.840000
83.582907,-0.037088,0.010248,1.008696,0.700000,0.420000,-0.840000
83.590995,-0.039528,0.015616,1.006744,0.840000,0.560000,-0.840000
83.599082,-0.033672,0.023912,1.014552,0.980000,0.420000,-0.840000
83.607170,-0.040504,0.006344,1.008696,0.840000,0.700000,-0.840000
83.615258,-0.038064,0.009760,1.003328,0.980000,0.420000,-0.840000
83.623345,-0.049288,0.019032,1.009184,0.840000,0.980000,-0.840000
83.631433,-0.035624,0.003904,1.005768,0.700000,0.560000,-0.840000
83.639520,-0.040016,0.015128,1.010648,0.840000,0.700000,-0.840000
83.647608,-0.044896,0.017080,1.011624,0.700000,0.700000,-0.700000
83.655695,-0.032208,0.012200,1.005768,0.700000,0.280000,-0.840000
83.663783,-0.034160,0.013664,1.015040,0.700000,0.700000,-0.700000
83.671871,-0.041968,0.016104,1.007232,0.980000,0.700000,-0.840000
83.679958,-0.036600,0.014640,1.007720,0.840000,0.560000,-0.980000
83.688046,-0.028792,0.008296,1.014552,0.980000,0.280000,-0.840000
83.696133,-0.044408,0.017568,0.996008,1.120000,0.420000,-0.700000
83.704221,-0.035624,0.017568,1.021872,1.120000,0.420000,-0.980000
83.712309,-0.038064,0.008296,1.005280,0.700000,0.700000,-0.840000
83.720396,-0.041480,0.013176,1.008696,0.980000,0.420000,-0.840000
83.728484,-0.038552,0.018056,1.011136,0.840000,0.420000,-0.840000
83.736571,-0.047336,0.010248,1.001864,0.560000,0.840000,-0.840000
83.744659,-0.037576,0.013664,1.013088,0.980000,0.560000,-0.840000
83.752746,-0.042456,0.015616,1.006256,0.840000,0.700000,-0.840000
83.760834,-0.045384,0.010736,1.003816,0.560000,0.700000,-0.840000
83.768922,-0.032696,0.016104,1.019432,1.120000,0.420000,-0.840000
83.777009,-0.037088,0.013664,1.004304,0.840000,0.700000,-0.840000
83.785097,-0.048800,0.014640,0.998936,0.840000,0.700000,-0.840000
83.793184,-0.029768,0.011712,1.016504,0.840000,0.420000,-0.840000
83.801272,-0.032696,0.015128,1.009672,0.840000,0.420000,-0.840000
83.809360,-0.043920,0.016104,1.007232,0.700000,0.560000,-0.840000
83.817447,-0.030256,0.011224,1.016504,0.700000,0.420000,-0.840000
83.825535,-0.039040,0.015616,1.004792,0.840000,0.560000,-0.840000
83.833622,-0.035624,0.013664,1.009184,0.840000,0.140000,-0.840000
83.841710,-0.041480,0.011224,1.010648,0.700000,0.840000,-0.840000
83.849797,-0.041968,0.016592,1.010160,0.980000,0.700000,-0.840000
83.857885,-0.040016,0.006832,1.006744,0.840000,0.280000,-0.840000
83.865973,-0.037576,0.016592,1.013088,0.980000,0.560000,-0.840000
83.874060,-0.032208,0.012200,1.005768,0.700000,0.700000,-0.840000
83.882148,-0.042456,0.018544,1.022848,0.700000,0.420000,-0.840000
83.890235,-0.042456,0.008784,0.989176,0.560000,0.840000,-0.840000
83.898323,-0.042944,0.016104,1.018456,0.700000,0.560000,-0.700000
83.906410,-0.034648,0.014152,1.011624,0.840000,0.560000,-0.980000
83.914498,-0.047336,0.016104,1.003816,0.840000,0.700000,-0.840000
83.922586,-0.029280,0.007808,1.004792,0.700000,0.280000,-0.700000
83.930673,-0.040016,0.013176,1.008696,1.120000,0.560000,-0.840000
83.938761,-0.042944,0.020984,1.007232,0.980000,0.560000,-0.840000
83.946848,-0.038552,0.005856,1.006744,0.980000,0.560000,-0.840000
83.954936,-0.042456,0.015128,1.003328,0.980000,0.840000,-0.840000
83.963024,-0.038552,0.013176,1.012600,0.980000,0.420000,-0.840000
83.971111,-0.040992,0.018056,1.013088,0.840000,0.560000,-0.840000
83.979199,-0.040016,0.008296,1.009672,0.840000,0.700000,-0.840000
83.987286,-0.042944,0.014152,1.005768,0.700000,0.560000,-0.840000
83.995374,-0.033184,0.010248,1.011624,0.700000,0.560000,-0.700000
84.003461,-0.037088,0.017080,1.016016,0.980000,0.840000,-0.980000
84.011549,-0.033184,0.014640,1.005280,0.840000,0.420000,-0.700000
84.019637,-0.043920,0.015128,1.010648,0.700000,0.560000,-0.700000
84.027724,-0.032696,0.011224,1.008208,0.980000,0.560000,-0.840000
84.035812,-0.034648,0.014152,1.019920,0.700000,0.420000,-0.840000
84.043899,-0.044408,0.020008,1.001864,0.980000,0.700000,-0.840000
84.051987,-0.037576,0.005856,1.011624,0.560000,0.420000,-0.840000
84.060074,-0.037576,0.013176,1.003328,0.840000,0.560000,-0.700000
84.068162,-0.038552,0.015128,1.008208,0.840000,0.280000,-0.840000
84.076250,-0.040992,0.015128,1.015040,0.840000,0.840000,-0.700000
84.084337,-0.040504,0.007808,0.995520,0.700000,0.560000,-0.840000
84.092425,-0.034160,0.019032,1.029680,0.980000,0.280000,-0.980000
84.100512,-0.043920,0.010736,0.992592,0.700000,0.700000,-0.840000
84.108600,-0.040992,0.010736,1.007720,0.980000,0.700000,-0.840000
84.116688,-0.036112,0.015616,1.009184,0.840000,0.420000,-0.840000
84.124775,-0.043920,0.016104,1.007232,0.560000,0.700000,-0.700000
84.132863,-0.033672,0.013664,1.015040,0.980000,0.420000,-0.840000
84.140950,-0.038064,0.012200,1.010160,0.840000,0.560000,-0.840000
84.149038,-0.039528,0.020008,1.003816,0.840000,0.420000,-0.840000
84.157125,-0.040016,0.014152,1.011624,0.980000,0.560000,-0.840000
84.165213,-0.040992,0.008296,1.004792,0.840000,0.700000,-0.840000
84.173301,-0.040504,0.015128,1.002840,0.980000,0.420000,-0.840000
84.181388,-0.036112,0.012688,1.016504,0.980000,0.700000,-0.840000
84.189476,-0.041968,0.010736,1.002840,0.980000,0.700000,-0.840000
84.197563,-0.041968,0.014152,1.007232,0.840000,0.560000,-0.840000
84.205651,-0.037576,0.012200,1.016504,0.700000,0.560000,-0.840000
84.213738,-0.037576,0.012200,1.007232,0.700000,0.840000,-0.840000
84.221826,-0.040992,0.020496,1.014064,0.700000,0.560000,-0.840000
84.229914,-0.031232,0.007320,1.001376,0.700000,0.280000,-0.700000
84.238001,-0.035624,0.011224,1.013088,0.980000,0.560000,-0.840000
84.246089,-0.042456,0.014640,1.008208,0.980000,0.560000,-0.840000
84.254176,-0.039528,0.015616,1.011136,0.840000,0.420000,-0.840000
84.262264,-0.039528,0.013664,1.005768,0.980000,0.420000,-0.700000
84.270352,-0.037088,0.015616,1.013088,0.840000,0.700000,-0.980000
84.278439,-0.036112,0.020008,1.015528,0.840000,0.280000,-0.840000
84.286527,-0.039040,0.006832,0.996984,0.700000,0.700000,-0.840000
84.294614,-0.046360,0.018056,1.014552,0.980000,0.560000,-0.840000
84.302702,-0.039040,0.011712,0.995520,0.840000,0.980000,-0.980000
84.310789,-0.040504,0.013664,1.017480,0.840000,0.560000,-0.700000
84.318877,-0.043920,0.011224,1.014064,0.840000,0.700000,-0.980000
84.326965,-0.030744,0.018544,1.013088,0.840000,0.700000,-0.980000
84.335052,-0.039528,0.007808,0.993080,0.700000,0.280000,-0.700000
84.343140,-0.046360,0.013176,1.017480,0.980000,0.700000,-0.840000
84.351227,-0.035624,0.018056,1.009184,0.840000,0.700000,-0.980000
84.359315,-0.036112,0.009272,1.004792,0.700000,0.420000,-0.840000
84.367402,-0.037576,0.013176,1.014064,0.980000,0.420000,-0.700000
84.375490,-0.039040,0.015128,0.998936,0.840000,0.420000,-0.840000
84.383578,-0.036112,0.017080,1.021872,0.980000,0.420000,-0.840000
84.391665,-0.041968,0.011712,0.996008,0.980000,0.700000,-0.700000
84.399753,-0.044408,0.013176,1.018456,0.980000,0.560000,-0.840000
84.407840,-0.037576,0.012200,0.999424,0.700000,0.700000,-0.980000
84.415928,-0.031720,0.013176,1.023336,0.980000,0.280000,-0.700000
84.424016,-0.032696,0.013664,1.004304,0.840000,0.560000,-0.840000
84.432103,-0.051728,0.017568,1.009184,0.700000,0.980000,-0.840000
84.440191,-0.036112,0.016104,1.005768,0.700000,0.140000,-0.700000
84.448278,-0.032696,0.006344,1.007720,0.700000,0.560000,-0.840000
84.456366,-0.040992,0.019032,1.012600,0.980000,0.840000,-0.980000
84.464453,-0.038552,0.013176,1.009184,0.980000,0.420000,-0.840000
84.472541,-0.034160,0.008784,1.008696,0.840000,0.280000,-0.700000
84.480629,-0.044896,0.011712,1.006256,0.980000,0.420000,-0.840000
84.488716,-0.043920,0.019032,1.013576,0.980000,0.560000,-0.840000
84.496804,-0.040992,0.013664,1.001376,0.840000,0.700000,-0.840000
84.504891,-0.037576,0.008784,1.002840,0.840000,0.420000,-0.840000
84.512979,-0.038552,0.018056,1.008208,0.840000,0.560000,-0.980000
84.521066,-0.038552,0.012200,1.010648,0.840000,0.560000,-0.700000
84.529154,-0.038552,0.010248,1.010648,0.840000,0.420000,-0.840000
84.537242,-0.054168,0.014640,1.006744,0.980000,0.980000,-0.980000
84.545329,-0.029768,0.013664,1.015528,0.980000,0.420000,-0.980000
84.553417,-0.034648,0.013664,1.010648,0.840000,0.560000,-0.840000
84.561504,-0.044896,0.017080,1.004304,0.840000,0.980000,-0.980000
84.569592,-0.040016,0.013664,1.008208,0.700000,0.700000,-0.840000
84.577680,-0.032696,0.009272,1.012600,0.560000,0.560000,-0.840000
84.585767,-0.033184,0.016592,1.008696,0.980000,0.420000,-0.980000
84.593855,-0.040016,0.018544,1.015528,0.840000,0.560000,-0.700000
84.601942,-0.036600,0.008784,1.003816,0.840000,0.420000,-0.840000
84.610030,-0.037576,0.013176,1.011136,0.840000,0.420000,-0.840000
84.618117,-0.047336,0.016104,1.007232,0.700000,0.700000,-0.840000
84.626205,-0.033184,0.011224,1.002840,0.840000,0.560000,-0.700000
84.634293,-0.041968,0.015128,1.015040,0.980000,0.420000,-0.840000
84.642380,-0.042456,0.010248,1.001376,0.840000,0.560000,-0.840000
84.650468,-0.036600,0.011224,1.021384,0.840000,0.420000,-0.840000
84.658555,-0.034648,0.015128,1.002840,0.560000,0.560000,-0.840000
84.666643,-0.047824,0.019032,1.008696,0.700000,0.840000,-0.840000
84.674730,-0.028304,0.009272,1.008696,0.700000,0.140000,-0.840000
84.682818,-0.038552,0.013664,1.016504,0.840000,0.560000,-0.700000
84.690906,-0.037576,0.018544,1.013088,1.120000,0.560000,-0.980000
84.698993,-0.039040,0.009760,0.996496,0.700000,0.280000,-0.700000
84.707081,-0.042456,0.015128,1.010648,0.840000,0.700000,-0.840000
84.715168,-0.039040,0.015128,0.998936,0.980000,0.700000,-0.840000
84.723256,-0.041480,0.010248,1.018456,0.840000,0.560000,-0.840000
84.731344,-0.034648,0.015128,1.007232,0.980000,0.560000,-0.840000
84.739431,-0.039528,0.011712,1.007720,0.700000,0.700000,-0.840000
84.747519,-0.044896,0.014152,1.001864,0.840000,0.420000,-0.840000
84.755606,-0.042456,0.020496,1.014552,0.700000,0.840000,-0.840000
84.763694,-0.034648,0.006832,1.010648,0.840000,0.700000,-0.980000
84.771781,-0.049288,0.013664,1.003328,0.840000,0.840000,-0.980000
84.779869,-0.028792,0.013176,1.018944,0.980000,0.280000,-0.840000
84.787957,-0.040992,0.014152,1.007232,0.840000,0.700000,-0.840000
84.796044,-0.037088,0.018056,1.012600,0.980000,0.840000,-0.840000
84.804132,-0.037576,0.008296,1.002840,0.700000,0.700000,-0.840000
84.812219,-0.033672,0.018056,1.014552,0.840000,0.280000,-0.840000
84.820307,-0.025864,0.008784,1.007720,0.980000,0.420000,-0.840000
84.828394,-0.046848,0.020984,1.014064,0.980000,0.420000,-0.700000
84.836482,-0.040992,0.008784,1.003816,0.840000,0.420000,-0.840000
84.844570,-0.040016,0.016104,1.010648,0.840000,0.560000,-0.840000
84.852657,-0.046360,0.009272,1.002352,0.700000,0.560000,-0.700000
84.860745,-0.034160,0.012688,1.013088,0.840000,0.560000,-0.840000
84.868832,-0.042456,0.010248,1.000400,0.840000,0.700000,-0.840000
84.876920,-0.044896,0.012688,1.010160,0.840000,0.280000,-0.840000
84.885008,-0.033672,0.023424,1.017968,0.840000,0.700000,-0.700000
84.893095,-0.042456,0.006832,0.999424,0.700000,0.840000,-0.840000
84.901183,-0.038064,0.018544,1.016504,0.700000,0.420000,-0.840000
84.909270,-0.040016,0.010248,1.006256,0.700000,0.840000,-0.840000
84.917358,-0.034160,0.018056,1.011136,0.980000,0.420000,-0.840000
84.925445,-0.040992,0.016104,1.011136,0.840000,0.840000,-0.980000
84.933533,-0.042944,0.013664,1.005280,0.840000,0.560000,-0.700000
84.941621,-0.032696,0.012200,1.004304,0.840000,0.280000,-0.840000
84.949708,-0.033672,0.011712,1.012112,1.120000,0.420000,-0.980000
84.957796,-0.036600,0.018544,1.011624,1.120000,0.420000,-0.700000
84.965883,-0.044896,0.009760,1.006744,0.840000,0.700000,-0.700000
84.973971,-0.038552,0.012200,1.003816,0.840000,0.420000,-0.840000
84.982059,-0.043920,0.009760,1.007720,0.420000,0.700000,-0.700000
84.990146,-0.037576,0.019520,1.013088,0.700000,0.420000,-0.840000
84.998234,-0.033672,0.009760,1.011624,0.980000,0.700000,-0.840000
85.006321,-0.043432,0.018056,1.003816,0.840000,0.700000,-0.840000
85.014409,-0.038064,0.012200,1.013576,0.980000,0.280000,-0.700000
85.022496,-0.033184,0.009760,1.015528,0.840000,0.700000,-0.840000
85.030584,-0.042456,0.018056,0.997960,0.840000,0.560000,-0.840000
85.038672,-0.031720,0.012200,1.017968,0.840000,0.700000,-0.840000
85.046759,-0.037576,0.018544,1.011136,0.980000,0.420000,-0.840000
85.054847,-0.037576,0.009760,0.999424,0.700000,0.420000,-0.840000
85.062934,-0.040992,0.015128,1.017480,0.980000,0.420000,-0.840000
85.071022,-0.044408,0.011712,1.001376,0.700000,0.980000,-0.840000
85.079109,-0.037576,0.014640,1.010648,0.980000,0.420000,-0.840000
85.087197,-0.041968,0.007808,1.007232,0.840000,0.700000,-0.840000
85.095285,-0.041480,0.016104,1.001376,0.980000,0.560000,-0.840000
85.103372,-0.037088,0.011224,1.012112,0.840000,0.560000,-0.840000
85.111460,-0.043920,0.016592,1.006744,0.980000,0.700000,-0.840000
85.119547,-0.044408,0.011712,1.006744,0.840000,0.420000,-0.840000
85.127635,-0.034648,0.014640,1.015528,0.840000,0.700000,-0.840000
85.135723,-0.040016,0.018544,1.005768,0.560000,0.420000,-0.840000
85.143810,-0.037576,0.010248,1.006744,0.560000,0.700000,-0.840000
85.151898,-0.032696,0.014152,1.023824,0.840000,0.420000,-0.840000
85.159985,-0.040504,0.019032,0.997472,0.840000,0.840000,-0.840000
85.168073,-0.039040,0.014152,1.014064,0.980000,0.140000,-0.700000
85.176160,-0.034648,0.008784,1.003328,0.840000,0.420000,-0.840000
85.184248,-0.037576,0.017080,1.011624,0.980000,0.560000,-0.840000
85.192336,-0.036600,0.011224,1.012112,0.840000,0.140000,-0.840000
85.200423,-0.041968,0.012200,1.006256,0.700000,0.700000,-0.840000
85.208511,-0.040016,0.016104,1.013088,0.840000,0.560000,-0.840000
85.216598,-0.041480,0.003416,1.000400,0.420000,0.560000,-0.980000
85.224686,-0.033672,0.020984,1.016504,0.840000,0.420000,-0.700000
85.232773,-0.041480,0.008296,1.001376,0.700000,0.560000,-0.840000
85.240861,-0.043920,0.015128,1.013088,0.840000,0.420000,-0.840000
85.248949,-0.043432,0.014152,0.999424,0.840000,0.980000,-0.840000
85.257036,-0.034648,0.011712,1.013088,0.840000,0.560000,-0.700000
85.265124,-0.037088,0.014152,1.008696,0.840000,0.420000,-0.840000
85.273211,-0.040504,0.020984,1.016992,0.980000,0.560000,-0.840000
85.281299,-0.035624,0.008296,0.998936,0.840000,0.280000,-0.700000
85.289387,-0.046848,0.013664,1.009184,0.980000,0.560000,-0.840000
85.297474,-0.037088,0.019032,1.007720,0.980000,0.560000,-0.980000
85.305562,-0.033672,0.013176,1.008696,0.980000,0.280000,-0.700000
85.313649,-0.041480,0.012688,1.006744,0.980000,0.560000,-0.840000
85.321737,-0.042456,0.009272,1.010160,0.980000,0.700000,-0.980000
85.329824,-0.033184,0.011712,1.012112,0.840000,0.420000,-0.840000
85.337912,-0.043920,0.014640,1.013576,0.840000,0.560000,-0.840000
85.346000,-0.041968,0.012688,1.004304,0.700000,0.980000,-0.980000
85.354087,-0.034648,0.015128,1.011136,0.840000,0.560000,-0.840000
85.362175,-0.031232,0.014640,1.012112,0.840000,0.560000,-0.840000
85.370262,-0.045384,0.016104,1.011624,0.840000,0.560000,-0.840000
85.378350,-0.043432,0.011712,1.003816,0.560000,0.700000,-0.700000
85.386437,-0.030744,0.013176,1.013576,0.700000,0.420000,-0.840000
85.394525,-0.042944,0.011712,0.999424,0.840000,0.560000,-0.840000
85.402613,-0.034648,0.014640,1.017480,1.120000,0.420000,-0.840000
85.410700,-0.035624,0.014152,1.000888,0.840000,0.700000,-0.700000
85.418788,-0.041480,0.015616,1.012112,0.980000,0.560000,-0.840000
85.426875,-0.043432,0.011712,1.008208,0.700000,0.700000,-0.840000
85.434963,-0.032696,0.012200,1.010160,0.980000,0.140000,-0.700000
85.443051,-0.035624,0.016592,1.019432,0.700000,0.420000,-0.980000
85.451138,-0.044896,0.013664,1.003816,0.700000,0.560000,-0.840000
85.459226,-0.038064,0.012200,1.008208,0.700000,0.420000,-0.840000
85.467313,-0.037088,0.013664,1.011624,0.840000,0.560000,-0.840000
85.475401,-0.042944,0.014152,1.010648,0.840000,0.700000,-0.840000
85.483488,-0.044408,0.013664,1.001376,0.840000,0.700000,-0.840000
85.491576,-0.032208,0.017568,1.015528,0.840000,0.420000,-0.700000
85.499664,-0.037576,0.010736,1.002840,0.980000,0.560000,-0.980000
85.507751,-0.042456,0.016104,1.013576,0.840000,0.700000,-0.840000
85.515839,-0.034648,0.015616,1.012112,0.840000,0.420000,-0.840000
85.523926,-0.047336,0.010736,0.997960,0.840000,0.420000,-0.840000
85.532014,-0.040016,0.011224,1.009184,0.980000,0.560000,-0.980000
85.540101,-0.031720,0.016592,1.009184,0.840000,0.560000,-0.700000
85.548189,-0.040016,0.012688,1.008208,0.980000,0.700000,-0.840000
85.556277,-0.045384,0.006832,1.005280,0.840000,0.560000,-0.840000
85.564364,-0.035624,0.020008,1.011136,0.980000,0.420000,-0.700000
85.572452,-0.033184,0.013664,1.015040,0.840000,0.560000,-0.840000
85.580539,-0.045872,0.013664,1.012112,0.840000,0.700000,-0.840000
85.588627,-0.035136,0.010248,0.998448,0.840000,0.420000,-0.840000
85.596715,-0.034160,0.014152,1.016504,0.840000,0.700000,-0.840000
85.604802,-0.038064,0.010248,1.003816,0.700000,0.280000,-0.840000
85.612890,-0.042456,0.024400,1.017968,0.840000,0.840000,-0.840000
85.620977,-0.034160,0.009760,1.002840,0.700000,0.420000,-0.840000
85.629065,-0.038064,0.015616,1.009672,0.980000,0.420000,-0.840000
85.637152,-0.040016,0.014640,1.008208,0.980000,0.560000,-0.840000
85.645240,-0.046360,0.016104,1.008208,0.980000,0.560000,-0.840000
85.653328,-0.042456,0.012200,1.009184,0.840000,0.980000,-0.980000
85.661415,-0.041480,0.007808,1.005280,0.840000,0.560000,-0.840000
85.669503,-0.038552,0.019032,1.016016,0.700000,0.280000,-0.840000
85.677590,-0.036600,0.008784,0.999424,0.840000,0.840000,-0.980000
85.685678,-0.050264,0.016592,1.014064,0.840000,0.560000,-0.700000
85.693765,-0.034160,0.007320,1.001864,0.700000,0.420000,-0.840000
85.701853,-0.036112,0.015616,1.013576,0.840000,0.420000,-0.840000
85.709941,-0.040016,0.012200,1.007720,0.840000,0.700000,-0.840000
85.718028,-0.041480,0.020984,1.006256,0.980000,0.560000,-0.700000
85.726116,-0.029280,0.013176,1.012600,0.700000,0.560000,-0.700000
85.734203,-0.045384,0.009272,1.009184,0.840000,0.560000,-0.840000
85.742291,-0.035624,0.018544,1.016016,0.840000,0.420000,-0.840000
85.750379,-0.037088,0.010248,1.004792,0.840000,0.700000,-0.700000
85.758466,-0.045384,0.014640,0.999912,0.840000,0.840000,-0.840000
85.766554,-0.036600,0.011712,1.014064,0.840000,0.280000,-0.840000
85.774641,-0.032208,0.017080,1.014552,0.700000,0.560000,-0.700000
85.782729,-0.043432,0.011224,1.004304,0.840000,0.700000,-0.980000
85.790816,-0.038552,0.013176,1.013576,0.700000,0.700000,-0.840000
85.798904,-0.039040,0.017080,1.006256,0.700000,0.420000,-0.700000
85.806992,-0.034648,0.009760,1.015040,0.840000,0.420000,-0.840000
85.815079,-0.038064,0.015616,1.002840,0.980000,0.560000,-0.700000
85.823167,-0.048312,0.015616,1.010648,0.840000,0.840000,-0.840000
85.831254,-0.033184,0.015128,1.004304,0.840000,0.280000,-0.840000
85.839342,-0.040016,0.003904,1.014064,0.840000,0.560000,-0.840000
85.847429,-0.046360,0.020008,1.003816,0.840000,0.700000,-0.840000
85.855517,-0.035624,0.014640,1.011624,0.700000,0.280000,-0.700000
85.863605,-0.036112,0.011224,1.003816,0.980000,0.560000,-0.840000
85.871692,-0.044408,0.014152,1.006744,0.840000,0.420000,-0.700000
85.879780,-0.039528,0.012200,1.008696,0.700000,0.700000,-0.840000
85.887867,-0.042944,0.013664,1.010160,0.980000,0.560000,-0.840000
85.895955,-0.036600,0.008296,1.004792,1.120000,0.560000,-0.840000
85.904043,-0.040992,0.020008,1.012600,0.840000,0.560000,-0.840000
85.912130,-0.034160,0.009760,1.006744,0.840000,0.840000,-0.980000
85.920218,-0.039528,0.016104,1.017480,0.840000,0.420000,-0.840000
85.928305,-0.040016,0.015616,0.996008,0.700000,0.700000,-0.700000
85.936393,-0.035624,0.012200,1.019920,0.840000,0.420000,-0.840000
85.944480,-0.033184,0.009272,1.003816,0.980000,0.420000,-0.840000
85.952568,-0.039040,0.019520,1.016992,0.980000,0.420000,-0.700000
85.960656,-0.039528,0.014640,1.005768,0.980000,0.560000,-0.840000
85.968743,-0.041968,0.008784,1.007232,0.840000,0.560000,-0.840000
85.976831,-0.039040,0.019520,1.012112,0.980000,0.700000,-0.840000
85.984918,-0.038552,0.010736,1.003328,0.700000,0.840000,-0.840000
85.993006,-0.039040,0.007320,1.005280,0.840000,0.280000,-0.840000
86.001093,-0.041968,0.016104,1.010648,0.840000,0.560000,-0.840000
86.009181,-0.041480,0.016104,1.012600,0.840000,0.700000,-0.700000
86.017269,-0.040504,0.009760,1.005768,0.560000,0.420000,-0.980000
86.025356,-0.038064,0.012200,1.013576,0.700000,0.700000,-0.840000
86.033444,-0.037576,0.020008,1.001864,0.560000,0.280000,-0.700000
86.041531,-0.034160,0.010248,1.007232,0.840000,0.560000,-0.840000
86.049619,-0.035624,0.019032,1.008696,0.980000,0.420000,-0.840000
86.057706,-0.044408,0.013664,1.007720,0.980000,0.700000,-0.840000
86.065794,-0.031720,0.008784,1.015040,0.980000,0.280000,-0.840000
86.073882,-0.039040,0.015128,1.013088,1.120000,0.560000,-0.840000
86.081969,-0.036600,0.012688,1.001376,0.840000,0.280000,-0.840000
86.090057,-0.038552,0.017568,1.011624,0.700000,0.560000,-0.700000
86.098144,-0.046360,0.013664,1.006744,0.840000,0.840000,-0.980000
86.106232,-0.044408,0.010736,1.002352,0.700000,0.560000,-0.840000
86.114320,-0.038552,0.015128,1.010160,0.700000,0.700000,-0.840000
86.122407,-0.041480,0.006344,1.005768,0.980000,0.700000,-0.840000
86.130495,-0.036600,0.019032,1.012600,0.840000,0.420000,-0.840000
86.138582,-0.041480,0.010248,1.008208,0.840000,0.420000,-0.700000
86.146670,-0.040992,0.014640,1.000888,0.980000,0.700000,-0.840000
86.154757,-0.037088,0.012688,1.020896,0.980000,0.560000,-0.980000
86.162845,-0.036112,0.017568,0.998448,0.700000,0.560000,-0.700000
86.170933,-0.034648,0.015128,1.012112,0.840000,0.560000,-0.840000
86.179020,-0.036112,0.008784,1.004792,0.980000,0.280000,-0.840000
86.187108,-0.033672,0.017568,1.019432,0.980000,0.420000,-0.700000
86.195195,-0.043432,0.014152,1.010648,0.700000,0.560000,-0.840000
86.203283,-0.036112,0.008296,1.006744,0.840000,0.420000,-0.840000
86.211370,-0.036600,0.015128,1.006256,0.840000,0.700000,-0.840000
86.219458,-0.037576,0.014152,1.009184,0.840000,0.420000,-0.700000
86.227546,-0.047336,0.010248,1.007720,0.840000,0.560000,-0.980000
86.235633,-0.047824,0.016592,1.003328,0.700000,0.980000,-0.840000
86.243721,-0.029768,0.012200,1.016992,0.700000,0.280000,-0.700000
86.251808,-0.041480,0.009760,1.007720,0.560000,0.700000,-0.980000
86.259896,-0.040016,0.017080,1.008208,0.840000,0.700000,-0.980000
86.267984,-0.039528,0.012200,1.008208,0.840000,0.420000,-0.700000
86.276071,-0.040016,0.012200,1.004304,0.980000,0.560000,-0.840000
86.284159,-0.036112,0.016592,1.017968,0.840000,0.420000,-0.840000
86.292246,-0.040992,0.020008,1.008696,0.840000,0.840000,-0.840000
86.300334,-0.032208,0.011712,1.003816,0.840000,0.420000,-0.840000
86.308421,-0.042456,0.010248,1.011624,0.980000,0.420000,-0.840000
86.316509,-0.041968,0.015616,1.000888,0.840000,0.560000,-0.840000
86.324597,-0.031232,0.013664,1.015040,0.840000,0.420000,-0.840000
86.332684,-0.048312,0.010248,1.008696,0.840000,0.700000,-0.840000
86.340772,-0.040504,0.005856,1.000888,0.560000,0.700000,-0.840000
86.348859,-0.037088,0.022936,1.015040,0.700000,0.280000,-0.700000
86.356947,-0.039528,0.008296,1.008696,0.700000,0.700000,-0.840000
86.365034,-0.044896,0.020984,1.011136,0.980000,0.700000,-0.840000
86.373122,-0.032208,0.004880,1.003816,0.700000,0.420000,-0.700000
86.381210,-0.037088,0.016104,1.020896,0.980000,0.700000,-0.840000
86.389297,-0.033672,0.014640,1.011136,0.980000,0.560000,-0.840000
86.397385,-0.035624,0.021472,1.011624,0.840000,0.560000,-0.700000
86.405472,-0.037088,0.010736,1.002840,0.980000,0.420000,-0.840000
86.413560,-0.039040,0.016104,1.010648,0.840000,0.420000,-0.840000
86.421647,-0.043432,0.013664,1.004304,0.840000,0.840000,-0.700000
86.429735,-0.036112,0.013664,1.006256,0.840000,0.280000,-0.840000
86.437823,-0.041480,0.007808,1.006744,0.980000,0.560000,-0.980000
86.445910,-0.039040,0.013176,1.007232,0.980000,0.560000,-0.840000
86.453998,-0.038552,0.020496,1.010648,0.980000,0.420000,-0.840000
86.462085,-0.046360,0.005856,1.006256,0.840000,0.840000,-0.840000
86.470173,-0.048800,0.014640,1.008208,0.980000,0.700000,-0.840000
86.478261,-0.030256,0.017080,1.012112,0.700000,0.280000,-0.840000
86.486348,-0.038064,0.010736,1.006256,0.840000,0.700000,-0.840000
86.494436,-0.040992,0.019032,1.009184,0.840000,0.420000,-0.840000
86.502523,-0.035624,0.014640,1.014552,0.700000,0.700000,-0.840000
86.510611,-0.038064,0.013664,1.002840,0.700000,0.560000,-0.840000
86.518698,-0.037576,0.008296,1.013088,0.840000,0.700000,-0.840000
86.526786,-0.039040,0.022936,1.006744,0.840000,0.560000,-0.840000
86.534874,-0.037088,0.013664,1.007232,0.980000,0.420000,-0.840000
86.542961,-0.038064,0.010736,1.013088,0.980000,0.560000,-0.840000
86.551049,-0.040016,0.012688,0.996496,0.980000,0.700000,-0.840000
86.559136,-0.035136,0.016592,1.021384,0.840000,0.280000,-0.700000
86.567224,-0.043432,0.005368,1.003816,0.700000,0.840000,-0.840000
86.575311,-0.037088,0.015616,1.014552,0.700000,0.560000,-0.840000
86.583399,-0.031720,0.012688,0.999424,0.700000,0.140000,-0.700000
86.591487,-0.044408,0.012200,1.013088,0.700000,0.420000,-0.700000
86.599574,-0.044896,0.015128,1.008208,0.840000,0.980000,-0.840000
86.607662,-0.039528,0.013176,1.004792,0.560000,0.420000,-0.840000
86.615749,-0.034648,0.011712,1.013088,0.700000,0.560000,-0.840000
86.623837,-0.038552,0.014152,1.004304,0.980000,0.420000,-0.840000
86.631924,-0.038064,0.023912,1.021872,1.120000,0.420000,-0.700000
86.640012,-0.046848,0.008296,0.990152,0.840000,0.840000,-0.980000
86.648100,-0.039040,0.009760,1.012112,1.120000,0.280000,-0.840000
86.656187,-0.036600,0.013664,1.009672,0.840000,0.420000,-0.840000
86.664275,-0.034648,0.018056,1.002352,0.980000,0.840000,-0.840000
86.672362,-0.040016,0.013176,1.015528,0.980000,0.420000,-0.840000
86.680450,-0.037576,0.015128,1.009184,0.980000,0.700000,-0.840000
86.688538,-0.040992,0.017568,1.011624,0.700000,0.560000,-0.840000
86.696625,-0.040504,0.006832,1.010160,0.700000,0.560000,-0.840000
86.704713,-0.040016,0.011712,1.005768,0.840000,0.700000,-0.840000
86.712800,-0.037576,0.017080,1.009184,0.840000,0.420000,-0.840000
86.720888,-0.032696,0.007320,1.008208,0.700000,0.560000,-0.840000
86.728975,-0.041480,0.021472,1.014552,0.840000,0.700000,-0.840000
86.737063,-0.040016,0.012688,1.006256,0.700000,0.840000,-0.840000
86.745151,-0.037576,0.017568,1.009672,0.840000,0.420000,-0.700000
86.753238,-0.036600,0.006832,1.007720,0.980000,0.420000,-0.840000
86.761326,-0.040992,0.015616,1.011624,0.840000,0.420000,-0.840000
86.769413,-0.035136,0.011224,1.003816,0.700000,0.560000,-0.840000
86.777501,-0.038064,0.012200,1.013088,0.980000,0.420000,-0.840000
86.785588,-0.041968,0.013176,1.002352,0.560000,0.700000,-0.700000
86.793676,-0.036600,0.016104,1.018944,0.980000,0.420000,-0.840000
86.801764,-0.037088,0.013176,1.011136,0.840000,0.560000,-0.840000
86.809851,-0.040504,0.011712,1.007232,0.980000,0.560000,-0.840000
86.817939,-0.035136,0.017080,1.007720,0.700000,0.280000,-0.840000
86.826026,-0.043432,0.008784,1.010648,0.700000,0.700000,-0.840000
86.834114,-0.043432,0.018056,1.006744,0.840000,0.560000,-0.840000
86.842201,-0.041968,0.015616,1.003816,0.560000,0.840000,-0.840000
86.850289,-0.037576,0.009272,1.003816,0.700000,0.280000,-0.840000
86.858377,-0.040016,0.012688,1.010160,0.840000,0.420000,-0.840000
86.866464,-0.040504,0.018056,1.012600,0.980000,0.700000,-0.840000
86.874552,-0.040504,0.013176,1.005280,0.840000,0.420000,-0.840000
86.882639,-0.031232,0.008784,1.011624,1.120000,0.280000,-0.700000
86.890727,-0.045384,0.018056,1.008208,0.980000,0.700000,-0.840000
86.898815,-0.034160,0.018056,1.013576,0.980000,0.700000,-0.840000
86.906902,-0.038552,0.004392,0.997472,0.700000,0.560000,-0.700000
86.914990,-0.044408,0.016104,1.013088,0.840000,0.560000,-0.840000
86.923077,-0.032208,0.016592,1.018944,0.840000,0.420000,-0.980000
86.931165,-0.035624,0.012688,1.009184,0.700000,0.700000,-0.840000
86.939252,-0.040504,0.013664,1.000888,0.840000,0.560000,-0.840000
86.947340,-0.037088,0.011712,1.003328,0.700000,0.280000,-0.700000
86.955428,-0.036112,0.011712,1.019920,0.840000,0.700000,-0.840000
86.963515,-0.043920,0.017080,1.010648,0.980000,0.560000,-0.840000
86.971603,-0.037576,0.017080,1.016016,0.700000,0.560000,-0.840000
86.979690,-0.031232,0.009272,0.998448,0.840000,0.560000,-0.840000
86.987778,-0.036600,0.017568,1.014552,0.840000,0.420000,-0.700000
86.995865,-0.046848,0.016104,1.009184,0.840000,0.560000,-0.700000
87.003953,-0.040504,0.010736,1.000888,0.700000,0.560000,-0.840000
87.012041,-0.034648,0.010248,1.014064,0.840000,0.280000,-0.840000
87.020128,-0.046848,0.017080,1.007232,0.840000,0.840000,-0.840000
87.028216,-0.035624,0.016104,1.014552,0.840000,0.420000,-0.980000
87.036303,-0.037088,0.006832,1.001376,0.840000,0.420000,-0.840000
87.044391,-0.044896,0.015128,1.002840,0.980000,0.700000,-0.840000
87.052478,-0.042456,0.016592,1.014552,0.980000,0.700000,-0.980000
87.060566,-0.031232,0.007808,1.005768,0.840000,0.560000,-0.840000
87.068654,-0.039040,0.015616,1.012600,0.840000,0.420000,-0.840000
87.076741,-0.043432,0.020008,1.012112,0.980000,0.840000,-0.840000
87.084829,-0.038064,0.007808,1.006256,0.700000,0.420000,-0.840000
87.092916,-0.034160,0.022448,1.010160,0.980000,0.700000,-0.840000
87.101004,-0.043920,0.010248,1.010160,0.840000,0.560000,-0.840000
87.109091,-0.035136,0.007808,1.002352,0.840000,0.420000,-0.840000
87.117179,-0.035136,0.015128,1.017480,0.840000,0.840000,-0.980000
87.125267,-0.037088,0.015616,1.008208,0.980000,0.560000,-0.700000
87.133354,-0.039528,0.017080,1.008208,0.840000,0.560000,-0.700000
87.141442,-0.040016,0.007320,1.015040,0.840000,0.840000,-0.980000
87.149529,-0.038552,0.015128,1.009184,0.840000,0.420000,-0.840000
87.157617,-0.034160,0.012200,1.011136,0.840000,0.280000,-0.840000
87.165705,-0.042944,0.013176,0.999912,0.700000,0.700000,-0.700000
87.173792,-0.043432,0.011712,1.007720,0.980000,0.420000,-0.840000
87.181880,-0.036600,0.019520,1.013088,0.840000,0.700000,-0.840000
87.189967,-0.038552,0.008784,1.009184,0.560000,0.560000,-0.840000
87.198055,-0.036112,0.013176,1.011136,0.980000,0.420000,-0.980000
87.206142,-0.040992,0.018544,1.008208,0.980000,0.560000,-0.840000
87.214230,-0.040992,0.012200,1.002352,0.700000,0.560000,-0.840000
87.222318,-0.037576,0.010736,1.012112,0.980000,0.560000,-0.840000
87.230405,-0.044408,0.013664,1.000888,0.700000,0.560000,-0.840000
87.238493,-0.037576,0.014640,1.006256,0.840000,0.700000,-0.700000
87.246580,-0.035624,0.011224,1.016992,0.840000,0.560000,-0.840000
87.254668,-0.042456,0.018056,1.007720,0.840000,0.700000,-0.840000
87.262755,-0.042944,0.015616,1.010648,0.840000,0.560000,-0.840000
87.270843,-0.034648,0.009760,1.008696,0.700000,0.840000,-0.980000
87.278931,-0.040504,0.014640,1.011624,0.840000,0.560000,-0.840000
87.287018,-0.036112,0.015616,1.006744,0.980000,0.280000,-0.840000
87.295106,-0.033184,0.010248,1.020408,0.840000,0.560000,-0.840000
87.303193,-0.038064,0.013664,1.003328,1.120000,0.700000,-0.840000
87.311281,-0.045384,0.016592,1.010160,0.840000,0.420000,-0.840000
87.319368,-0.036600,0.011712,1.009184,0.700000,0.560000,-0.840000
87.327456,-0.047824,0.006344,0.997960,0.840000,0.700000,-0.840000
87.335544,-0.034648,0.016104,1.010648,0.840000,0.140000,-0.840000
87.343631,-0.036112,0.016592,1.016992,0.840000,0.700000,-0.840000
87.351719,-0.040504,0.011712,1.003816,0.980000,0.560000,-0.840000
87.359806,-0.044896,0.011224,1.011624,0.700000,0.420000,-0.840000
87.367894,-0.039040,0.020984,1.011624,0.980000,0.700000,-0.840000
87.375982,-0.039528,0.005368,0.997472,0.560000,0.700000,-0.840000
87.384069,-0.036112,0.019520,1.018456,1.120000,0.280000,-0.840000
87.392157,-0.033672,0.013176,1.003328,0.980000,0.840000,-0.840000
87.400244,-0.038552,0.016104,1.016504,0.840000,0.420000,-0.840000
87.408332,-0.036112,0.010736,1.004792,0.840000,0.420000,-0.840000
87.416419,-0.046848,0.018544,1.004304,0.700000,0.840000,-0.840000
87.424507,-0.034160,0.008296,1.013088,0.560000,0.420000,-0.840000
87.432595,-0.038552,0.014640,1.016016,0.980000,0.700000,-0.980000
87.440682,-0.042944,0.018056,0.996984,0.840000,0.560000,-0.700000
87.448770,-0.041968,0.008296,1.012112,0.840000,0.560000,-0.840000
87.456857,-0.040504,0.015616,1.002352,0.840000,0.840000,-0.840000
87.464945,-0.039528,0.007808,1.006744,0.840000,0.560000,-0.840000
87.473032,-0.037088,0.018544,1.019920,1.120000,0.280000,-0.700000
87.481120,-0.040992,0.007320,1.001376,0.840000,0.980000,-0.980000
87.489208,-0.040992,0.019032,1.009184,0.840000,0.280000,-0.700000
87.497295,-0.033672,0.012200,1.008696,0.700000,0.560000,-0.840000
87.505383,-0.035624,0.011224,1.016016,0.840000,0.560000,-0.840000
87.513470,-0.040992,0.020496,1.011624,0.840000,0.560000,-0.840000
87.521558,-0.031232,0.013176,1.009184,0.700000,0.420000,-0.840000
87.529645,-0.032208,0.013176,1.015528,0.840000,0.420000,-0.840000
87.537733,-0.038064,0.011712,1.003816,0.980000,0.700000,-0.840000
87.545821,-0.040016,0.018056,1.011624,0.840000,0.280000,-0.700000
87.553908,-0.040504,0.010248,1.011136,0.840000,0.560000,-0.840000
87.561996,-0.039528,0.013176,1.013088,0.980000,0.700000,-0.980000
87.570083,-0.040992,0.015616,0.998936,0.840000,0.560000,-0.840000
87.578171,-0.047336,0.013664,1.008208,0.700000,0.700000,-0.840000
87.586258,-0.040992,0.007320,1.004304,0.980000,0.700000,-0.840000
87.594346,-0.038064,0.016104,1.013088,0.840000,0.700000,-0.840000
87.602434,-0.040016,0.012200,1.000888,0.840000,0.420000,-0.840000
87.610521,-0.040016,0.011224,1.016992,0.840000,0.700000,-0.840000
87.618609,-0.036600,0.016104,1.007720,0.700000,0.700000,-0.840000
87.626696,-0.041968,0.015616,1.004792,0.840000,0.700000,-0.840000
87.634784,-0.037088,0.011224,1.016504,0.840000,0.560000,-0.700000
87.642872,-0.036600,0.013664,0.998936,0.840000,0.560000,-0.840000
87.650959,-0.034160,0.019032,1.021384,1.120000,0.280000,-0.700000
87.659047,-0.040504,0.012688,1.006744,0.840000,0.560000,-0.840000
87.667134,-0.042456,0.005856,1.001376,0.840000,0.420000,-0.840000
87.675222,-0.035136,0.020008,1.019432,0.840000,0.560000,-0.840000
87.683309,-0.042944,0.009760,1.000888,0.560000,0.560000,-0.700000
87.691397,-0.040016,0.018544,1.015528,0.840000,0.560000,-0.840000
87.699485,-0.037576,0.012688,1.003328,0.840000,0.700000,-0.840000
87.707572,-0.041968,0.015128,1.008208,0.700000,0.560000,-0.840000
87.715660,-0.040016,0.008784,1.013088,0.980000,0.700000,-0.840000
87.723747,-0.039528,0.015128,1.015040,0.700000,0.700000,-0.840000
87.731835,-0.042944,0.012200,0.996496,0.840000,0.840000,-0.980000
87.739922,-0.029280,0.008296,1.016504,0.980000,0.140000,-0.700000
87.748010,-0.042456,0.018056,1.009672,0.840000,0.840000,-0.840000
87.756098,-0.036112,0.017568,1.007720,0.700000,0.420000,-0.840000
87.764185,-0.034160,0.008296,1.011136,0.700000,0.420000,-0.700000
87.772273,-0.041480,0.017568,1.004304,0.980000,0.560000,-0.700000
87.780360,-0.037576,0.017568,1.012600,0.980000,0.560000,-0.980000
87.788448,-0.040504,0.008296,1.000400,0.840000,0.560000,-0.700000
87.796535,-0.042944,0.010248,1.006256,1.120000,0.420000,-0.840000
87.804623,-0.043432,0.014640,1.004304,0.980000,0.560000,-0.840000
87.812711,-0.040016,0.009760,1.009184,0.840000,0.560000,-0.840000
87.820798,-0.043432,0.015616,1.011624,0.700000,0.700000,-0.840000
87.828886,-0.042944,0.015128,1.017480,0.840000,0.840000,-0.980000
87.836973,-0.033184,0.015616,1.004792,0.560000,0.560000,-0.840000
87.845061,-0.033184,0.012200,1.017968,0.700000,0.700000,-0.840000
87.853148,-0.042456,0.014640,1.001864,0.840000,0.560000,-0.840000
87.861236,-0.037088,0.017080,1.010648,0.700000,0.700000,-0.840000
87.869324,-0.036600,0.012688,1.013576,0.980000,0.420000,-0.700000
87.877411,-0.033672,0.013176,1.006744,0.980000,0.280000,-0.840000
87.885499,-0.041480,0.019032,1.012600,0.840000,0.840000,-0.840000
87.893586,-0.032696,0.007320,1.008696,0.840000,0.280000,-0.840000
87.901674,-0.042456,0.010736,1.004304,0.840000,0.280000,-0.840000
87.909762,-0.046360,0.018056,1.005768,0.700000,0.420000,-0.840000
87.917849,-0.034160,0.008784,1.012112,0.700000,0.560000,-0.700000
87.925937,-0.036600,0.012688,1.006256,0.980000,0.560000,-0.840000
87.934024,-0.049288,0.015616,1.004792,0.840000,0.700000,-0.840000
87.942112,-0.040016,0.013664,1.011624,0.700000,0.280000,-0.700000
87.950199,-0.032696,0.009272,1.005768,0.840000,0.700000,-0.840000
87.958287,-0.045872,0.017080,1.011136,0.980000,0.700000,-0.840000
87.966375,-0.032696,0.015616,1.006744,0.840000,0.420000,-0.840000
87.974462,-0.032208,0.009760,1.018944,0.980000,0.420000,-0.840000
87.982550,-0.043920,0.017568,0.997472,0.840000,0.560000,-0.840000
87.990637,-0.045872,0.019520,1.016992,0.840000,0.700000,-0.840000
87.998725,-0.029768,0.006344,1.000400,0.700000,0.560000,-0.840000
88.006812,-0.043432,0.016104,1.017968,0.980000,0.560000,-0.840000
88.014900,-0.033184,0.016104,1.008696,1.120000,0.420000,-0.840000
88.022988,-0.043432,0.007320,1.003816,0.560000,0.700000,-0.840000
88.031075,-0.037576,0.014152,1.012600,1.260000,0.420000,-0.840000
88.039163,-0.045872,0.017568,1.007720,0.980000,0.700000,-0.840000
88.047250,-0.045384,0.013664,1.007720,0.700000,0.980000,-0.700000
88.055338,-0.025376,0.013664,1.014552,0.840000,0.420000,-0.840000
88.063425,-0.040016,0.012200,1.016016,0.700000,0.560000,-0.840000
88.071513,-0.044408,0.009272,0.993568,0.700000,0.420000,-0.840000
88.079601,-0.038552,0.020008,1.019920,0.700000,0.700000,-0.840000
88.087688,-0.037576,0.013664,1.002352,0.840000,0.840000,-0.840000
88.095776,-0.045384,0.015128,1.007720,0.840000,0.420000,-0.840000
88.103863,-0.027328,0.006344,1.016016,0.700000,0.420000,-0.980000
88.111951,-0.038064,0.019520,1.000400,1.120000,0.560000,-0.700000
88.120039,-0.039528,0.016592,1.011136,0.980000,0.420000,-0.840000
88.128126,-0.038552,0.010248,1.009672,0.840000,0.560000,-0.840000
88.136214,-0.038064,0.015128,1.008696,0.840000,0.560000,-0.840000
88.144301,-0.041480,0.014152,1.006744,0.840000,0.420000,-0.840000
88.152389,-0.041968,0.014640,1.015528,0.560000,0.560000,-0.840000
88.160476,-0.038064,0.009272,1.001376,0.980000,0.700000,-0.840000
88.168564,-0.043432,0.016104,1.012112,0.840000,0.420000,-0.840000
88.176652,-0.040016,0.005856,1.002352,0.700000,0.700000,-0.840000
88.184739,-0.042944,0.018056,1.008696,0.840000,0.840000,-0.840000
88.192827,-0.035624,0.016104,1.012600,0.980000,0.560000,-0.980000
88.200914,-0.043432,0.014152,1.003328,0.840000,0.700000,-0.840000
88.209002,-0.032696,0.012688,1.012600,0.980000,0.560000,-0.840000
88.217089,-0.033672,0.011224,1.017968,0.840000,0.280000,-0.840000
88.225177,-0.043432,0.020984,0.999424,0.980000,0.840000,-0.840000
88.233265,-0.039040,0.008784,1.005768,0.840000,0.420000,-0.840000
88.241352,-0.030256,0.012688,1.013088,0.980000,0.420000,-0.840000
88.249440,-0.040992,0.013176,1.008696,0.840000,0.280000,-0.840000
88.257527,-0.038064,0.015128,1.016992,0.700000,0.560000,-0.840000
88.265615,-0.044408,0.011224,1.003328,0.840000,0.700000,-0.840000
88.273702,-0.039040,0.016104,1.003816,0.840000,0.560000,-0.840000
88.281790,-0.032208,0.010248,1.015040,0.700000,0.420000,-0.700000
88.289878,-0.043432,0.009760,1.007232,0.700000,0.420000,-0.980000
88.297965,-0.037576,0.017568,1.009184,0.840000,0.700000,-0.840000
88.306053,-0.047824,0.013664,1.004304,0.560000,0.700000,-0.840000
88.314140,-0.034648,0.016592,1.015040,0.700000,0.420000,-0.840000
88.322228,-0.034160,0.016592,1.013576,0.840000,0.560000,-0.840000
88.330315,-0.041480,0.015616,0.995520,0.700000,0.700000,-0.700000
88.338403,-0.034160,0.005368,1.017480,0.980000,0.280000,-0.840000
88.346491,-0.042456,0.013176,1.000888,0.980000,0.560000,-0.840000
88.354578,-0.042944,0.018056,1.012112,0.980000,0.560000,-0.840000
88.362666,-0.037576,0.009760,1.008208,0.980000,0.560000,-0.840000
88.370753,-0.036600,0.013664,1.002840,0.980000,0.560000,-0.840000
88.378841,-0.040504,0.018544,1.017968,0.980000,0.420000,-0.840000
88.386929,-0.042456,0.013176,1.004792,0.700000,0.700000,-0.840000
88.395016,-0.038552,0.008296,1.014552,0.700000,0.560000,-0.840000
88.403104,-0.040504,0.017080,1.007720,0.840000,0.700000,-0.840000
88.411191,-0.037576,0.009272,1.006256,0.560000,0.280000,-0.840000
88.419279,-0.040016,0.018544,1.017480,0.980000,0.840000,-0.840000
88.427366,-0.039040,0.010248,1.000888,0.980000,0.420000,-0.840000
88.435454,-0.035624,0.019032,1.015528,0.980000,0.560000,-0.840000
88.443542,-0.038064,0.012688,1.009672,0.980000,0.420000,-0.700000
88.451629,-0.034648,0.012688,1.004792,0.980000,0.420000,-0.840000
88.459717,-0.040992,0.020984,1.013576,0.980000,0.840000,-0.840000
88.467804,-0.035136,0.008784,1.007720,0.700000,0.280000,-0.840000
88.475892,-0.042456,0.013664,1.014064,0.980000,0.420000,-0.840000
88.483979,-0.040992,0.014640,0.997472,0.840000,0.700000,-0.840000
88.492067,-0.041480,0.012688,1.013088,0.700000,0.420000,-0.840000
88.500155,-0.038064,0.011712,1.000400,0.700000,0.980000,-0.980000
88.508242,-0.040016,0.018544,1.016016,0.980000,0.420000,-0.840000
88.516330,-0.038552,0.006344,1.006256,0.700000,0.140000,-0.840000
88.524417,-0.038064,0.010248,1.011136,1.120000,0.560000,-0.980000
88.532505,-0.039528,0.020496,1.009184,0.840000,0.560000,-0.840000
88.540592,-0.043432,0.009272,0.992592,0.700000,0.560000,-0.700000
88.548680,-0.035624,0.020008,1.020408,0.840000,0.280000,-0.840000
88.556768,-0.036600,0.014640,1.010648,0.840000,0.840000,-0.840000
88.564855,-0.043920,0.020008,1.010160,0.700000,0.280000,-0.700000
88.572943,-0.033184,0.003416,1.008208,0.700000,0.700000,-0.840000
88.581030,-0.040016,0.016104,1.006256,0.840000,0.420000,-0.840000
88.589118,-0.031720,0.015128,1.005280,1.120000,0.420000,-0.840000
88.597206,-0.043432,0.011712,1.010648,0.840000,0.560000,-0.700000
88.605293,-0.042944,0.013176,1.005768,0.980000,0.700000,-0.840000
88.613381,-0.042456,0.014640,1.010160,0.840000,0.840000,-0.980000
88.621468,-0.038064,0.011224,1.006256,0.560000,0.560000,-0.700000
88.629556,-0.036600,0.011712,1.017968,0.840000,0.560000,-0.840000
88.637643,-0.032696,0.020984,1.009672,0.840000,0.560000,-0.980000
88.645731,-0.040992,0.005368,0.998448,0.560000,0.420000,-0.700000
88.653819,-0.039528,0.016104,1.017968,0.840000,0.560000,-0.840000
88.661906,-0.035136,0.011224,1.000888,0.700000,0.560000,-0.840000
88.669994,-0.041480,0.017080,1.013576,0.840000,0.420000,-0.840000
88.678081,-0.030744,0.010736,1.005768,0.840000,0.420000,-0.700000
88.686169,-0.041968,0.018544,1.015528,1.120000,0.280000,-0.840000
88.694256,-0.040016,0.015128,0.997960,0.700000,0.560000,-0.980000
88.702344,-0.042456,0.012200,1.015040,0.980000,0.560000,-0.700000
88.710432,-0.044408,0.013664,1.003328,0.980000,0.840000,-0.840000
88.718519,-0.041480,0.010736,1.006256,0.980000,0.700000,-0.980000
88.726607,-0.034160,0.014152,1.011624,0.700000,0.420000,-0.840000
88.734694,-0.037088,0.012688,1.011136,0.840000,0.420000,-0.840000
88.742782,-0.035624,0.018544,1.016016,0.840000,0.840000,-0.980000
88.750869,-0.045384,0.009760,0.995520,0.700000,0.560000,-0.840000
88.758957,-0.033672,0.010736,1.022360,0.840000,0.420000,-0.840000
88.767045,-0.043920,0.017568,0.998448,0.980000,0.560000,-0.980000
88.775132,-0.037576,0.012200,1.016016,0.840000,0.560000,-0.840000
88.783220,-0.036112,0.015128,1.006256,0.980000,0.560000,-0.840000
88.791307,-0.048800,0.012688,1.005768,0.980000,0.700000,-0.840000
88.799395,-0.040504,0.014152,0.999912,0.840000,0.560000,-0.840000
88.807482,-0.043920,0.015128,1.006256,0.700000,0.980000,-0.840000
88.815570,-0.032696,0.009760,1.014064,0.980000,0.280000,-0.840000
88.823658,-0.037576,0.011712,1.002840,0.560000,0.420000,-0.840000
88.831745,-0.032696,0.018544,1.024800,0.840000,0.280000,-0.700000
88.839833,-0.039040,0.012200,1.002840,0.840000,0.420000,-0.840000
88.847920,-0.039528,0.013664,1.009672,0.840000,0.840000,-0.980000
88.856008,-0.034648,0.016592,1.016016,0.700000,0.420000,-0.840000
88.864095,-0.028792,0.005856,1.007720,0.840000,0.280000,-0.840000
88.872183,-0.045384,0.021472,1.011624,0.840000,0.420000,-0.840000
88.880271,-0.040992,0.007808,0.996984,0.560000,0.840000,-0.840000
88.888358,-0.037088,0.015616,1.013088,0.840000,0.560000,-0.840000
88.896446,-0.039528,0.012688,1.004304,0.700000,0.560000,-0.980000
88.904533,-0.042456,0.020496,1.012112,0.840000,0.560000,-0.700000
88.912621,-0.035624,0.012688,1.007232,0.700000,0.560000,-0.700000
88.920708,-0.043432,0.012688,1.008208,0.840000,0.420000,-0.840000
88.928796,-0.048312,0.010736,0.999912,0.700000,0.840000,-0.980000
88.936884,-0.033672,0.012688,1.007720,0.700000,0.700000,-0.700000
88.944971,-0.036600,0.013176,1.016016,1.120000,0.420000,-0.840000
88.953059,-0.047824,0.015128,1.000888,0.980000,0.840000,-0.840000
88.961146,-0.036600,0.014152,1.013088,0.980000,0.280000,-0.700000
88.969234,-0.034648,0.007320,1.005768,0.700000,0.700000,-0.840000
88.977321,-0.041480,0.020984,1.018456,0.980000,0.560000,-0.980000
88.985409,-0.036600,0.012688,0.998936,0.560000,0.560000,-0.700000
88.993497,-0.034648,0.013176,1.016992,0.700000,0.560000,-0.840000
89.001584,-0.034160,0.014152,1.004792,0.980000,0.280000,-0.840000
89.009672,-0.043432,0.014640,1.014552,0.700000,0.700000,-0.840000
89.017759,-0.031720,0.014640,1.012600,0.980000,0.560000,-0.840000
89.025847,-0.043920,0.010248,1.000888,0.840000,0.560000,-0.840000
89.033935,-0.038552,0.020984,1.013576,0.980000,0.420000,-0.840000
89.042022,-0.038552,0.010736,1.008208,0.840000,0.700000,-0.840000
89.050110,-0.039528,0.014152,1.014552,0.840000,0.560000,-0.840000
89.058197,-0.044408,0.010248,0.995520,0.700000,0.700000,-0.840000
89.066285,-0.037576,0.010736,1.023824,0.840000,0.420000,-0.840000
89.074372,-0.038064,0.012688,0.998936,0.700000,0.700000,-0.840000
89.082460,-0.041968,0.023912,1.020408,0.840000,0.560000,-0.840000
89.090548,-0.035136,0.006832,0.993080,0.700000,0.420000,-0.840000
89.098635,-0.042456,0.015128,1.012600,0.840000,0.420000,-0.840000
89.106723,-0.037088,0.013176,1.010160,0.840000,0.700000,-0.980000
89.114810,-0.043920,0.015616,1.011136,0.840000,0.700000,-0.700000
89.122898,-0.034648,0.012688,1.005280,0.840000,0.420000,-0.840000
89.130985,-0.042944,0.015128,1.007232,1.120000,0.560000,-0.840000
89.139073,-0.043432,0.016592,1.010160,0.840000,0.700000,-0.840000
89.147161,-0.039528,0.015128,1.007720,0.840000,0.420000,-0.840000
89.155248,-0.042944,0.007808,1.006256,0.700000,0.700000,-0.840000
89.163336,-0.034160,0.012200,1.005768,0.700000,0.280000,-0.840000
89.171423,-0.038064,0.015128,1.019432,0.700000,0.700000,-0.840000
89.179511,-0.036112,0.014640,1.005280,0.980000,0.560000,-0.840000
89.187598,-0.047824,0.015616,1.011624,0.700000,0.840000,-0.840000
89.195686,-0.027328,0.008784,1.001864,0.700000,0.420000,-0.700000
89.203774,-0.040504,0.015128,1.023336,0.840000,0.700000,-0.840000
89.211861,-0.039528,0.018056,1.004304,1.120000,0.840000,-0.840000
89.219949,-0.034648,0.011224,1.009184,0.700000,-0.140000,-0.700000
89.228036,-0.035624,0.009760,1.006744,0.840000,0.560000,-0.840000
89.236124,-0.037576,0.016592,1.013576,0.980000,0.420000,-0.840000
89.244211,-0.040016,0.015616,1.009184,0.980000,0.420000,-0.840000
89.252299,-0.040992,0.013176,0.998448,0.700000,0.560000,-0.700000
89.260387,-0.040016,0.015616,1.016016,0.980000,0.560000,-0.840000
89.268474,-0.038552,0.014640,1.007232,0.980000,0.420000,-0.840000
89.276562,-0.050264,0.013176,1.003328,0.700000,0.700000,-0.700000
89.284649,-0.035136,0.009760,1.009672,0.700000,0.420000,-0.840000
89.292737,-0.049288,0.013176,1.008208,0.980000,0.980000,-0.980000
89.300824,-0.038064,0.014152,1.004792,0.700000,0.840000,-0.840000
89.308912,-0.032696,0.012200,1.011136,0.840000,0.280000,-0.840000
89.317000,-0.036112,0.020008,1.014552,0.980000,0.700000,-0.840000
89.325087,-0.046360,0.012200,0.997472,0.840000,0.420000,-0.700000
89.333175,-0.035624,0.013664,1.015528,0.840000,0.560000,-0.840000
89.341262,-0.037576,0.014152,1.005768,0.840000,0.840000,-0.980000
89.349350,-0.040504,0.016104,1.015040,0.840000,0.420000,-0.700000
89.357437,-0.034160,0.011712,1.010160,0.840000,0.560000,-0.840000
89.365525,-0.042456,0.015128,1.003328,0.980000,0.560000,-0.840000
89.373613,-0.034648,0.011224,1.007720,0.980000,0.280000,-0.700000
89.381700,-0.044408,0.012688,1.006256,0.700000,0.980000,-0.840000
89.389788,-0.038064,0.014152,1.013088,0.980000,0.560000,-0.840000
89.397875,-0.038552,0.010736,1.004304,0.700000,0.560000,-0.980000
89.405963,-0.034648,0.021472,1.018944,0.840000,0.420000,-0.700000
89.414050,-0.044896,0.007320,1.010648,0.700000,0.560000,-0.840000
89.422138,-0.042944,0.016592,0.995520,0.560000,0.840000,-0.840000
89.430226,-0.034648,0.010248,1.017968,0.700000,0.140000,-0.700000
89.438313,-0.035624,0.013176,1.005768,0.700000,0.840000,-0.840000
89.446401,-0.031720,0.019520,1.008208,0.980000,0.420000,-0.980000
89.454488,-0.043432,0.014640,1.011624,0.980000,0.560000,-0.700000
89.462576,-0.038064,0.010736,1.005280,0.840000,0.560000,-0.700000
89.470663,-0.041480,0.014152,1.005768,0.980000,0.560000,-0.840000
89.478751,-0.037088,0.014640,1.009672,0.840000,0.700000,-0.840000
89.486839,-0.047336,0.011224,1.005768,0.840000,0.560000,-0.840000
89.494926,-0.040504,0.013176,1.002352,0.980000,0.560000,-0.840000
89.503014,-0.042944,0.009760,1.005280,0.700000,0.560000,-0.840000
89.511101,-0.040504,0.017080,1.012112,0.700000,0.700000,-0.840000
89.519189,-0.039528,0.011224,1.006744,0.840000,0.840000,-0.980000
89.527276,-0.037576,0.017080,1.010648,0.840000,0.560000,-0.840000
89.535364,-0.039040,0.013664,1.014064,0.980000,0.420000,-0.840000
89.543452,-0.031720,0.010248,1.009184,0.980000,0.280000,-0.840000
89.551539,-0.043432,0.019032,1.015040,0.980000,0.980000,-0.840000
89.559627,-0.034160,0.009272,1.004792,0.840000,0.280000,-0.700000
89.567714,-0.037088,0.015128,1.014552,0.700000,0.700000,-0.840000
89.575802,-0.026352,0.015616,1.009672,0.840000,0.420000,-0.980000
89.583889,-0.039040,0.017080,1.012600,0.840000,0.280000,-0.700000
89.591977,-0.043432,0.012200,1.011624,0.840000,0.420000,-0.700000
89.600065,-0.039528,0.011712,1.004792,0.980000,0.280000,-0.840000
89.608152,-0.040992,0.012200,1.011136,0.700000,0.560000,-0.840000
89.616240,-0.042944,0.015128,0.999424,0.840000,0.840000,-0.840000
89.624327,-0.041480,0.013176,1.012600,0.840000,0.840000,-0.980000
89.632415,-0.043920,0.009760,1.002840,0.840000,0.700000,-0.840000
89.640502,-0.037088,0.016104,1.018456,0.840000,0.560000,-0.700000
89.648590,-0.043432,0.008296,1.007232,0.700000,1.120000,-0.980000
89.656678,-0.041480,0.020984,1.008208,0.840000,0.420000,-0.980000
89.664765,-0.035624,0.008296,1.002840,0.700000,0.280000,-0.700000
89.672853,-0.039528,0.014152,1.011624,0.700000,0.560000,-0.700000
89.680940,-0.034648,0.012200,1.003328,0.980000,0.420000,-0.980000
89.689028,-0.036112,0.021472,1.022360,0.840000,0.560000,-0.700000
89.697116,-0.040016,0.012200,1.000888,0.840000,0.700000,-0.700000
89.705203,-0.038064,0.015616,1.011624,0.980000,0.420000,-0.840000
89.713291,-0.037088,0.017080,1.009672,0.980000,0.420000,-0.840000
89.721378,-0.032696,0.008296,1.004792,0.980000,0.700000,-0.700000
89.729466,-0.039040,0.014640,1.016016,0.980000,0.560000,-0.840000
89.737553,-0.043432,0.007808,1.005280,0.700000,0.280000,-0.840000
89.745641,-0.047336,0.020984,1.013576,0.980000,0.980000,-0.840000
89.753729,-0.030256,0.010736,1.010648,0.840000,0.420000,-0.840000
89.761816,-0.041968,0.016592,1.015040,0.700000,0.560000,-0.840000
89.769904,-0.040016,0.011224,0.996496,0.700000,0.560000,-0.700000
89.777991,-0.033672,0.012688,1.026264,0.840000,0.700000,-0.840000
89.786079,-0.037088,0.013176,0.996984,0.840000,0.560000,-0.980000
89.794166,-0.038064,0.015128,1.015528,0.980000,0.560000,-0.840000
89.802254,-0.032208,0.018056,1.009672,0.840000,0.420000,-0.840000
89.810342,-0.040992,0.011224,1.001864,0.980000,0.420000,-0.840000
89.818429,-0.041968,0.017568,1.011624,1.120000,0.560000,-0.700000
89.826517,-0.041480,0.007320,1.001376,0.840000,0.840000,-0.840000
89.834604,-0.039040,0.016104,1.013576,0.980000,0.420000,-0.840000
89.842692,-0.041480,0.006832,1.003328,0.840000,0.420000,-0.840000
89.850779,-0.038552,0.018544,1.013088,0.840000,0.560000,-0.840000
89.858867,-0.043920,0.011712,1.001376,0.840000,0.560000,-0.840000
89.866955,-0.045384,0.011712,1.010160,0.700000,0.700000,-0.840000
89.875042,-0.033184,0.015128,1.010160,0.840000,0.280000,-0.840000
89.883130,-0.034648,0.013176,1.014552,0.700000,0.560000,-0.840000
89.891217,-0.044408,0.021960,1.004304,0.980000,0.700000,-0.840000
89.899305,-0.040992,0.007320,1.005768,0.840000,0.700000,-0.840000
89.907392,-0.028304,0.016592,1.019432,0.980000,0.280000,-0.840000
89.915480,-0.037088,0.014640,1.005768,0.980000,0.560000,-0.840000
89.923568,-0.045384,0.014640,1.005280,0.840000,0.840000,-0.840000
89.931655,-0.034648,0.014152,1.014064,0.840000,0.420000,-0.700000
89.939743,-0.032208,0.003904,1.002352,0.840000,0.420000,-0.840000
89.947830,-0.042944,0.024400,1.014064,0.980000,0.420000,-0.700000
89.955918,-0.041968,0.009760,1.006256,0.700000,0.700000,-0.840000
89.964005,-0.036112,0.012688,1.010648,0.840000,0.420000,-0.840000
89.972093,-0.040992,0.005856,1.012112,0.840000,0.560000,-0.840000
89.980181,-0.037088,0.020496,1.011136,0.700000,0.420000,-0.840000
89.988268,-0.037088,0.008296,1.004792,0.700000,0.560000,-0.840000
89.996356,-0.046360,0.020008,1.011136,0.980000,1.120000,-0.840000
90.004443,-0.038552,0.013176,1.002352,0.560000,0.420000,-0.840000
90.012531,-0.031720,0.012200,1.017480,0.700000,0.420000,-0.840000
90.020618,-0.043432,0.014152,0.998448,0.840000,0.560000,-0.980000
90.028706,-0.039040,0.018056,1.014064,0.840000,0.420000,-0.700000
90.036794,-0.036600,0.012688,1.008208,0.980000,0.560000,-0.840000
90.044881,-0.042944,0.010248,1.003816,1.120000,0.700000,-0.840000
90.052969,-0.040016,0.016592,1.018456,0.840000,0.140000,-0.840000
90.061056,-0.036600,0.013664,0.997960,0.980000,0.980000,-0.700000
90.069144,-0.042944,0.013176,1.014552,0.980000,0.560000,-0.840000
90.077231,-0.038064,0.008296,1.002840,0.980000,0.420000,-0.980000
90.085319,-0.036600,0.016592,1.017480,0.840000,0.700000,-0.840000
90.093407,-0.042944,0.013176,1.007720,0.840000,0.560000,-0.840000
90.101494,-0.042944,0.014640,1.005280,0.700000,0.700000,-0.840000
90.109582,-0.039528,0.016104,1.006256,0.840000,0.700000,-0.700000
90.117669,-0.033184,0.005856,1.006744,0.560000,0.420000,-0.700000
90.125757,-0.041480,0.022448,1.021384,0.980000,0.420000,-0.980000
90.133845,-0.031720,0.009272,0.996984,0.840000,0.840000,-0.700000
90.141932,-0.038552,0.014152,1.017968,0.980000,0.420000,-0.700000
90.150020,-0.037088,0.015616,1.002840,0.980000,0.700000,-0.980000
90.158107,-0.035136,0.017568,1.018456,1.120000,0.140000,-0.840000
90.166195,-0.037088,0.012200,1.005768,0.700000,0.420000,-0.700000
90.174282,-0.037088,0.016104,1.015040,1.120000,0.560000,-0.840000
90.182370,-0.045872,0.008296,0.999424,0.560000,0.840000,-0.840000
90.190458,-0.035136,0.011712,1.011136,0.700000,0.420000,-0.840000
90.198545,-0.034648,0.015616,1.014064,0.700000,0.420000,-0.840000
90.206633,-0.051728,0.011712,1.003816,0.700000,0.700000,-0.840000
90.214720,-0.038064,0.016592,1.013576,0.840000,0.560000,-0.840000
90.222808,-0.042944,0.012200,1.001864,0.840000,0.980000,-0.840000
90.230895,-0.039040,0.011224,1.004792,0.700000,0.560000,-0.840000
90.238983,-0.042456,0.011224,1.005280,0.980000,0.840000,-0.840000
90.247071,-0.031232,0.019520,1.021384,0.840000,0.280000,-0.840000
90.255158,-0.036600,0.013664,1.004792,0.840000,0.560000,-0.840000
90.263246,-0.048312,0.016104,1.012600,0.840000,0.560000,-0.840000
90.271333,-0.034648,0.011712,0.999912,0.700000,0.560000,-0.840000
90.279421,-0.037576,0.014152,1.010160,0.980000,0.560000,-0.840000
90.287508,-0.036600,0.013176,1.007232,0.980000,0.000000,-0.840000
90.295596,-0.038552,0.011224,1.010648,0.560000,0.840000,-0.840000
90.303684,-0.035624,0.015616,1.016504,1.120000,0.420000,-0.980000
90.311771,-0.046360,0.012200,1.006256,0.840000,0.700000,-0.840000
90.319859,-0.037088,0.014152,1.006256,0.840000,0.700000,-0.840000
90.327946,-0.036600,0.013176,1.016016,0.700000,0.700000,-0.980000
90.336034,-0.037088,0.012688,1.008208,0.840000,0.280000,-0.840000
90.344121,-0.043432,0.015128,1.005768,0.700000,0.560000,-0.700000
90.352209,-0.038064,0.011712,1.008208,0.840000,0.700000,-0.840000
90.360297,-0.036112,0.015128,1.007720,0.840000,0.420000,-0.840000
90.368384,-0.043920,0.016104,1.010160,0.700000,0.840000,-0.840000
90.376472,-0.034648,0.013176,1.015528,0.700000,0.280000,-0.840000
90.384559,-0.039040,0.011712,0.991616,0.980000,0.560000,-0.840000
90.392647,-0.039040,0.014152,1.015528,0.980000,0.140000,-0.700000
90.400734,-0.038552,0.010248,1.005280,0.840000,0.700000,-0.840000
90.408822,-0.037576,0.016592,1.009184,1.120000,0.700000,-0.840000
90.416910,-0.049288,0.010248,1.002840,0.980000,0.700000,-0.840000
90.424997,-0.033184,0.017080,1.013088,0.980000,0.420000,-0.840000
90.433085,-0.034160,0.013176,1.016016,0.840000,0.560000,-0.980000
90.441172,-0.044896,0.011224,1.003328,0.700000,0.700000,-0.840000
90.449260,-0.038064,0.013176,1.007720,0.840000,0.420000,-0.840000
90.457347,-0.036600,0.014640,1.012600,0.560000,0.700000,-0.840000
90.465435,-0.041968,0.016592,1.001864,0.840000,0.420000,-0.840000
90.473523,-0.039528,0.019032,1.014064,0.840000,0.700000,-0.840000
90.481610,-0.036112,0.004880,1.004792,0.700000,0.560000,-0.840000
90.489698,-0.039040,0.018544,1.012112,0.980000,0.420000,-0.840000
90.497785,-0.033184,0.013664,1.007720,0.980000,0.840000,-0.840000
90.505873,-0.045384,0.013176,1.013576,0.840000,0.560000,-0.700000
90.513960,-0.037088,0.014640,0.996984,0.980000,0.420000,-0.980000
90.522048,-0.036600,0.012200,1.010648,0.980000,0.420000,-0.700000
90.530136,-0.040992,0.014152,1.009672,0.700000,0.700000,-0.700000
90.538223,-0.035624,0.012688,1.009184,0.840000,0.420000,-0.840000
90.546311,-0.040504,0.012200,1.011136,0.700000,0.700000,-0.840000
90.554398,-0.040016,0.010736,1.004304,0.840000,0.280000,-0.700000
90.562486,-0.031232,0.014640,1.016016,0.560000,0.420000,-0.980000
90.570574,-0.037576,0.014152,1.018456,0.840000,0.560000,-0.840000
90.578661,-0.046360,0.018056,1.001376,0.840000,0.560000,-0.840000
90.586749,-0.036600,0.009760,0.997960,0.560000,0.420000,-0.700000
90.594836,-0.040016,0.014152,1.011136,0.980000,0.700000,-0.840000
90.602924,-0.041480,0.020984,1.013576,1.120000,0.700000,-0.840000
90.611011,-0.038064,0.010736,1.002352,0.840000,0.420000,-0.840000
90.619099,-0.041480,0.009272,1.002352,0.840000,0.560000,-0.840000
90.627187,-0.040992,0.015128,1.015528,0.980000,0.700000,-0.840000
90.635274,-0.037576,0.015128,1.004792,0.980000,0.560000,-0.840000
90.643362,-0.043920,0.012200,1.010160,0.840000,0.560000,-0.840000
90.651449,-0.034160,0.011224,1.008696,0.840000,0.420000,-0.840000
90.659537,-0.039528,0.015128,1.008696,0.840000,0.700000,-0.840000
90.667624,-0.035136,0.013664,1.013576,0.700000,0.700000,-0.980000
90.675712,-0.040992,0.014152,1.013088,0.700000,0.700000,-0.980000
90.683800,-0.039528,0.008296,0.999424,0.980000,0.420000,-0.700000
90.691887,-0.034648,0.018544,1.009672,0.840000,0.560000,-0.840000
90.699975,-0.035624,0.007808,1.007232,0.980000,0.420000,-0.840000
90.708062,-0.044408,0.022936,1.014064,1.120000,0.700000,-0.700000
90.716150,-0.042944,0.008784,0.998936,0.700000,0.560000,-0.840000
90.724237,-0.034648,0.011224,1.011624,0.980000,0.280000,-0.980000
90.732325,-0.039528,0.019032,1.016016,0.980000,0.700000,-0.840000
90.740413,-0.040992,0.013664,1.003328,0.840000,0.560000,-0.840000
90.748500,-0.037088,0.014640,1.011136,0.840000,0.420000,-0.840000
90.756588,-0.039528,0.009272,1.002840,0.840000,0.560000,-0.840000
90.764675,-0.045872,0.020984,1.010160,0.980000,0.560000,-0.700000
90.772763,-0.032696,0.008296,1.008696,0.840000,0.840000,-1.120000
90.780850,-0.040016,0.016104,1.024312,0.840000,0.700000,-0.840000
90.788938,-0.038552,0.007320,0.992104,0.840000,0.560000,-0.840000
90.797026,-0.038552,0.017080,1.019920,0.980000,0.280000,-0.840000
90.805113,-0.039040,0.012688,1.002352,0.840000,0.840000,-0.840000
90.813201,-0.042944,0.014152,1.007232,0.980000,0.700000,-0.840000
90.821288,-0.033672,0.016592,1.015040,0.840000,0.700000,-0.840000
90.829376,-0.035136,0.007320,0.999424,0.840000,0.560000,-0.840000
90.837463,-0.041968,0.024888,1.016016,0.840000,0.420000,-0.700000
90.845551,-0.043920,0.006832,0.998936,0.700000,0.700000,-0.840000
90.853638,-0.046848,0.016104,1.005768,0.840000,0.840000,-0.840000
90.861726,-0.031720,0.008296,1.008696,0.840000,0.420000,-0.840000
90.869814,-0.039528,0.015616,1.016504,0.700000,0.560000,-0.840000
90.877901,-0.037576,0.014640,1.004792,0.840000,0.700000,-0.840000
90.885989,-0.041968,0.015128,1.012600,0.840000,0.700000,-0.840000
90.894076,-0.037088,0.011224,1.003328,0.840000,0.420000,-0.700000
90.902164,-0.037088,0.014640,1.023336,0.980000,0.700000,-0.980000
90.910251,-0.030256,0.017080,1.007720,0.840000,0.560000,-0.980000
90.918339,-0.038064,0.010248,1.004792,0.700000,0.280000,-0.700000
90.926427,-0.038064,0.019032,1.017968,0.840000,0.280000,-0.840000
90.934514,-0.040016,0.007808,1.007232,0.700000,0.700000,-0.980000
90.942602,-0.036112,0.018056,1.007232,0.840000,0.420000,-0.700000
90.950689,-0.040992,0.009272,1.004304,0.560000,0.420000,-0.700000
90.958777,-0.040992,0.014640,1.004304,0.980000,0.700000,-0.980000
90.966864,-0.041480,0.017568,1.009672,0.840000,0.420000,-0.700000
90.974952,-0.040992,0.009760,1.012112,0.840000,0.700000,-0.700000
90.983040,-0.046360,0.010736,1.000400,0.700000,0.700000,-0.980000
90.991127,-0.036600,0.012200,1.013576,0.840000,0.560000,-0.840000
90.999215,-0.038552,0.017568,1.004304,0.840000,0.700000,-0.840000
91.007302,-0.033672,0.013176,1.010160,0.840000,0.560000,-0.840000
91.015390,-0.037088,0.016104,1.016504,0.840000,0.560000,-0.840000
91.023477,-0.045384,0.012200,0.991128,0.560000,0.420000,-0.840000
91.031565,-0.030256,0.016104,1.027240,0.840000,0.280000,-0.840000
91.039653,-0.036600,0.009272,1.000888,0.840000,0.700000,-0.840000
91.047740,-0.040504,0.023424,1.014064,0.980000,0.420000,-0.840000
91.055828,-0.037088,0.014640,1.008208,0.980000,0.700000,-0.840000
91.063915,-0.043920,0.006832,1.005768,0.980000,0.560000,-0.840000
91.072003,-0.043920,0.015616,1.010648,0.840000,0.560000,-0.840000
91.080090,-0.034648,0.012688,1.009184,0.840000,0.700000,-0.700000
91.088178,-0.040504,0.010736,1.009184,0.980000,0.700000,-0.840000
91.096266,-0.040016,0.021472,1.020896,1.120000,0.840000,-0.840000
91.104353,-0.035136,0.009272,1.002352,0.700000,0.420000,-0.840000
91.112441,-0.039528,0.011224,1.005768,0.840000,0.420000,-0.840000
91.120528,-0.039528,0.015128,1.017968,0.840000,0.560000,-0.840000
91.128616,-0.036112,0.012688,0.995520,0.840000,0.420000,-0.700000
91.136703,-0.034648,0.014152,1.014552,0.840000,0.560000,-0.840000
91.144791,-0.040504,0.012688,1.003328,0.980000,0.700000,-0.840000
91.152879,-0.041480,0.017568,1.010160,0.840000,0.700000,-0.700000
91.160966,-0.036112,0.010736,1.014064,0.840000,0.280000,-0.840000
91.169054,-0.043920,0.014152,1.009184,0.980000,0.840000,-0.980000
91.177141,-0.037576,0.011712,1.001864,0.980000,0.280000,-0.840000
91.185229,-0.032208,0.014640,1.016016,0.840000,0.280000,-0.840000
91.193316,-0.044896,0.014640,1.003816,0.980000,0.700000,-0.980000
91.201404,-0.043920,0.010736,1.001864,0.840000,0.560000,-0.840000
91.209492,-0.040992,0.019032,1.013576,0.980000,0.560000,-0.700000
91.217579,-0.045384,0.010736,1.004792,0.700000,0.700000,-0.980000
91.225667,-0.035624,0.013176,1.014064,0.840000,0.700000,-0.840000
91.233754,-0.034160,0.011224,1.014552,0.840000,0.280000,-0.840000
91.241842,-0.040016,0.011712,1.002840,0.840000,0.700000,-0.840000
91.249929,-0.046848,0.017568,1.010648,0.840000,0.420000,-0.840000
91.258017,-0.036600,0.019032,1.006744,0.980000,0.700000,-0.840000
91.266105,-0.025864,0.011224,1.008208,0.700000,0.560000,-0.840000
91.274192,-0.036112,0.010736,1.014064,1.120000,0.280000,-0.840000
91.282280,-0.042456,0.017568,1.003816,0.980000,0.840000,-0.700000
91.290367,-0.033672,0.012688,1.012112,0.840000,0.280000,-0.840000
91.298455,-0.043920,0.012200,1.013576,0.980000,0.560000,-0.840000
91.306542,-0.039528,0.012200,1.004304,0.840000,0.560000,-0.840000
91.314630,-0.037576,0.014152,1.006256,0.560000,0.420000,-0.700000
91.322718,-0.039040,0.012200,1.011136,0.840000,0.700000,-0.840000
91.330805,-0.043920,0.014640,1.003328,0.840000,0.420000,-0.980000
91.338893,-0.038552,0.015616,1.016016,0.700000,0.700000,-0.840000
91.346980,-0.035624,0.012200,1.007720,0.700000,0.420000,-0.840000
91.355068,-0.036600,0.017080,1.020408,0.840000,0.840000,-0.840000
91.363155,-0.043432,0.014640,1.000888,0.840000,0.840000,-0.700000
91.371243,-0.029280,0.013176,1.008696,0.840000,0.280000,-0.980000
91.379331,-0.032208,0.009272,1.018456,0.980000,0.280000,-0.840000
91.387418,-0.050752,0.022936,1.003816,0.980000,0.840000,-0.700000
91.395506,-0.038552,0.009272,1.000400,0.560000,0.560000,-0.840000
91.403593,-0.041968,0.013176,1.014064,0.840000,0.420000,-0.840000
91.411681,-0.040504,0.012688,0.991616,0.980000,0.700000,-0.840000
91.419768,-0.039040,0.015128,1.019920,0.840000,0.420000,-0.840000
91.427856,-0.040992,0.007320,1.007232,0.980000,0.560000,-0.840000
91.435944,-0.046848,0.010248,1.007232,0.840000,0.560000,-0.840000
91.444031,-0.034648,0.019520,1.012112,0.840000,0.420000,-0.700000
91.452119,-0.035136,0.007808,1.006256,0.700000,0.560000,-0.840000
91.460206,-0.048312,0.025376,1.014064,0.980000,0.980000,-0.840000
91.468294,-0.036112,0.007320,0.997472,0.700000,0.420000,-0.840000
91.476381,-0.033184,0.013664,1.017480,0.840000,0.420000,-0.840000
91.484469,-0.042944,0.014640,1.008208,0.840000,0.840000,-0.840000
91.492557,-0.037576,0.018056,1.017968,0.840000,0.280000,-0.840000
91.500644,-0.032208,0.014640,1.007232,0.700000,0.420000,-0.840000
91.508732,-0.037576,0.010248,1.004304,0.980000,0.420000,-0.700000
91.516819,-0.039040,0.021960,1.017480,0.980000,0.420000,-0.840000
91.524907,-0.037576,0.010736,1.001864,0.840000,0.840000,-0.840000
91.532994,-0.035624,0.007808,1.012600,0.700000,0.280000,-0.700000
91.541082,-0.038552,0.009760,1.002840,0.980000,0.700000,-0.840000
91.549170,-0.039528,0.021472,1.020896,0.840000,0.560000,-0.840000
91.557257,-0.038552,0.010736,1.007720,0.840000,0.560000,-0.840000
91.565345,-0.044408,0.012688,1.005280,0.980000,0.840000,-0.840000
91.573432,-0.044408,0.016592,1.002352,0.840000,0.560000,-0.840000
91.581520,-0.035136,0.006832,1.006744,0.700000,0.560000,-0.840000
91.589607,-0.036600,0.023424,1.023824,0.980000,0.560000,-0.840000
91.597695,-0.040016,0.010248,0.997960,0.700000,0.560000,-0.840000
91.605783,-0.036600,0.015128,1.008208,0.700000,0.280000,-0.840000
91.613870,-0.036112,0.009272,1.010648,0.840000,0.700000,-0.840000
91.621958,-0.043432,0.024400,1.011136,0.840000,0.560000,-0.840000
91.630045,-0.040992,0.006344,0.997472,0.700000,0.700000,-0.980000
91.638133,-0.034648,0.010736,1.014552,1.120000,0.420000,-0.840000
91.646220,-0.041968,0.015616,1.004304,1.120000,0.280000,-0.700000
91.654308,-0.038552,0.017568,1.009184,0.840000,0.840000,-0.980000
91.662395,-0.040504,0.011712,1.011624,0.980000,0.560000,-0.700000
91.670483,-0.045384,0.012688,1.003328,0.840000,0.840000,-0.840000
91.678571,-0.034648,0.013176,1.008208,0.840000,0.280000,-0.840000
91.686658,-0.033672,0.011224,1.017480,0.840000,0.700000,-0.840000
91.694746,-0.037576,0.015616,1.003816,0.980000,0.560000,-0.840000
91.702833,-0.046360,0.013664,1.007232,0.700000,0.560000,-0.840000
91.710921,-0.036600,0.011712,1.013576,0.700000,0.560000,-0.840000
91.719008,-0.040504,0.014152,1.006256,0.700000,0.420000,-0.840000
91.727096,-0.036600,0.018056,1.015528,0.840000,0.700000,-0.840000
91.735184,-0.038552,0.012200,1.002840,0.840000,0.420000,-0.840000
91.743271,-0.034648,0.007808,1.005768,1.120000,0.560000,-0.840000
91.751359,-0.043432,0.020008,1.015040,0.980000,0.280000,-0.840000
91.759446,-0.044896,0.011224,0.998448,0.700000,0.980000,-0.840000
91.767534,-0.034648,0.012688,1.021872,0.980000,0.560000,-0.840000
91.775621,-0.041968,0.013664,0.996984,0.840000,0.700000,-0.840000
91.783709,-0.035136,0.019032,1.014064,0.980000,0.280000,-0.840000
91.791797,-0.036600,0.006832,1.013576,0.700000,0.840000,-0.980000
91.799884,-0.039528,0.018056,1.010160,0.700000,0.560000,-0.700000
91.807972,-0.041968,0.014640,1.011136,0.700000,0.420000,-0.840000
91.816059,-0.033672,0.007320,1.001376,0.560000,0.700000,-0.980000
91.824147,-0.039528,0.021472,1.010648,0.980000,0.420000,-0.840000
91.832234,-0.043432,0.016592,1.009184,0.840000,0.560000,-0.700000
91.840322,-0.036600,0.007320,1.007720,0.840000,0.420000,-0.840000
91.848410,-0.044896,0.015616,1.004792,0.980000,0.700000,-0.840000
91.856497,-0.040016,0.016104,1.014064,0.980000,0.420000,-0.840000
91.864585,-0.038552,0.009760,0.997960,0.700000,0.560000,-0.840000
91.872672,-0.040504,0.014640,1.013576,1.120000,0.560000,-0.840000
91.880760,-0.040504,0.013664,1.008208,0.840000,0.280000,-0.700000
91.888847,-0.040992,0.016592,1.009184,0.700000,0.700000,-0.840000
91.896935,-0.035136,0.006344,1.008208,0.700000,0.840000,-0.840000
91.905023,-0.039528,0.020008,1.016992,0.700000,0.420000,-0.840000
91.913110,-0.029768,0.012688,1.003328,0.840000,0.420000,-0.840000
91.921198,-0.036112,0.013176,1.021384,0.840000,0.560000,-0.840000
91.929285,-0.036600,0.013176,0.999424,0.840000,0.420000,-0.840000
91.937373,-0.039040,0.015128,1.016504,0.840000,0.280000,-0.700000
91.945460,-0.038552,0.010248,1.005768,0.840000,0.560000,-0.840000
91.953548,-0.038064,0.011224,0.998448,0.980000,0.420000,-0.840000
91.961636,-0.041480,0.025864,1.025288,1.120000,0.700000,-0.840000
91.969723,-0.041480,0.005856,0.991616,0.700000,0.700000,-0.840000
91.977811,-0.036600,0.018544,1.017968,0.980000,0.420000,-0.840000
91.985898,-0.047336,0.003904,0.999424,0.840000,0.840000,-0.840000
91.993986,-0.039528,0.016104,1.012112,0.840000,0.560000,-0.840000
92.002073,-0.037088,0.010736,1.008208,0.840000,0.700000,-0.980000
92.010161,-0.040016,0.018544,1.012600,0.840000,0.280000,-0.700000
92.018249,-0.040992,0.016592,1.007232,0.840000,0.560000,-0.840000
92.026336,-0.034648,0.010248,1.002840,0.700000,0.840000,-0.840000
92.034424,-0.037576,0.016592,1.017480,0.840000,0.700000,-0.840000
92.042511,-0.037088,0.016104,1.006744,0.980000,0.700000,-0.980000
92.050599,-0.035624,0.006832,1.016992,0.840000,0.280000,-0.840000
92.058686,-0.033184,0.012200,1.001864,0.980000,0.420000,-0.840000
92.066774,-0.045384,0.024400,1.019432,0.980000,0.420000,-0.840000
92.074862,-0.038552,0.009272,0.994544,0.840000,0.700000,-0.840000
92.082949,-0.040992,0.014640,1.011624,0.840000,0.700000,-0.840000
92.091037,-0.038064,0.018056,1.015528,0.980000,0.420000,-0.840000
92.099124,-0.047336,0.008784,1.001864,0.560000,0.700000,-0.840000
92.107212,-0.038552,0.016592,1.015528,0.980000,0.700000,-0.980000
92.115299,-0.040016,0.007808,1.008208,0.560000,0.560000,-0.840000
92.123387,-0.039528,0.018056,1.005280,0.840000,0.420000,-0.840000
92.131474,-0.037576,0.004392,1.005768,0.700000,0.840000,-0.840000
92.139562,-0.039040,0.020008,1.020896,0.840000,0.560000,-0.840000
92.147650,-0.037088,0.012200,0.989176,0.840000,0.700000,-0.840000
92.155737,-0.038064,0.016104,1.028704,0.980000,0.420000,-0.840000
92.163825,-0.037576,0.007808,1.000888,0.840000,0.840000,-0.840000
92.171912,-0.035624,0.021472,1.013088,0.980000,0.420000,-0.840000
92.180000,-0.036112,0.014640,1.013576,0.840000,0.280000,-0.700000
92.188087,-0.042944,0.011224,1.001864,0.840000,0.420000,-0.840000
92.196175,-0.032696,0.014640,1.013576,0.840000,0.140000,-0.840000
92.204263,-0.036600,0.009272,1.005280,0.840000,0.700000,-0.700000
92.212350,-0.044896,0.017080,1.011624,0.840000,0.700000,-0.980000
92.220438,-0.040016,0.007320,1.007720,0.560000,0.420000,-0.840000
92.228525,-0.036600,0.020496,1.007720,0.840000,0.560000,-0.700000
92.236613,-0.043432,0.011224,1.009184,0.840000,0.840000,-0.840000
92.244700,-0.044408,0.015616,1.008208,0.840000,0.560000,-0.840000
92.252788,-0.038552,0.013664,1.007720,0.700000,0.420000,-0.840000
92.260876,-0.036600,0.008296,1.003816,0.840000,0.840000,-0.840000
92.268963,-0.044896,0.019520,1.008696,0.840000,0.560000,-0.840000
92.277051,-0.034648,0.014640,1.005768,0.700000,0.700000,-0.840000
92.285138,-0.035624,0.013176,1.011136,0.840000,0.420000,-0.700000
92.293226,-0.045872,0.012200,1.005280,0.840000,0.560000,-0.700000
92.301313,-0.032208,0.015616,1.012112,0.840000,0.280000,-0.840000
92.309401,-0.037088,0.013664,1.011624,0.840000,0.560000,-0.700000
92.317489,-0.043920,0.008296,1.007232,0.980000,0.700000,-0.840000
92.325576,-0.035624,0.014152,1.005768,0.700000,0.420000,-0.840000
92.333664,-0.034648,0.015128,1.016992,0.840000,0.560000,-0.700000
92.341751,-0.037576,0.010248,1.005768,0.980000,0.700000,-0.840000
92.349839,-0.043920,0.018056,1.005768,0.840000,0.420000,-0.840000
92.357926,-0.033184,0.014152,1.014064,0.700000,0.700000,-0.840000
92.366014,-0.041480,0.011712,1.009672,0.840000,0.560000,-0.840000
92.374102,-0.039528,0.012688,1.011136,0.840000,0.560000,-0.840000
92.382189,-0.043432,0.015128,0.996008,0.560000,0.700000,-0.840000
92.390277,-0.032208,0.013176,1.020896,0.980000,0.280000,-0.700000
92.398364,-0.043432,0.012688,1.007720,0.700000,0.700000,-0.840000
92.406452,-0.037576,0.016104,1.001376,0.840000,0.560000,-0.840000
92.414539,-0.031232,0.013176,1.018944,0.840000,0.420000,-0.840000
92.422627,-0.035136,0.015616,1.005768,1.120000,0.420000,-0.700000
92.430715,-0.042944,0.015128,1.004304,0.980000,0.560000,-0.840000
92.438802,-0.041480,0.011224,1.010648,0.840000,0.560000,-0.840000
92.446890,-0.041968,0.010248,1.002352,0.840000,0.560000,-0.840000
92.454977,-0.041968,0.017080,1.012112,0.700000,0.560000,-0.840000
92.463065,-0.041968,0.012200,0.999912,0.700000,0.560000,-0.840000
92.471152,-0.032696,0.010248,1.009672,0.980000,0.420000,-0.840000
92.479240,-0.048312,0.018056,1.014064,0.840000,0.700000,-0.840000
92.487328,-0.038064,0.010736,0.999424,0.700000,0.560000,-0.840000
92.495415,-0.038552,0.015128,1.017480,0.840000,0.700000,-0.840000
92.503503,-0.036112,0.012688,1.006744,1.120000,0.560000,-0.840000
92.511590,-0.044408,0.022448,1.012600,0.840000,0.700000,-0.840000
92.519678,-0.030744,0.005368,1.000400,0.980000,0.420000,-0.840000
92.527765,-0.043432,0.016592,1.017968,0.840000,0.420000,-0.840000
92.535853,-0.039040,0.019520,1.006256,0.840000,0.700000,-0.980000
92.543941,-0.042456,0.007808,1.008208,0.700000,0.560000,-0.840000
92.552028,-0.034160,0.014152,1.013576,0.980000,0.560000,-0.840000
92.560116,-0.039040,0.011712,0.994544,0.700000,0.560000,-0.840000
92.568203,-0.038552,0.015128,1.020896,0.700000,0.420000,-0.700000
92.576291,-0.037088,0.011224,1.004304,0.840000,0.560000,-0.840000
92.584378,-0.042456,0.020008,1.014064,0.840000,0.560000,-0.840000
92.592466,-0.036600,0.004880,1.004304,0.560000,0.420000,-0.840000
92.600554,-0.040504,0.013176,1.009184,1.120000,0.840000,-0.840000
92.608641,-0.041968,0.018056,1.004792,0.700000,0.560000,-0.840000
92.616729,-0.035136,0.013176,1.017480,0.700000,0.280000,-0.700000
92.624816,-0.036112,0.014640,1.008208,0.840000,0.700000,-0.840000
92.632904,-0.035136,0.014640,1.006256,0.840000,0.280000,-0.840000
92.640991,-0.040016,0.018544,1.012600,0.840000,0.560000,-0.840000
92.649079,-0.038552,0.009760,1.001864,0.840000,0.700000,-0.840000
92.657166,-0.042456,0.016104,1.011624,0.840000,0.420000,-0.840000
92.665254,-0.047336,0.012688,1.003328,0.840000,0.560000,-0.840000
92.673342,-0.029768,0.010736,1.019432,0.840000,0.280000,-0.700000
92.681429,-0.042944,0.015128,1.000888,0.840000,0.980000,-0.840000
92.689517,-0.044408,0.014640,1.011136,0.980000,0.420000,-0.840000
92.697604,-0.037576,0.011712,1.008696,0.840000,0.560000,-0.840000
92.705692,-0.032696,0.009760,1.005280,0.840000,0.700000,-0.840000
92.713779,-0.041968,0.019520,1.012112,0.840000,0.420000,-0.840000
92.721867,-0.043920,0.003904,1.001376,0.700000,0.700000,-0.840000
92.729955,-0.031232,0.020984,1.025776,0.980000,0.420000,-0.840000
92.738042,-0.035624,0.011712,0.991616,0.840000,0.560000,-0.840000
92.746130,-0.044896,0.017080,1.016504,0.980000,0.420000,-0.700000
92.754217,-0.039040,0.010736,0.998448,0.840000,0.840000,-0.840000
92.762305,-0.042944,0.014640,1.014064,0.700000,0.560000,-0.840000
92.770392,-0.039040,0.012200,1.008208,0.840000,0.420000,-0.840000
92.778480,-0.040016,0.013664,1.009184,0.840000,0.840000,-0.840000
92.786568,-0.029280,0.013664,1.015528,0.840000,0.280000,-0.840000
92.794655,-0.048800,0.016104,1.006256,0.840000,0.700000,-0.840000
92.802743,-0.036112,0.013176,1.005280,0.980000,0.560000,-0.840000
92.810830,-0.034160,0.011224,1.015528,0.840000,0.560000,-0.840000
92.818918,-0.030256,0.018544,1.016992,0.980000,0.420000,-0.840000
92.827005,-0.046848,0.012688,1.000888,0.700000,0.700000,-0.700000
92.835093,-0.034160,0.012688,1.006256,0.840000,0.420000,-0.840000
92.843180,-0.034160,0.012688,1.009184,0.700000,0.420000,-0.840000
92.851268,-0.045872,0.017568,1.013576,0.840000,0.700000,-0.840000
92.859356,-0.037576,0.007320,1.002840,0.560000,0.560000,-0.840000
92.867443,-0.044896,0.014152,1.003816,0.700000,0.700000,-0.700000
92.875531,-0.037576,0.015128,1.014552,0.980000,0.000000,-0.700000
92.883618,-0.038552,0.014640,1.007232,0.840000,0.560000,-0.840000
92.891706,-0.047824,0.014152,1.000888,0.840000,0.840000,-0.840000
92.899793,-0.041968,0.010736,1.003816,0.700000,0.560000,-0.840000
92.907881,-0.032208,0.008296,1.015040,0.980000,0.560000,-0.840000
92.915969,-0.038064,0.016104,1.007720,0.980000,0.420000,-0.840000
92.924056,-0.040992,0.017080,1.013088,1.120000,0.700000,-0.980000
92.932144,-0.033184,0.013664,1.013088,0.980000,0.420000,-0.840000
92.940231,-0.036600,0.015128,1.012600,0.840000,0.420000,-0.840000
92.948319,-0.036600,0.017080,1.007232,0.700000,0.700000,-0.980000
92.956406,-0.036600,0.014152,1.005280,0.840000,0.560000,-0.700000
92.964494,-0.040016,0.010736,1.015528,0.700000,0.420000,-0.840000
92.972582,-0.038064,0.013664,1.001376,0.840000,0.420000,-0.840000
92.980669,-0.037576,0.013664,1.017968,0.700000,0.280000,-0.700000
92.988757,-0.041480,0.011712,1.002352,0.840000,0.840000,-0.840000
92.996844,-0.041480,0.014640,1.013088,0.840000,0.420000,-0.840000
93.004932,-0.036600,0.014640,1.008208,0.840000,0.560000,-0.840000
93.013019,-0.044408,0.013176,1.004792,0.840000,0.560000,-0.700000
93.021107,-0.036112,0.007808,1.005280,0.840000,0.420000,-0.980000
93.029194,-0.041968,0.019032,1.011624,0.840000,0.700000,-0.840000
93.037282,-0.037576,0.011224,1.008696,0.980000,0.560000,-0.840000
93.045370,-0.036112,0.009272,1.008208,0.700000,0.420000,-0.840000
93.053457,-0.034160,0.020008,1.011624,0.840000,0.840000,-0.980000
93.061545,-0.034648,0.011224,1.007232,0.700000,0.560000,-0.700000
93.069632,-0.034648,0.016592,1.017480,0.840000,0.000000,-0.700000
93.077720,-0.046848,0.013664,1.003328,0.840000,0.840000,-0.980000
93.085807,-0.039040,0.015128,1.011136,0.980000,0.420000,-0.700000
93.093895,-0.040016,0.006832,1.004792,0.980000,0.700000,-0.840000
93.101983,-0.040504,0.018056,1.008696,0.980000,0.420000,-0.840000
93.110070,-0.044408,0.010248,1.009184,0.840000,0.700000,-0.840000
93.118158,-0.042944,0.019032,1.006744,0.980000,0.700000,-0.840000
93.126245,-0.044408,0.005856,1.000888,0.700000,0.840000,-0.840000
93.134333,-0.041480,0.015616,1.003816,0.840000,0.560000,-0.840000
93.142420,-0.030744,0.014152,1.022360,0.840000,0.420000,-0.840000
93.150508,-0.038552,0.016592,1.012600,0.980000,0.840000,-0.840000
93.158596,-0.046360,0.011224,0.996008,0.700000,0.700000,-0.840000
93.166683,-0.033184,0.011224,1.021384,0.840000,0.280000,-0.840000
93.174771,-0.034648,0.013176,1.002352,0.700000,0.560000,-0.840000
93.182858,-0.036600,0.016592,1.015040,0.700000,0.560000,-0.840000
93.190946,-0.032696,0.016104,1.009184,0.980000,0.420000,-0.700000
93.199033,-0.039040,0.012688,1.002352,0.840000,0.280000,-0.700000
93.207121,-0.039528,0.014640,1.013088,1.260000,0.420000,-0.840000
93.215209,-0.039528,0.019520,1.013576,0.840000,0.560000,-0.840000
93.223296,-0.033184,0.005368,1.006744,0.700000,0.700000,-0.840000
93.231384,-0.036600,0.015616,1.013576,0.980000,0.420000,-0.840000
93.239471,-0.041480,0.010248,1.001864,0.840000,0.560000,-0.840000
93.247559,-0.046848,0.022936,1.012600,0.840000,0.700000,-0.840000
93.255646,-0.039528,0.004880,1.008208,0.700000,0.560000,-0.840000
93.263734,-0.044896,0.021472,1.012112,0.700000,0.700000,-0.840000
93.271821,-0.042456,0.009272,0.996008,0.560000,0.560000,-0.700000
93.279909,-0.034648,0.010248,1.017480,0.700000,0.560000,-0.840000
93.287997,-0.036600,0.014152,0.999424,0.980000,0.700000,-0.840000
93.296084,-0.040504,0.016104,1.017480,0.980000,0.420000,-0.700000
93.304172,-0.040504,0.014640,1.001376,0.840000,0.560000,-0.840000
93.312259,-0.037576,0.013176,1.007720,0.980000,0.700000,-0.840000
93.320347,-0.039040,0.015128,1.012600,0.840000,0.560000,-0.840000
93.328434,-0.034160,0.010248,0.997960,0.840000,0.420000,-0.700000
93.336522,-0.039528,0.019032,1.027728,1.120000,0.560000,-0.980000
93.344610,-0.039040,0.005368,0.990152,0.700000,0.560000,-0.840000
93.352697,-0.043432,0.016592,1.016016,0.840000,0.560000,-0.700000
93.360785,-0.040016,0.009272,1.001376,0.840000,0.560000,-0.840000
93.368872,-0.035624,0.015128,1.015528,0.700000,0.420000,-0.840000
93.376960,-0.037088,0.017080,1.009672,0.840000,0.700000,-0.700000
93.385047,-0.041480,0.011224,1.014064,0.840000,0.840000,-0.840000
93.393135,-0.040016,0.016592,1.005280,0.700000,0.420000,-0.840000
93.401223,-0.036600,0.011712,1.010648,0.840000,0.840000,-0.840000
93.409310,-0.037576,0.016592,1.016504,0.700000,0.280000,-0.700000
93.417398,-0.032696,0.013664,1.005280,0.840000,0.420000,-0.980000
93.425485,-0.035136,0.016592,1.014552,1.120000,0.700000,-0.700000
93.433573,-0.041480,0.013664,1.003816,0.840000,0.420000,-0.840000
93.441660,-0.034160,0.009272,1.005768,0.980000,0.420000,-0.840000
93.449748,-0.043432,0.014152,1.009672,0.700000,0.560000,-0.840000
93.457835,-0.038552,0.012688,1.002352,0.980000,0.560000,-0.840000
93.465923,-0.039040,0.017080,1.014064,0.980000,0.280000,-0.840000
93.474011,-0.042944,0.004392,1.003816,0.560000,0.700000,-0.840000
93.482098,-0.045384,0.019032,1.013576,0.840000,0.840000,-0.840000
93.490186,-0.035624,0.009272,1.001376,0.840000,0.700000,-0.980000
93.498273,-0.048800,0.015616,1.007232,0.700000,0.560000,-0.700000
93.506361,-0.035624,0.015128,1.009184,0.980000,0.560000,-0.840000
93.514448,-0.038064,0.011712,1.010648,0.700000,0.560000,-0.840000
93.522536,-0.047336,0.016104,1.004792,0.980000,0.560000,-0.840000
93.530624,-0.038064,0.018056,1.013576,0.980000,0.700000,-0.840000
93.538711,-0.030256,0.009760,1.008208,0.840000,0.420000,-0.700000
93.546799,-0.042456,0.015616,1.005280,0.980000,0.560000,-0.840000
93.554886,-0.034160,0.015128,1.022360,1.120000,0.420000,-0.980000
93.562974,-0.035624,0.015128,1.006744,0.700000,0.560000,-0.840000
93.571061,-0.037576,0.013664,1.009672,0.980000,0.280000,-0.700000
93.579149,-0.043920,0.006832,1.009184,0.560000,0.700000,-0.840000
93.587237,-0.033672,0.017568,1.009184,0.840000,0.700000,-0.840000
93.595324,-0.038064,0.012200,1.004304,0.840000,0.700000,-0.840000
93.603412,-0.039528,0.017568,1.021384,0.840000,0.280000,-0.840000
93.611499,-0.040016,0.011224,0.998936,0.700000,0.840000,-0.700000
93.619587,-0.038552,0.014640,1.014064,0.840000,0.420000,-0.840000
93.627674,-0.039040,0.009272,1.006744,0.700000,0.420000,-0.840000
93.635762,-0.039528,0.012688,1.003816,0.840000,0.700000,-0.700000
93.643849,-0.035136,0.016592,1.015528,0.840000,0.280000,-0.840000
93.651937,-0.045872,0.017080,1.001864,1.120000,0.840000,-0.840000
93.660025,-0.036112,0.013664,1.011136,0.980000,0.280000,-0.700000
93.668112,-0.040016,0.010736,1.007232,0.560000,0.560000,-0.700000
93.676200,-0.035136,0.015128,1.001376,0.840000,0.420000,-0.840000
93.684287,-0.038552,0.017080,1.021384,0.980000,0.280000,-0.840000
93.692375,-0.045872,0.012688,0.994544,0.840000,0.700000,-0.840000
93.700462,-0.035136,0.016592,1.018456,0.840000,0.700000,-0.840000
93.708550,-0.040504,0.006832,1.010160,0.700000,0.700000,-0.840000
93.716638,-0.041480,0.013664,1.001376,0.700000,0.420000,-0.700000
93.724725,-0.040992,0.015616,1.015528,0.840000,0.840000,-0.840000
93.732813,-0.041480,0.011224,1.000400,0.840000,0.700000,-0.840000
93.740900,-0.036600,0.017568,1.011136,1.120000,0.560000,-0.840000
93.748988,-0.040016,0.013176,1.006744,0.700000,0.840000,-0.840000
93.757075,-0.037576,0.004392,1.008696,0.840000,0.000000,-0.840000
93.765163,-0.036600,0.024888,1.021384,0.980000,0.560000,-0.840000
93.773250,-0.038552,0.011712,0.996496,0.700000,0.840000,-0.840000
93.781338,-0.042456,0.016104,1.016504,0.980000,0.280000,-0.840000
93.789426,-0.036600,0.010736,0.999424,0.840000,0.560000,-0.840000
93.797513,-0.037088,0.017568,1.017480,0.840000,0.420000,-0.700000
93.805601,-0.038552,0.011224,1.000888,0.840000,0.700000,-0.980000
93.813688,-0.035624,0.004392,1.009184,0.840000,0.280000,-0.840000
93.821776,-0.041480,0.023912,1.019920,0.840000,0.420000,-0.700000
93.829863,-0.031232,0.009760,1.009672,0.840000,0.420000,-0.980000
93.837951,-0.040016,0.017080,1.013088,0.980000,0.560000,-0.840000
93.846039,-0.042456,0.013664,0.998936,0.980000,0.700000,-0.700000
93.854126,-0.040992,0.015128,1.006744,0.840000,0.560000,-0.840000
93.862214,-0.032208,0.009760,1.011624,0.840000,0.560000,-0.840000
93.870301,-0.045384,0.021472,1.018944,1.120000,0.840000,-0.840000
93.878389,-0.040504,0.009272,1.001376,0.560000,0.560000,-0.840000
93.886476,-0.036600,0.007808,1.010160,0.700000,0.280000,-0.840000
93.894564,-0.043432,0.020008,1.001864,0.980000,0.560000,-0.700000
93.902652,-0.040992,0.016104,1.006256,0.840000,0.840000,-0.840000
93.910739,-0.041968,0.012688,1.001376,0.980000,0.700000,-0.840000
93.918827,-0.041968,0.007320,1.014552,0.700000,0.560000,-0.840000
93.926914,-0.037088,0.014152,1.008696,0.840000,0.560000,-0.840000
93.935002,-0.033672,0.011712,1.014552,0.980000,0.560000,-0.980000
93.943089,-0.039040,0.021472,1.008208,0.980000,0.420000,-0.700000
93.951177,-0.042456,0.008784,0.999424,0.700000,0.980000,-0.840000
93.959264,-0.028792,0.014640,1.020896,1.120000,0.560000,-0.840000
93.967352,-0.039528,0.010248,1.003816,0.840000,0.420000,-0.840000
93.975440,-0.040504,0.021472,1.013088,0.980000,0.420000,-0.840000
93.983527,-0.037088,0.009760,1.010648,0.840000,0.420000,-0.840000
93.991615,-0.042944,0.014640,1.004792,0.700000,0.840000,-0.840000
93.999702,-0.043920,0.019032,1.006256,0.840000,0.560000,-0.700000
94.007790,-0.033672,0.007808,1.013576,0.700000,0.560000,-0.700000
94.015877,-0.035624,0.013176,1.007232,0.700000,0.560000,-0.840000
94.023965,-0.039040,0.009272,1.005768,0.840000,0.420000,-0.700000
94.032053,-0.045384,0.020008,1.020408,0.980000,0.700000,-0.840000
94.040140,-0.034648,0.008296,0.996008,0.840000,0.560000,-0.840000
94.048228,-0.040992,0.015128,1.018456,0.980000,0.560000,-0.840000
94.056315,-0.039528,0.012688,0.996496,0.980000,0.560000,-0.700000
94.064403,-0.033672,0.014640,1.016992,0.840000,0.420000,-0.840000
94.072490,-0.037576,0.013176,1.005768,0.700000,0.700000,-0.840000
94.080578,-0.044408,0.015128,1.002352,0.560000,0.840000,-0.840000
94.088665,-0.030256,0.015128,1.018944,0.840000,0.280000,-0.840000
94.096753,-0.037576,0.003416,1.006256,0.700000,0.420000,-0.840000
94.104841,-0.038552,0.023424,1.011624,1.120000,0.420000,-0.840000
94.112928,-0.043432,0.011224,1.009184,0.700000,0.560000,-0.700000
94.121016,-0.045384,0.013664,0.994056,0.700000,0.560000,-0.700000
94.129103,-0.040992,0.016104,1.016992,0.840000,0.420000,-0.840000
94.137191,-0.038552,0.009760,1.007232,0.840000,0.980000,-0.840000
94.145278,-0.040016,0.014152,1.009672,0.840000,0.560000,-0.840000
94.153366,-0.042944,0.008784,1.002352,0.840000,0.700000,-0.840000
94.161454,-0.042456,0.020008,1.018944,0.700000,0.280000,-0.700000
94.169541,-0.038064,0.009760,0.996008,0.700000,1.120000,-0.980000
94.177629,-0.040016,0.017080,1.016016,0.840000,0.280000,-0.840000
94.185716,-0.032208,0.016592,1.004304,0.700000,0.700000,-0.700000
94.193804,-0.034160,0.012688,1.021384,0.840000,0.420000,-0.840000
94.201891,-0.038552,0.008784,1.004792,0.980000,0.420000,-0.980000
94.209979,-0.039528,0.018056,1.014552,0.840000,0.420000,-0.700000
94.218067,-0.035136,0.012200,0.997960,0.840000,0.420000,-0.700000
94.226154,-0.037576,0.011224,1.014552,1.120000,0.420000,-0.840000
94.234242,-0.040016,0.020496,1.011624,0.980000,0.700000,-0.840000
94.242329,-0.040992,0.011712,1.006256,0.840000,0.700000,-0.700000
94.250417,-0.038552,0.009760,1.011624,0.700000,0.560000,-0.980000
94.258504,-0.046848,0.011224,1.003328,0.700000,0.560000,-0.840000
94.266592,-0.035136,0.018544,1.023336,0.700000,0.560000,-0.840000
94.274679,-0.040992,0.010736,0.997960,0.560000,0.980000,-0.980000
94.282767,-0.034648,0.017080,1.017480,0.700000,0.420000,-0.700000
94.290855,-0.039040,0.009760,1.001376,0.560000,0.560000,-0.840000
94.298942,-0.033672,0.019032,1.014552,0.840000,0.420000,-0.840000
94.307030,-0.040504,0.010736,1.006256,0.980000,0.420000,-0.840000
94.315117,-0.043920,0.020496,1.007720,0.980000,0.700000,-0.700000
94.323205,-0.030256,0.008296,1.014552,0.980000,0.420000,-0.840000
94.331292,-0.041480,0.012688,1.004304,0.980000,0.560000,-0.840000
94.339380,-0.044408,0.013664,1.010160,0.980000,0.420000,-0.840000
94.347468,-0.039528,0.013664,1.004304,0.840000,0.560000,-0.840000
94.355555,-0.046848,0.009760,1.003816,0.980000,0.980000,-0.840000
94.363643,-0.038552,0.014152,1.008696,0.840000,0.560000,-0.840000
94.371730,-0.034648,0.015616,1.012112,0.980000,0.280000,-0.700000
94.379818,-0.042944,0.012688,1.008696,0.700000,0.560000,-0.980000
94.387905,-0.040992,0.016104,1.012600,0.700000,0.700000,-0.840000
94.395993,-0.038552,0.010248,1.000888,0.560000,0.560000,-0.840000
94.404080,-0.040016,0.013664,1.010160,0.560000,0.560000,-0.840000
94.412168,-0.033184,0.015616,1.013088,0.980000,0.700000,-0.980000
94.420256,-0.031720,0.014152,1.003328,0.980000,0.420000,-0.700000
94.428343,-0.035136,0.020008,1.019920,0.980000,0.280000,-0.840000
94.436431,-0.040504,0.007808,1.004792,0.980000,0.840000,-0.980000
94.444518,-0.037576,0.018056,1.010648,0.980000,0.280000,-0.700000
94.452606,-0.032208,0.010248,1.013088,0.980000,0.560000,-0.840000
94.460693,-0.042944,0.013176,1.006744,0.980000,0.420000,-0.840000
94.468781,-0.038552,0.009272,1.003328,0.980000,0.560000,-0.840000
94.476869,-0.040504,0.017080,1.012600,0.840000,0.420000,-0.840000
94.484956,-0.044896,0.007320,1.005280,0.560000,0.840000,-0.840000
94.493044,-0.045872,0.020496,1.015040,0.560000,0.980000,-0.840000
94.501131,-0.036112,0.007320,0.997472,0.700000,0.420000,-0.840000
94.509219,-0.038552,0.013664,1.014064,0.840000,0.420000,-0.840000
94.517306,-0.043432,0.014152,1.007720,0.980000,0.700000,-0.980000
94.525394,-0.039040,0.013176,1.000400,0.840000,0.420000,-0.840000
94.533481,-0.040504,0.013664,1.011136,0.700000,0.700000,-0.840000
94.541569,-0.037088,0.013176,1.017480,1.120000,0.560000,-0.840000
94.549657,-0.026840,0.020984,1.011624,0.980000,0.280000,-0.840000
94.557744,-0.040016,0.013664,1.003816,1.120000,0.420000,-0.840000
94.565832,-0.041480,0.008296,1.002352,0.980000,0.560000,-0.700000
94.573919,-0.040504,0.021960,1.013088,0.980000,0.420000,-0.840000
94.582007,-0.036112,0.013664,1.004304,0.700000,0.700000,-0.840000
94.590094,-0.047824,0.006832,1.006744,0.840000,0.700000,-0.840000
94.598182,-0.041968,0.010736,1.006744,0.560000,0.700000,-0.980000
94.606270,-0.035624,0.016592,1.022848,0.840000,0.420000,-0.700000
94.614357,-0.040504,0.007320,1.002840,0.700000,0.560000,-0.840000
94.622445,-0.048312,0.023912,1.011136,0.840000,0.840000,-0.840000
94.630532,-0.029768,0.013664,1.008696,0.840000,0.560000,-0.840000
94.638620,-0.040504,0.008296,1.003328,0.840000,0.560000,-0.840000
94.646707,-0.040992,0.012200,1.006744,1.120000,0.560000,-0.840000
