Time [s],lsm6dsv16x_acc_x [g],lsm6dsv16x_acc_y [g],lsm6dsv16x_acc_z [g],lsm6dsv16x_gyro_x [dps],lsm6dsv16x_gyro_y [dps],lsm6dsv16x_gyro_z [dps]
4.874559,0.003416,-0.015128,0.870104,0.560000,-3.500000,0.140000
4.882646,0.100528,0.040992,1.049688,2.800000,-2.100000,-0.700000
4.890733,0.049776,0.000488,1.093608,-0.140000,-3.220000,-0.840000
4.898821,0.048312,0.015128,1.035048,-0.980000,-4.340000,-0.840000
4.906908,0.011712,-0.008784,0.933544,2.100000,-1.960000,-0.560000
4.914996,0.108336,-0.018544,0.986248,1.400000,-2.520000,-0.560000
4.923083,0.151768,0.010736,1.138016,0.560000,-5.040000,-0.560000
4.931170,-0.007808,-0.010248,0.997960,-0.700000,-1.960000,-1.540000
4.939258,0.020496,-0.029768,0.810568,1.260000,-2.240000,-0.560000
4.947345,0.147864,0.032208,1.102880,2.240000,-4.900000,-0.420000
4.955433,0.029768,0.007808,1.065304,0.420000,-4.200000,-0.560000
4.963520,0.010736,0.027816,0.980880,-1.680000,-1.680000,-1.260000
4.971607,0.074664,-0.002440,0.978440,3.220000,-1.400000,-0.280000
4.979695,0.108336,-0.040016,1.015040,1.260000,-3.780000,-0.700000
4.987782,0.024888,0.035136,1.069208,-0.700000,-4.760000,-0.980000
4.995869,0.045384,-0.000488,0.967704,0.700000,-0.980000,-0.560000
5.003957,0.110776,-0.026840,0.958432,0.840000,-0.980000,-1.260000
5.012044,0.089304,-0.002440,1.057984,1.400000,-5.040000,-0.280000
5.020132,0.036112,0.008784,0.971608,1.120000,-2.800000,-0.560000
5.028219,0.051240,0.026352,0.949648,-0.140000,0.140000,-1.400000
5.036306,0.105408,-0.000976,1.088728,1.540000,-1.820000,-0.840000
5.044394,0.025376,-0.021960,1.019920,-0.280000,-2.660000,-0.560000
5.052481,0.050752,0.012200,0.940376,1.960000,-5.040000,-0.140000
5.060568,0.106872,0.040992,1.108248,0.840000,-1.820000,-1.260000
5.068656,0.088816,-0.041968,1.014552,-0.140000,-1.820000,-1.120000
5.076743,0.060512,0.000488,0.986736,0.980000,-3.920000,-0.420000
5.084831,0.068320,-0.009272,0.913048,1.820000,-1.820000,-0.700000
5.092918,0.105408,0.004392,1.046272,0.700000,-1.680000,-1.400000
5.101005,0.078080,0.025376,1.099464,0.140000,-4.060000,-0.420000
5.109093,0.010248,-0.024888,0.907192,0.140000,-1.820000,-0.700000
5.117180,0.072224,0.008784,0.987712,2.520000,-3.080000,-0.420000
5.125268,0.119072,0.048312,1.137528,2.100000,-2.800000,-0.840000
5.133355,0.030256,-0.034648,0.970632,-1.960000,-1.120000,-1.260000
5.141442,0.078080,-0.014152,0.929152,0.840000,-1.820000,-0.700000
5.149530,0.103944,0.001464,1.016992,3.220000,-0.840000,-0.700000
5.157617,0.109800,-0.015128,1.030656,0.420000,-1.680000,-0.980000
5.165704,0.029768,0.044896,1.058472,-0.700000,-2.380000,-0.980000
5.173792,0.022448,-0.017080,0.880352,0.700000,-0.140000,-0.700000
5.181879,0.117120,0.006344,1.067256,2.800000,-3.500000,-0.140000
5.189967,0.091744,0.034160,1.125328,0.840000,-4.060000,-0.700000
5.198054,0.016104,-0.035624,0.922808,-1.400000,-0.560000,-1.400000
5.206141,0.119560,-0.015128,0.944280,2.380000,-2.240000,-0.840000
5.214229,0.115656,-0.021472,1.021872,2.100000,-2.940000,-0.420000
5.222316,0.055144,0.022936,1.021872,-1.260000,-2.100000,-0.840000
5.230403,0.011224,0.030256,1.019920,0.980000,-1.400000,-0.700000
5.238491,0.071736,-0.010248,0.964288,0.980000,-0.700000,-0.980000
5.246578,0.126392,-0.001952,1.070672,1.820000,-5.180000,-0.140000
5.254666,0.052704,0.023424,1.060912,0.420000,-2.800000,-0.980000
5.262753,0.058072,-0.008296,0.899872,-0.140000,0.000000,-0.840000
5.270840,0.160064,-0.043432,1.032608,0.840000,-3.220000,-1.120000
5.278928,0.069296,-0.016592,0.998448,1.680000,-3.640000,-0.560000
5.287015,0.040504,0.042456,0.974536,0.280000,-1.400000,-0.700000
5.295102,0.037576,0.044408,1.054080,0.700000,-0.980000,-0.700000
5.303190,0.126392,-0.049288,1.023824,0.700000,-2.240000,-0.700000
5.311277,0.107360,0.003416,1.009184,0.980000,-5.040000,-0.980000
5.319365,0.032208,0.033672,0.987224,1.680000,-1.400000,-0.560000
5.327452,0.130784,-0.030744,0.981856,-0.420000,-0.420000,-1.400000
5.335539,0.076128,0.005368,1.069696,0.560000,-4.060000,-0.840000
5.343627,0.020008,-0.015128,0.963312,2.100000,-4.480000,-0.140000
5.351714,0.099552,0.028792,0.951112,0.980000,-2.240000,-0.700000
5.359801,0.113216,0.011224,1.157048,0.280000,-2.800000,-1.120000
5.367889,0.060024,-0.022936,0.984296,-0.280000,-3.780000,-0.840000
5.375976,0.075152,-0.002440,0.931592,1.120000,-4.200000,-0.420000
5.384064,0.097112,0.000000,1.019432,2.240000,-0.980000,-0.980000
5.392151,0.142008,-0.014640,1.037488,-0.700000,-4.200000,-1.260000
5.400238,0.009272,0.035136,1.007720,-0.280000,-5.180000,-0.560000
5.408326,0.050752,-0.023424,0.937448,1.960000,-2.660000,-0.560000
5.416413,0.157624,0.023912,1.052616,1.680000,-4.340000,-0.560000
5.424500,0.128832,-0.005856,1.104832,0.140000,-5.320000,-0.840000
5.432588,0.024888,-0.010736,0.921344,-1.680000,-2.240000,-1.400000
5.440675,0.065880,-0.016592,0.968192,2.800000,-4.340000,0.000000
5.448763,0.147376,0.018544,1.083360,1.960000,-6.160000,-0.420000
5.456850,0.051728,0.006344,1.010648,-2.940000,-4.480000,-1.820000
5.464937,0.020984,0.007808,0.958920,1.960000,-4.620000,-0.140000
5.473025,0.137616,-0.033184,0.998448,1.820000,-5.180000,-0.840000
5.481112,0.148840,0.003416,1.116544,0.000000,-8.680000,-0.560000
5.489199,0.023912,0.011712,0.974536,-0.420000,-5.600000,-0.840000
5.497287,0.093208,-0.021472,0.858392,0.840000,-3.640000,-0.980000
5.505374,0.153720,0.003904,1.115568,1.960000,-8.400000,-0.140000
5.513462,0.073200,-0.002928,1.048224,1.260000,-8.260000,-0.420000
5.521549,0.048800,0.056120,0.941840,-0.560000,-4.900000,-1.400000
5.529636,0.116144,0.007808,1.046760,2.240000,-4.620000,-0.840000
5.537724,0.154208,-0.077104,1.017480,1.400000,-7.700000,-0.280000
5.545811,0.093696,0.048312,0.999424,0.280000,-8.260000,-0.560000
5.553898,0.045872,0.008784,0.958432,0.420000,-3.080000,-1.260000
5.561986,0.157624,-0.037576,0.988688,0.560000,-6.440000,-0.700000
5.570073,0.104432,0.011712,1.113128,0.700000,-9.520000,-0.140000
5.578161,0.032208,0.000976,0.922320,0.280000,-6.160000,-0.840000
5.586248,0.137128,0.022448,1.016016,0.420000,-5.460000,-1.120000
5.594335,0.150792,-0.012688,1.117032,1.260000,-8.540000,-0.560000
5.602423,0.076616,-0.026352,0.929640,0.560000,-8.260000,-0.700000
5.610510,0.124928,0.020008,0.916464,1.680000,-6.160000,-0.560000
5.618597,0.144448,0.027328,1.088240,0.560000,-4.340000,-1.120000
5.626685,0.106872,-0.048312,0.990640,-1.260000,-6.860000,-0.840000
5.634772,0.061976,0.014152,0.925248,0.840000,-7.280000,-0.420000
5.642860,0.100528,0.017080,1.013088,2.660000,-4.340000,-0.560000
5.650947,0.183976,0.011224,1.097512,-0.840000,-6.160000,-0.700000
5.659034,0.077104,-0.022936,1.030656,-0.560000,-6.020000,-0.980000
5.667122,0.092720,-0.040016,0.849608,1.260000,-5.180000,-0.840000
5.675209,0.188856,0.042944,1.078968,3.080000,-6.160000,-0.560000
5.683296,0.122976,0.004880,1.065304,-0.840000,-5.740000,-0.700000
5.691384,0.076616,-0.045872,0.858392,-1.260000,-4.760000,-1.120000
5.699471,0.188368,0.021472,0.939400,2.520000,-1.400000,-0.560000
5.707559,0.162992,-0.022936,1.036024,1.820000,-0.140000,-0.700000
5.715646,0.101504,0.034160,1.019432,0.280000,-0.980000,-0.560000
5.723733,0.066368,0.028304,1.002840,-0.700000,2.520000,-1.120000
5.731821,0.122976,-0.031720,1.011136,1.400000,1.680000,-0.980000
5.739908,0.191784,-0.019032,1.036512,1.820000,-4.060000,-0.280000
5.747995,0.065392,0.035136,1.062376,0.560000,-1.400000,-1.120000
5.756083,0.085888,-0.020496,0.850584,-0.700000,2.380000,-1.120000
5.764170,0.183000,0.000488,1.066280,2.520000,-2.240000,-0.420000
5.772258,0.104920,0.002928,1.061400,0.980000,-2.800000,-0.560000
5.780345,0.067832,0.038064,0.934032,0.560000,0.420000,-0.840000
5.788432,0.163480,-0.007808,1.047248,0.560000,1.120000,-1.260000
5.796520,0.138104,-0.054168,1.007720,1.120000,-1.120000,-0.560000
5.804607,0.136640,0.022448,0.978440,1.120000,-2.240000,-0.420000
5.812694,0.083448,0.003416,0.975024,0.840000,2.940000,-1.260000
5.820782,0.143472,-0.027816,1.004792,0.560000,0.560000,-0.980000
5.828869,0.126880,0.011224,1.039928,0.560000,-1.680000,-0.700000
5.836957,0.061488,0.026352,0.956968,2.240000,0.140000,-0.420000
5.845044,0.166896,0.015128,0.987712,0.280000,2.100000,-1.120000
5.853131,0.132248,-0.008784,1.127768,0.980000,-0.140000,-1.120000
5.861219,0.099064,-0.045872,0.925736,0.280000,-1.260000,-0.560000
5.869306,0.125904,0.037088,0.911096,1.260000,0.700000,-0.980000
5.877393,0.155184,0.000000,1.105808,1.820000,2.240000,-0.840000
5.885481,0.146888,-0.030256,1.017968,-0.420000,-0.560000,-0.980000
5.893568,0.060512,0.008784,0.886696,0.840000,-0.280000,-0.280000
5.901656,0.137616,0.012200,1.008208,2.520000,3.500000,-1.120000
5.909743,0.185928,0.005368,1.102880,0.420000,0.840000,-0.840000
5.917830,0.083936,0.006344,1.059936,-0.980000,0.280000,-1.260000
5.925918,0.032696,-0.032696,0.823744,0.980000,3.360000,-0.560000
5.934005,0.187392,0.028304,1.064328,3.220000,1.400000,-0.280000
5.942092,0.165920,0.003416,1.117520,-0.700000,-0.140000,-1.260000
5.950180,0.070760,-0.022448,0.912072,-0.840000,1.400000,-0.980000
5.958267,0.125904,-0.003416,0.923296,3.080000,3.220000,-0.840000
5.966355,0.186416,-0.007320,1.075552,2.520000,1.680000,-0.840000
5.974442,0.116144,0.027328,1.065792,-1.540000,0.420000,-0.840000
5.982529,0.024888,0.015128,0.898408,0.280000,3.500000,-0.840000
5.990617,0.130296,-0.039040,0.964776,2.940000,4.200000,-0.840000
5.998704,0.217160,0.032696,1.190232,1.680000,-0.140000,-0.420000
6.006791,0.064416,-0.005368,0.962336,-1.540000,2.240000,-1.260000
6.014879,0.058072,-0.026352,0.813984,0.980000,5.460000,-0.980000
6.022966,0.228384,-0.014640,1.078480,4.200000,1.120000,-0.140000
6.031053,0.127856,0.012688,1.156072,-0.420000,-0.280000,-1.120000
6.039141,-0.010248,0.019032,0.823744,-2.380000,3.360000,-0.980000
6.047228,0.113704,0.011224,1.004304,3.780000,5.040000,-0.700000
6.055316,0.222528,-0.040016,1.116544,1.680000,-0.280000,-0.840000
6.063403,0.092720,0.038064,1.049200,-0.980000,-1.680000,-0.560000
6.071490,0.006344,0.034648,0.893040,0.420000,7.000000,-0.980000
6.079578,0.212280,-0.063440,0.943792,2.380000,3.080000,-1.120000
6.087665,0.192760,-0.021472,1.178520,1.120000,-3.360000,-0.420000
6.095752,0.008296,0.038064,0.889136,-0.700000,2.660000,-1.120000
6.103840,0.072712,0.005856,0.935496,1.820000,6.720000,-0.980000
6.111927,0.248880,-0.030744,1.119472,1.820000,-0.140000,-0.560000
6.120015,0.070272,0.014152,1.055056,0.420000,-1.960000,-0.840000
6.128102,0.028304,0.055632,0.868640,0.000000,4.900000,-0.980000
6.136189,0.178120,-0.020496,1.070672,2.940000,4.900000,-0.840000
6.144277,0.178608,-0.060512,1.069208,-0.700000,-1.540000,-0.560000
6.152364,0.042456,0.019520,0.887672,0.840000,-0.840000,-0.560000
6.160451,0.071736,0.025864,0.963800,1.680000,7.000000,-1.400000
6.168539,0.224480,-0.026352,1.101416,0.980000,1.120000,-0.840000
6.176626,0.093208,-0.025376,1.073112,-0.700000,-3.360000,-0.280000
6.184714,-0.008296,0.043920,0.813008,2.100000,5.040000,-1.260000
6.192801,0.180072,0.046360,1.094584,2.940000,3.080000,-0.980000
6.200888,0.196176,-0.049288,1.186816,-1.260000,-1.820000,-0.420000
6.208976,-0.002928,-0.033672,0.803736,0.280000,-1.120000,-0.420000
6.217063,0.117120,0.050752,0.956480,3.500000,4.200000,-0.980000
6.225150,0.231800,-0.012200,1.165344,0.840000,1.400000,-0.840000
6.233238,0.105896,-0.050264,1.031632,-2.380000,-2.660000,-0.700000
6.241325,-0.039040,0.042944,0.795440,1.960000,2.240000,-0.700000
6.249413,0.188368,0.033672,1.077504,5.320000,3.220000,-0.560000
6.257500,0.221064,-0.015616,1.188768,-3.780000,-0.980000,-0.700000
6.265587,-0.030744,-0.011712,0.863272,0.420000,-1.400000,-0.700000
6.273675,0.072712,-0.018544,0.855952,2.100000,6.300000,-0.840000
6.281762,0.304024,0.011712,1.245864,4.900000,-0.840000,-0.840000
6.289849,0.061488,0.003904,1.098976,-3.500000,-2.240000,-0.980000
6.297937,-0.049288,-0.020984,0.683688,0.700000,3.220000,-0.700000
6.306024,0.253760,0.012688,1.069696,5.460000,0.420000,-0.420000
6.314112,0.172752,0.004880,1.201456,-0.980000,-2.240000,-0.980000
6.322199,-0.006344,0.004392,0.856928,-1.820000,0.280000,-1.120000
6.330286,0.081984,0.010248,0.887184,2.520000,6.300000,-0.560000
6.338374,0.247416,-0.052216,1.120448,2.800000,0.000000,-0.840000
6.346461,0.091744,0.041480,1.188768,-1.400000,-4.200000,-0.840000
6.354548,-0.031720,0.010736,0.820816,0.140000,4.340000,-0.700000
6.362636,0.217648,-0.056608,0.945744,3.360000,1.680000,-0.980000
6.370723,0.226920,0.012688,1.173152,1.260000,-3.780000,-0.140000
6.378810,0.011224,0.022936,0.950136,-0.700000,0.700000,-0.980000
6.386898,0.038552,0.012200,0.844728,0.000000,6.580000,-1.540000
6.394985,0.222040,-0.038552,1.094584,3.220000,-0.140000,-0.280000
6.403073,0.102968,0.002928,1.116056,-0.280000,-3.500000,-0.840000
6.411160,0.008784,0.061000,0.892552,-0.280000,2.800000,-0.980000
6.419247,0.140056,0.010736,1.039928,2.800000,4.060000,-1.120000
6.427335,0.195688,-0.110288,1.050176,0.420000,-3.500000,-0.420000
6.435422,0.023912,0.073200,1.075552,0.140000,-6.160000,-0.700000
6.443509,-0.042944,0.045872,0.929640,0.840000,0.560000,-1.120000
6.451597,0.248880,-0.065392,1.023824,1.820000,-7.420000,-0.280000
6.459684,0.158112,0.020984,1.172664,0.840000,-11.060000,-0.140000
6.467772,-0.002928,0.010736,0.828136,-0.700000,-3.080000,-0.840000
6.475859,0.180072,-0.000488,1.017480,1.960000,-1.400000,-1.540000
6.483946,0.199592,-0.047824,1.088240,1.120000,-7.280000,-0.280000
6.492034,0.080032,-0.007320,0.905728,0.000000,-8.400000,-0.420000
6.500121,0.051240,0.065392,0.960384,1.400000,0.140000,-1.260000
6.508208,0.204472,-0.037576,1.045784,1.400000,-2.380000,-0.560000
6.516296,0.145424,-0.028304,1.089216,-0.700000,-9.520000,-0.140000
6.524383,-0.006344,0.040016,0.893528,0.700000,-3.500000,-0.700000
6.532470,0.144936,0.024888,1.008208,1.960000,0.420000,-1.260000
6.540558,0.248880,-0.041968,1.143872,-0.700000,-6.860000,-0.560000
6.548645,0.056120,-0.016104,0.923784,0.700000,-7.700000,0.000000
6.556733,0.073200,0.028792,0.828136,1.540000,0.420000,-1.120000
6.564820,0.254248,0.002928,1.162416,2.520000,-2.520000,-0.840000
6.572907,0.103944,-0.025376,1.111664,-1.260000,-6.860000,-0.840000
6.580995,-0.012688,0.014152,0.753472,0.280000,-3.780000,-0.420000
6.589082,0.160552,0.049288,1.091656,4.200000,-1.400000,-0.700000
6.597169,0.247904,-0.047336,1.146800,-1.120000,-4.620000,-1.260000
6.605257,0.056608,-0.005368,0.911096,-1.120000,-7.140000,-0.560000
6.613344,0.057584,0.014152,0.885720,2.380000,-0.140000,-0.560000
6.621432,0.245464,-0.033672,1.107760,2.940000,-2.240000,-0.700000
6.629519,0.151768,0.020008,1.165832,-2.800000,-8.260000,-0.980000
6.637606,-0.043432,-0.008784,0.739808,-0.280000,-3.080000,-0.420000
6.645694,0.203984,-0.001464,0.997960,4.620000,-2.380000,-0.700000
6.653781,0.268400,0.044896,1.239032,0.420000,-7.000000,-1.120000
6.661868,0.020496,-0.049776,0.917928,-2.380000,-5.600000,-0.840000
6.669956,0.076616,0.016592,0.829112,2.800000,-0.280000,-0.840000
6.678043,0.241560,-0.001464,1.107272,4.060000,-4.620000,-0.700000
6.686130,0.177144,-0.011224,1.138504,-2.940000,-6.300000,-1.120000
6.694218,-0.017568,0.024400,0.799344,0.140000,-3.500000,-0.560000
6.702305,0.163480,-0.027816,0.950136,3.080000,-0.980000,-0.420000
6.710393,0.264496,-0.009272,1.196576,1.540000,-7.140000,-0.700000
6.718480,0.056608,0.054656,1.035048,-2.380000,-6.020000,-0.980000
6.726567,0.026840,-0.019520,0.756888,1.260000,1.120000,-0.560000
6.734655,0.269864,-0.020008,1.120936,2.940000,-4.060000,-0.700000
6.742742,0.201056,-0.013176,1.162416,0.560000,-8.540000,-0.560000
6.750829,-0.004392,0.025376,0.808128,-1.960000,-0.560000,-1.400000
6.758917,0.148352,0.003904,0.926224,2.940000,-0.560000,-1.260000
6.767004,0.282064,-0.046360,1.168760,1.680000,-7.280000,0.000000
6.775092,0.050264,0.018056,0.988200,-1.540000,-7.280000,-0.700000
6.783179,0.069784,0.049288,0.846680,1.400000,0.980000,-1.260000
6.791266,0.244488,-0.039528,1.088240,1.540000,-1.680000,-0.560000
6.799354,0.180072,-0.032208,1.078968,1.260000,-9.520000,-0.140000
6.807441,0.034648,0.071248,0.937448,0.280000,-1.400000,-1.120000
6.815528,0.146400,-0.021960,0.937936,1.120000,1.540000,-1.260000
6.823616,0.285480,-0.047824,1.141432,1.400000,-7.140000,-0.140000
6.831703,0.080032,0.005368,0.942816,0.000000,-4.900000,-0.700000
6.839790,0.049776,0.031232,0.862784,1.400000,1.120000,-0.980000
6.847878,0.241072,-0.001464,1.124352,0.280000,-1.960000,-0.980000
6.855965,0.151280,-0.058072,1.046272,0.560000,-6.720000,-0.560000
6.864053,0.089792,0.046848,0.854976,1.120000,-2.940000,-0.560000
6.872140,0.172752,0.060512,1.115080,2.240000,0.560000,-1.120000
6.880227,0.219600,-0.084424,1.038464,-0.560000,-2.800000,-0.980000
6.888315,0.122488,-0.015616,0.915000,0.980000,-6.020000,-0.700000
6.896402,0.084912,0.045872,0.915976,2.660000,-0.840000,-0.420000
6.904489,0.234728,0.001952,1.104832,0.140000,-0.280000,-0.980000
6.912577,0.167872,-0.011712,1.092144,-0.700000,-5.460000,-0.840000
6.920664,0.055144,-0.028304,0.810080,1.400000,-1.820000,-0.700000
6.928752,0.168360,0.045384,1.020896,2.660000,-0.700000,-1.260000
6.936839,0.213744,0.018544,1.170224,0.560000,-4.060000,-0.700000
6.944926,0.086376,-0.037088,0.950136,-2.100000,-3.640000,-1.260000
6.953014,0.090280,0.018056,0.841312,2.100000,-2.100000,-0.140000
6.961101,0.268888,-0.020496,1.156072,3.080000,-1.960000,-0.700000
6.969188,0.196664,-0.028792,1.055056,-1.820000,-6.020000,-1.120000
6.977276,0.028792,0.024400,0.842288,-0.700000,-1.540000,-1.120000
6.985363,0.180072,-0.004392,0.929152,4.620000,-0.560000,-0.560000
6.993450,0.264984,0.008784,1.224392,0.560000,-5.180000,-0.560000
7.001538,0.084424,-0.000488,0.996496,-1.820000,-5.040000,-1.120000
7.009625,0.038064,0.002928,0.767624,1.680000,1.120000,-0.700000
7.017713,0.279624,0.012200,1.112152,3.360000,-4.340000,-0.700000
7.025800,0.215208,0.004392,1.212192,-0.700000,-7.280000,-0.560000
7.033887,-0.005856,-0.037088,0.812520,-1.960000,-0.700000,-1.400000
7.041975,0.197640,0.005856,0.878888,3.360000,-1.260000,-0.840000
7.050062,0.287920,-0.019520,1.176080,1.400000,-6.580000,-0.700000
7.058149,0.091256,0.007808,1.014552,-0.840000,-6.300000,-0.840000
7.066237,0.060512,0.034648,0.841800,0.840000,-0.140000,-0.980000
7.074324,0.239608,0.002928,1.058960,1.820000,-1.820000,-1.260000
7.082412,0.237656,-0.071248,1.081896,1.120000,-9.100000,0.140000
7.090499,0.060024,0.072224,0.935984,0.560000,-1.680000,-0.840000
7.098586,0.112728,0.002440,0.945744,0.560000,1.960000,-1.820000
7.106674,0.281088,-0.036600,1.130696,0.980000,-7.700000,-0.280000
7.114761,0.140544,-0.008296,1.010648,1.120000,-8.260000,-0.140000
7.122848,0.061488,0.009760,0.792512,0.280000,1.260000,-1.540000
7.130936,0.284992,0.003416,1.071648,2.240000,-2.800000,-0.980000
7.139023,0.162992,-0.002928,1.163392,-1.540000,-6.160000,-0.700000
7.147110,0.037088,-0.013176,0.753472,1.260000,-4.200000,-0.280000
7.155198,0.210328,0.039040,1.098488,3.780000,-2.800000,-1.260000
7.163285,0.248880,-0.019032,1.122400,-0.700000,-4.620000,-0.840000
7.171373,0.108336,-0.008296,0.929640,-1.400000,-5.880000,-0.700000
7.179460,0.096624,-0.012200,0.860344,2.380000,-0.980000,-0.980000
7.187547,0.307440,-0.030256,1.075064,2.800000,-4.340000,-0.560000
7.195635,0.187392,0.044408,1.104832,-1.680000,-7.420000,-1.120000
7.203722,0.006344,-0.007808,0.847168,-0.280000,-1.540000,-1.260000
7.211809,0.203496,-0.018056,0.960384,3.500000,-2.380000,-0.420000
7.219897,0.284016,0.021960,1.148752,1.540000,-7.700000,-0.420000
7.227984,0.101504,-0.019032,1.003328,-1.540000,-5.880000,-1.260000
7.236071,0.095648,0.028304,0.879376,1.120000,-0.980000,-1.120000
7.244159,0.281088,-0.037576,1.066280,2.240000,-4.620000,-0.420000
7.252246,0.198128,-0.021960,1.038952,-0.280000,-8.820000,-0.560000
7.260334,0.068808,0.042456,0.912072,0.980000,-4.480000,-0.700000
7.268421,0.197152,0.003416,0.982344,1.400000,-1.260000,-1.540000
7.276508,0.249368,-0.041968,1.082872,-0.140000,-8.120000,-0.420000
7.284596,0.138592,0.011224,0.941352,1.400000,-8.960000,-0.560000
7.292683,0.090280,0.035624,0.957456,1.260000,-0.280000,-1.260000
7.300770,0.290360,-0.022448,1.117520,0.280000,-5.880000,-1.120000
7.308858,0.180072,-0.022448,1.037488,-0.420000,-9.800000,-0.560000
7.316945,0.068808,-0.005856,0.802760,1.120000,-3.780000,-0.700000
7.325032,0.296704,0.005368,1.041880,4.340000,-4.340000,-0.980000
7.333120,0.212280,0.037088,1.161928,-1.540000,-7.560000,-1.260000
7.341207,0.050264,-0.022448,0.853512,-0.840000,-6.720000,-0.280000
7.349294,0.187392,0.009272,0.903776,2.800000,-4.340000,-0.560000
7.357382,0.293288,-0.027816,1.205360,2.380000,-7.000000,-1.260000
7.365469,0.184952,0.024888,1.038952,-1.400000,-10.220000,-0.560000
7.373557,0.041480,0.018056,0.802272,0.000000,-1.820000,-1.400000
7.381644,0.264984,-0.058072,0.989664,2.800000,-5.040000,-0.840000
7.389731,0.272304,0.000488,1.128744,0.980000,-12.040000,0.000000
7.397819,0.062952,0.045872,0.933544,-1.400000,-5.180000,-1.400000
7.405906,0.181048,-0.027816,0.874008,0.840000,-3.500000,-0.840000
7.413993,0.297680,-0.017080,1.120936,2.380000,-9.240000,-0.420000
7.422081,0.154208,-0.000976,0.997960,0.140000,-9.940000,-0.560000
7.430168,0.116144,0.046848,0.913536,0.140000,-3.360000,-0.840000
7.438255,0.266448,-0.018056,1.083848,2.240000,-5.880000,-1.260000
7.446343,0.242536,-0.046848,1.020896,-1.820000,-10.080000,-0.840000
7.454430,0.124928,-0.008296,0.843264,1.820000,-8.120000,-0.280000
7.462517,0.225456,0.038552,1.037488,3.080000,-3.920000,-1.260000
7.470605,0.291336,-0.013664,1.074088,-0.840000,-7.980000,-1.260000
7.478692,0.115168,0.005856,0.966728,-0.280000,-9.940000,-0.140000
7.486780,0.134200,-0.010736,0.846192,2.240000,-2.800000,-1.120000
7.494867,0.294752,0.002928,1.077016,2.240000,-7.280000,-0.700000
7.502954,0.222040,0.044408,1.119960,-0.700000,-8.820000,-0.700000
7.511042,0.085888,-0.024888,0.868640,-0.840000,-4.340000,-0.980000
7.519129,0.258640,-0.016104,0.953064,1.260000,-5.040000,-0.700000
7.527216,0.307440,-0.028304,1.103856,2.800000,-9.100000,-0.420000
7.535304,0.146888,0.001952,0.935496,-0.700000,-7.560000,-0.700000
7.543391,0.175192,0.032696,0.891576,-0.280000,-2.800000,-1.260000
7.551478,0.250832,-0.031232,1.085312,1.260000,-5.600000,-0.840000
7.559566,0.232288,-0.023424,0.986736,1.120000,-10.220000,-0.420000
7.567653,0.141032,0.065392,0.926224,0.980000,-5.040000,-0.840000
7.575741,0.220088,-0.019520,1.070184,1.540000,-4.060000,-0.980000
7.583828,0.282064,-0.008784,1.056520,-0.700000,-8.960000,-1.260000
7.591915,0.166408,-0.015128,0.906216,0.280000,-6.860000,-0.840000
7.600003,0.210328,-0.029280,0.848144,2.520000,-2.100000,-1.120000
7.608090,0.337696,0.046848,1.123376,1.400000,-5.600000,-0.980000
7.616177,0.141032,-0.000976,1.042856,-1.120000,-4.620000,-1.120000
7.624265,0.133224,-0.019520,0.802272,1.260000,-1.540000,-0.840000
7.632352,0.366000,-0.004880,1.073600,2.800000,-6.300000,-0.560000
7.640439,0.250344,-0.026352,1.106296,0.980000,-6.860000,-1.120000
7.648527,0.036112,0.032696,0.854976,0.280000,2.800000,-1.960000
7.656614,0.249856,-0.022936,0.931104,1.400000,-3.220000,-0.840000
7.664701,0.324520,0.001464,1.065304,1.680000,-13.720000,0.140000
7.672789,0.154208,0.004392,1.027240,1.680000,0.980000,-1.820000
7.680876,0.287432,-0.030256,0.998448,0.420000,1.540000,-2.380000
7.688964,0.158112,0.036600,0.869616,2.100000,-10.220000,0.140000
7.697051,0.150792,-0.028792,0.902312,1.120000,-2.660000,-0.840000
7.705138,0.423096,0.020984,1.287832,2.240000,-3.640000,-1.960000
7.713226,0.077104,-0.001952,0.858392,0.420000,-4.340000,-1.540000
7.721313,0.111264,-0.051240,0.731024,1.260000,-0.420000,-1.400000
7.729400,0.528992,0.047824,1.363472,3.220000,-10.220000,-1.120000
7.737488,0.063440,-0.000976,0.898896,0.000000,-4.620000,-1.680000
7.745575,0.076128,0.003416,0.791536,0.700000,6.300000,-2.660000
7.753662,0.560224,-0.030744,1.169248,3.640000,-12.740000,-0.840000
7.761750,0.052704,-0.007808,0.907192,-0.140000,-7.560000,-0.420000
7.769837,0.100040,0.061000,0.927688,2.380000,9.520000,-2.520000
7.777924,0.514352,-0.020008,1.196576,0.420000,-11.900000,-1.400000
7.786012,-0.037576,-0.012200,0.686616,0.840000,-6.440000,-0.700000
7.794099,0.380640,-0.001952,1.136064,2.940000,6.720000,-2.940000
7.802187,0.448960,0.007320,1.188280,1.120000,-12.180000,-1.400000
7.810274,-0.279624,0.007320,0.497272,-2.520000,6.300000,-1.820000
7.818361,0.530456,-0.029768,1.276608,4.760000,-1.960000,-2.240000
7.826449,0.388936,0.035136,1.178032,0.560000,-17.920000,-1.120000
7.834536,-0.231312,-0.014640,0.590480,-1.400000,13.720000,-3.920000
7.842623,0.722240,-0.048800,1.206824,3.500000,-4.760000,-2.660000
7.850711,0.047336,0.024888,0.921344,-0.140000,-14.280000,-2.100000
7.858798,0.036600,0.034648,0.904752,-1.260000,18.620001,-5.180000
7.866885,0.694912,-0.042944,1.268312,2.240000,-11.760000,-1.960000
7.874973,-0.259128,0.044408,0.645136,1.120000,-4.760000,-0.980000
7.883060,0.377224,0.037576,1.036512,1.260000,12.880000,-4.060000
7.891148,0.546560,-0.054656,1.235616,-0.280000,-21.420000,0.140000
7.899235,-0.298656,-0.014152,0.626104,0.140000,13.300000,-4.620000
7.907322,0.675392,0.051240,1.242448,0.420000,4.200000,-3.220000
7.915410,0.038064,-0.016104,0.762744,0.420000,-14.700000,-1.120000
7.923497,0.210328,-0.003904,0.991616,0.560000,14.280000,-2.380000
7.931584,0.629520,-0.011712,1.346880,1.260000,-5.180000,-2.800000
7.939672,-0.342088,-0.007808,0.394792,0.140000,5.180000,-2.520000
7.947759,0.562176,0.052216,1.174128,0.980000,4.760000,-3.360000
7.955846,0.391864,-0.019032,1.420568,-2.240000,-15.820000,-1.540000
7.963934,-0.338672,-0.046360,0.492880,1.960000,17.780001,-4.340000
7.972021,0.854488,0.005368,1.345904,1.400000,-11.620000,-2.520000
7.980108,-0.215696,-0.001464,0.664168,-1.960000,-3.500000,-5.040000
7.988196,0.429928,0.022936,1.053592,2.800000,14.700000,-3.920000
7.996283,0.550464,-0.005368,1.135576,1.680000,-17.639999,0.000000
8.004371,-0.316224,0.048800,0.655872,-1.680000,22.960001,-4.620000
8.012458,0.664168,0.026352,1.224392,-0.980000,6.020000,-2.100000
8.020545,0.001952,-0.052704,0.812032,0.280000,-14.140000,-1.540000
8.028633,0.155672,0.036112,1.102392,0.280000,20.020000,-3.080000
8.036720,0.598776,-0.036600,1.242936,-0.560000,-10.220000,-1.820000
8.044807,-0.314760,-0.023424,0.480680,0.700000,3.920000,-1.540000
8.052895,0.598776,0.021960,1.283440,2.380000,6.160000,-3.780000
8.060982,0.331352,0.000976,1.072136,-1.960000,-14.560000,-1.400000
8.069069,-0.177632,-0.009760,0.710040,0.280000,17.920000,-3.500000
8.077157,0.772992,0.022936,1.323944,1.680000,-2.380000,-2.100000
8.085244,-0.225456,0.005856,0.717360,-1.260000,-4.340000,-1.540000
8.093331,0.277184,-0.002440,0.952088,1.680000,13.160000,-2.800000
8.101419,0.648552,0.027816,1.498648,1.400000,-15.820000,-1.540000
8.109506,-0.504592,-0.034160,0.371856,-1.820000,13.020000,-3.360000
8.117594,0.738344,-0.024888,1.159976,3.220000,-3.780000,-2.380000
8.125681,0.263032,0.007320,1.111176,0.280000,-17.360001,-1.960000
8.133768,-0.040992,0.030744,0.780800,-1.820000,24.360001,-4.480000
8.141856,0.699792,-0.049288,1.153632,0.420000,-4.760000,-1.960000
8.149943,-0.186416,0.015616,0.739320,2.100000,-5.320000,-1.260000
8.158030,0.339160,0.070760,1.116056,1.540000,16.799999,-3.500000
8.166118,0.509960,-0.043920,1.223904,-1.260000,-14.000000,-0.700000
8.174205,-0.337208,-0.022448,0.605120,-0.140000,12.040000,-4.200000
8.182292,0.657824,0.059048,1.215608,1.960000,4.480000,-2.520000
8.190380,0.188368,-0.013664,0.955504,-1.400000,-17.360001,-0.420000
8.198467,0.052216,-0.005368,0.834480,0.840000,17.080000,-1.400000
8.206554,0.687592,-0.003416,1.304912,1.400000,0.700000,-2.240000
8.214642,-0.212280,0.012200,0.643672,-1.400000,-0.700000,-0.420000
8.222729,0.281576,-0.001952,0.872056,3.220000,12.040000,-1.260000
8.230817,0.656848,0.050264,1.540128,0.000000,-12.320000,-0.700000
8.238904,-0.394304,-0.016104,0.495320,-2.800000,16.660000,-3.360000
8.246991,0.535336,-0.031720,1.077016,3.080000,5.180000,-1.400000
8.255079,0.419680,0.018056,1.247816,0.140000,-17.920000,0.280000
8.263166,-0.228872,-0.002440,0.705648,-2.800000,21.559999,-3.080000
8.271253,0.623176,-0.047824,1.134112,3.920000,1.680000,-0.700000
8.279341,0.083448,0.028792,0.901824,0.560000,-13.160000,1.120000
8.287428,0.083448,0.026840,0.954528,-1.260000,18.480000,-3.500000
8.295515,0.591944,-0.020984,1.199504,0.700000,-3.220000,-1.120000
8.303603,-0.184952,-0.005368,0.617808,0.840000,-0.980000,0.140000
8.311690,0.420168,0.023912,1.112640,2.100000,10.920000,-2.240000
8.319777,0.467992,0.010736,1.362496,-1.260000,-9.520000,0.000000
8.327865,-0.368928,-0.053192,0.419192,0.280000,13.440001,-1.120000
8.335952,0.679784,0.017080,1.261968,2.800000,2.940000,-1.120000
8.344039,0.225456,0.077104,1.151680,-1.680000,-14.980000,0.700000
8.352127,-0.114192,-0.061488,0.632936,-0.420000,20.160000,-1.960000
8.360214,0.761280,-0.002440,1.316624,4.340000,-2.940000,-0.560000
8.368302,-0.210328,0.076616,0.798856,-0.420000,-3.500000,1.120000
8.376389,0.279624,-0.018056,0.883768,0.840000,17.920000,-3.360000
8.384476,0.623176,-0.040992,1.376160,-1.260000,-15.260000,0.980000
8.392564,-0.371856,-0.036600,0.572424,0.140000,13.720000,-2.800000
8.400651,0.569984,0.024888,1.090680,1.260000,8.960000,-2.100000
8.408738,0.259128,0.011224,1.066280,-0.560000,-17.639999,1.120000
8.416826,-0.018056,-0.051728,0.738344,-0.700000,18.340000,-3.080000
8.424913,0.657824,0.068320,1.375184,2.520000,1.960000,-1.540000
8.433000,-0.211304,0.003416,0.700280,-1.960000,-1.260000,1.120000
8.441088,0.211792,-0.017080,0.859368,1.680000,14.700000,-1.400000
8.449175,0.698816,0.010248,1.616744,0.840000,-11.340000,0.140000
8.457262,-0.445056,-0.030256,0.420168,-0.840000,12.180000,-3.080000
8.465350,0.566568,0.005368,1.035536,1.120000,1.260000,-0.700000
8.473437,0.421144,-0.012688,1.255136,1.120000,-14.700000,0.280000
8.481524,-0.148840,-0.008784,0.678808,-1.820000,22.400000,-2.800000
8.489612,0.538752,0.037088,1.186328,1.680000,5.040000,-1.400000
8.497699,0.082960,-0.049776,0.874496,0.280000,-11.340000,2.520000
8.505787,0.069296,0.011712,0.952088,1.260000,16.940001,-2.940000
8.513874,0.520696,0.035624,1.374696,2.100000,-1.680000,-0.560000
8.521961,-0.119072,-0.058560,0.574376,-1.400000,-7.840000,-1.260000
8.530049,0.337208,0.038064,1.017480,2.100000,10.640000,-1.960000
8.538136,0.539728,0.000976,1.310768,0.140000,-3.780000,-0.560000
8.546223,-0.218136,-0.039528,0.537776,-1.680000,7.420000,-0.700000
8.554311,0.381128,0.000000,1.023336,4.340000,8.680000,-1.260000
8.562398,0.460672,0.012200,1.450824,0.560000,-6.580000,0.140000
8.570485,-0.235216,-0.007808,0.551928,-2.100000,5.740000,-1.260000
8.578573,0.357704,0.014152,0.958920,5.880000,5.040000,-0.280000
8.586660,0.519232,-0.022936,1.354200,0.000000,-7.420000,0.420000
8.594747,-0.098088,0.028792,0.696864,-2.660000,5.740000,-1.400000
8.602835,0.225944,0.020496,0.935008,4.200000,11.620000,-0.700000
8.610922,0.504104,-0.087840,1.269776,1.400000,-7.420000,0.980000
8.619009,-0.040992,0.047824,0.854976,-1.820000,-0.280000,-0.560000
8.627097,0.142984,0.013664,0.875960,2.240000,12.180000,-2.380000
8.635184,0.456768,-0.036112,1.188768,0.980000,-4.900000,0.700000
8.643272,0.083936,0.021472,0.905240,0.560000,-6.580000,0.000000
8.651359,0.110288,0.015128,0.864248,1.540000,12.320000,-1.820000
8.659446,0.467992,-0.027328,1.234152,1.120000,0.980000,-0.420000
8.667534,0.114680,-0.046848,0.901824,-0.840000,-6.160000,0.140000
8.675621,0.056608,0.021472,0.744200,1.120000,7.700000,-0.980000
8.683708,0.440176,0.029768,1.266848,4.620000,0.700000,-0.700000
8.691796,0.194224,-0.015616,1.099464,-2.800000,-5.740000,0.140000
8.699883,-0.035624,-0.027328,0.567056,1.120000,4.620000,-1.260000
8.707970,0.412360,0.038552,1.230736,5.740000,1.820000,-0.140000
8.716058,0.334768,-0.009272,1.145824,-1.960000,-5.320000,-0.140000
8.724145,-0.048312,0.002440,0.739808,-2.240000,4.340000,-1.540000
8.732232,0.289384,-0.006832,1.007232,5.740000,4.620000,0.000000
8.740320,0.433832,-0.033184,1.163392,1.400000,-5.600000,0.280000
8.748407,0.027816,0.036600,0.910608,-2.240000,-0.840000,-0.420000
8.756494,0.122000,-0.003416,0.818376,2.660000,9.100000,-1.680000
8.764582,0.462136,-0.045872,1.163880,1.820000,-3.360000,0.280000
8.772669,0.137128,0.019032,0.968192,-0.980000,-5.880000,-0.840000
8.780757,0.047336,0.044408,0.897432,1.260000,8.960000,-1.120000
8.788844,0.401624,-0.031232,1.087752,1.960000,0.700000,-0.420000
8.796931,0.230824,-0.034648,1.092144,-0.280000,-6.160000,0.000000
8.805019,0.019032,0.011224,0.723704,0.560000,3.360000,-0.840000
8.813106,0.335744,0.038552,1.115080,3.500000,2.940000,-0.840000
8.821193,0.299632,-0.042944,1.171200,-1.540000,-4.620000,0.000000
8.829281,0.043432,-0.025864,0.686616,0.140000,-0.840000,-0.980000
8.837368,0.270840,0.043920,0.984784,3.920000,4.620000,-0.840000
8.845455,0.366976,0.023424,1.268800,0.840000,-1.960000,0.140000
8.853543,0.037576,-0.030256,0.886696,-3.080000,0.140000,-0.840000
8.861630,0.147376,-0.008784,0.819840,3.360000,3.920000,-0.560000
8.869717,0.421144,-0.017080,1.097512,2.240000,-1.400000,0.000000
8.877805,0.219112,0.015616,1.101904,-1.120000,-3.360000,-0.700000
8.885892,0.033184,0.009760,0.769088,0.840000,6.720000,-0.840000
8.893979,0.322080,-0.026352,0.999424,1.820000,2.520000,-0.280000
8.902067,0.285968,0.016104,1.138016,1.540000,-5.040000,0.560000
8.910154,0.082960,-0.010736,0.912072,-0.700000,1.680000,-0.980000
8.918242,0.222528,0.034160,0.981368,2.240000,5.320000,-1.400000
8.926329,0.357704,-0.046360,1.073112,0.560000,-2.240000,0.280000
8.934416,0.138104,-0.034648,0.875960,0.420000,-1.960000,-0.700000
8.942504,0.176168,0.056120,0.961848,2.520000,5.740000,-0.840000
8.950591,0.310856,-0.000976,1.106296,0.280000,1.120000,-0.840000
8.958678,0.176656,-0.040992,0.971120,-0.560000,-1.960000,-0.420000
8.966766,0.118096,0.038552,0.874984,2.520000,2.660000,0.000000
8.974853,0.300608,0.007808,1.096048,2.660000,2.380000,-1.120000
8.982940,0.291336,-0.018056,1.090192,-0.840000,-2.100000,-0.700000
8.991028,0.071736,-0.006344,0.828624,0.280000,1.400000,-0.560000
8.999115,0.240584,-0.028304,0.891576,2.660000,3.920000,-0.420000
9.007202,0.342088,0.031720,1.164368,2.380000,-2.380000,-0.560000
9.015290,0.144448,0.005368,1.019432,-1.820000,-0.280000,-1.120000
9.023377,0.102968,-0.008296,0.802272,0.980000,4.620000,-0.700000
9.031465,0.336720,0.002928,1.096048,3.780000,-1.120000,-0.140000
9.039552,0.244976,-0.023912,1.075552,-0.700000,-1.680000,-0.560000
9.047639,0.130784,0.012688,0.854976,1.120000,2.520000,-0.560000
9.055727,0.234728,0.003904,0.988688,1.400000,3.780000,-1.400000
9.063814,0.261568,-0.049288,1.026752,0.560000,-2.800000,-0.280000
9.071901,0.162992,0.028304,0.993080,1.260000,-2.520000,-0.420000
9.079989,0.152744,0.036600,0.939888,0.840000,5.180000,-1.260000
9.088076,0.318664,-0.016104,1.097024,0.560000,-0.980000,-0.560000
9.096163,0.192272,-0.042456,0.976976,1.260000,-2.660000,-0.280000
9.104251,0.136152,0.010248,0.807152,0.980000,2.800000,-0.280000
9.112338,0.327936,0.014152,1.126304,1.120000,1.680000,-1.260000
9.120425,0.205448,-0.016592,1.078968,0.420000,-1.680000,-0.560000
9.128513,0.107848,-0.013664,0.776408,0.140000,1.120000,-0.140000
9.136600,0.273768,0.023912,1.021384,3.080000,0.700000,-0.840000
9.144687,0.284016,0.000976,1.164368,0.280000,-0.700000,-0.420000
9.152775,0.131760,0.005856,0.946720,-1.540000,-0.560000,-1.120000
9.160862,0.175192,-0.016592,0.885720,2.240000,2.100000,-0.840000
9.168949,0.319152,-0.023912,1.020896,2.100000,-0.280000,-0.560000
9.177037,0.250832,0.028792,1.097024,-0.280000,-2.940000,-0.560000
9.185124,0.105896,-0.005856,0.875472,0.420000,2.660000,-1.120000
9.193211,0.231800,-0.029768,0.901336,0.700000,2.940000,-0.840000
9.201299,0.296216,0.002928,1.122400,3.080000,-4.340000,0.000000
9.209386,0.136640,0.022936,1.009672,-0.700000,-0.700000,-0.700000
9.217474,0.172264,0.020496,0.896456,0.000000,4.060000,-1.400000
9.225561,0.313784,-0.052704,1.068232,2.240000,-1.120000,0.140000
9.233648,0.220088,-0.037088,0.946232,0.840000,-3.920000,-0.560000
9.241736,0.143472,0.079544,0.979904,0.840000,1.540000,-1.540000
9.249823,0.236192,-0.013176,1.024800,0.560000,1.680000,-1.120000
9.257910,0.252296,-0.017080,0.996984,0.420000,-2.520000,-0.140000
9.265998,0.173240,0.001952,0.915488,2.100000,-1.820000,-0.280000
9.274085,0.227408,0.012200,1.029192,1.120000,3.640000,-1.540000
9.282172,0.282064,-0.012688,1.042856,0.420000,-0.700000,-0.420000
9.290260,0.162504,-0.029768,0.908168,-0.140000,-1.260000,-0.700000
9.298347,0.190320,-0.010736,0.885720,2.240000,0.560000,-0.840000
9.306434,0.279136,0.073688,1.169736,2.100000,-0.700000,-0.560000
9.314522,0.222528,-0.038064,1.024312,-0.840000,-0.560000,-0.980000
9.322609,0.146888,-0.015128,0.809592,1.120000,0.420000,-0.280000
9.330696,0.278160,0.004880,1.016016,2.800000,1.540000,-0.560000
9.338784,0.272792,-0.017568,1.097024,-0.140000,-1.400000,-0.840000
9.346871,0.093208,0.040992,0.970144,0.420000,0.420000,-0.980000
9.354958,0.206912,-0.047336,0.833016,0.700000,2.800000,-0.980000
9.363046,0.330864,0.004392,1.113616,2.100000,-3.360000,-0.140000
9.371133,0.198616,0.016592,1.061888,0.420000,-1.400000,-0.700000
9.379220,0.113704,-0.020984,0.792512,-1.120000,4.200000,-1.400000
9.387308,0.306464,-0.016104,1.032608,3.220000,-0.840000,-0.280000
9.395395,0.255712,-0.011224,1.089704,1.120000,-3.780000,-0.560000
9.403482,0.129808,0.063440,0.932568,0.280000,3.080000,-1.400000
9.411570,0.218624,-0.007808,0.986248,1.680000,3.220000,-0.140000
9.419657,0.299144,-0.072712,0.976488,1.540000,-2.940000,0.140000
9.427744,0.182512,0.040504,0.980880,1.260000,-3.220000,-0.420000
9.435832,0.152256,0.032696,0.976000,0.420000,5.320000,-1.400000
9.443919,0.285480,-0.020008,1.034072,0.840000,-0.700000,-0.280000
9.452007,0.239608,-0.032696,0.991128,0.700000,-3.360000,-0.280000
9.460094,0.151280,-0.001464,0.919392,1.680000,1.820000,-0.840000
9.468181,0.274256,0.029280,1.048712,1.540000,2.940000,-0.840000
9.476269,0.203496,-0.015128,1.045296,-1.120000,-2.380000,-0.560000
9.484356,0.142984,-0.002928,0.856440,1.960000,-2.380000,-0.140000
9.492443,0.310368,0.013176,1.138992,3.080000,1.260000,-1.260000
9.500531,0.260104,-0.015616,0.983320,-1.260000,-0.280000,-1.540000
9.508618,0.090768,0.018544,0.839360,0.420000,-1.400000,0.000000
9.516705,0.267912,-0.042944,0.963800,2.800000,0.140000,-0.560000
9.524793,0.343552,0.058072,1.223904,1.820000,-1.680000,-0.840000
9.532880,0.056608,-0.031720,0.860832,-0.980000,1.120000,-0.840000
9.540967,0.205936,-0.053192,0.792512,1.260000,2.520000,-0.700000
9.549055,0.392352,0.050264,1.257088,2.100000,-6.580000,0.000000
9.557142,0.101504,-0.001464,0.966728,-0.560000,0.140000,-1.260000
9.565229,0.148840,-0.007320,0.807640,1.120000,6.440000,-1.400000
9.573317,0.387472,-0.033184,1.076528,0.840000,-6.860000,-0.140000
9.581404,0.169824,0.021472,1.032608,0.980000,-3.220000,-0.980000
9.589491,0.092232,0.028792,0.996984,1.260000,7.560000,-1.540000
9.597579,0.338184,-0.046848,0.931592,0.420000,-3.920000,-0.980000
9.605666,0.194224,0.005856,0.932080,1.680000,-7.280000,-0.140000
9.613753,0.223016,0.005856,1.083848,1.260000,4.340000,-1.680000
9.621841,0.290360,0.034160,1.097024,0.700000,-1.540000,-1.120000
9.629928,0.034648,-0.029280,0.744200,0.560000,-2.380000,-0.140000
9.638015,0.341112,-0.063440,1.035048,1.820000,1.260000,-1.260000
9.646103,0.336720,0.084912,1.221464,0.840000,-7.420000,-0.700000
9.654190,-0.084912,-0.038552,0.663680,-0.980000,5.040000,-1.820000
9.662277,0.391376,-0.015616,1.077504,2.380000,-1.680000,-0.980000
9.670365,0.375760,0.034160,1.216584,2.380000,-13.020000,0.000000
9.678452,-0.055144,-0.041480,0.727608,-1.120000,9.380000,-1.400000
9.686539,0.403088,0.024888,1.049688,2.800000,0.140000,-0.980000
9.694627,0.257664,-0.012200,1.012600,0.560000,-13.720000,-0.140000
9.702714,0.033672,0.005856,0.937448,0.280000,8.120000,-1.820000
9.710802,0.489952,-0.006344,1.175104,2.940000,0.140000,-1.820000
9.718889,0.041968,-0.026840,0.722728,-0.560000,-10.360000,0.560000
9.726976,0.123464,0.016592,0.985272,1.400000,6.160000,-2.380000
9.735064,0.575352,0.011224,1.350296,1.960000,-5.600000,-1.400000
9.743151,-0.102968,-0.003416,0.637816,-0.980000,-1.820000,-0.560000
9.751238,0.253272,-0.011712,0.887184,1.960000,7.280000,-1.680000
9.759326,0.573400,0.010736,1.354688,0.980000,-12.880000,-0.280000
9.767413,-0.242536,0.024888,0.730536,-0.700000,6.300000,-1.400000
9.775500,0.415776,-0.042944,0.982344,3.080000,6.300000,-2.100000
9.783588,0.499712,0.021960,1.206824,1.960000,-19.460001,1.120000
9.791675,-0.225944,-0.022448,0.730536,-2.520000,13.160000,-3.500000
9.799762,0.523624,0.000976,1.128744,3.220000,4.200000,-2.100000
9.807850,0.176168,0.015128,0.935008,1.260000,-18.340000,1.120000
9.815937,-0.000976,0.001952,0.848144,-1.820000,13.300000,-4.480000
9.824024,0.680272,-0.020008,1.376160,0.420000,-1.820000,-2.380000
9.832112,-0.160552,-0.001464,0.596336,2.380000,-4.620000,-1.260000
9.840199,0.284016,0.015128,0.932568,-0.140000,8.960000,-1.960000
9.848286,0.643672,-0.001952,1.438136,1.680000,-11.060000,-1.120000
9.856374,-0.403576,-0.010736,0.548024,-0.700000,8.960000,-1.960000
9.864461,0.526064,-0.002440,0.962824,2.520000,3.780000,-2.240000
9.872548,0.489952,0.029280,1.402024,0.140000,-17.360001,-0.980000
9.880636,-0.302560,-0.035624,0.579744,-1.820000,17.920000,-2.940000
9.888723,0.626104,0.002928,1.146312,2.380000,3.500000,-1.120000
9.896810,0.204472,0.009760,1.010648,1.680000,-16.660000,0.280000
9.904898,-0.046360,-0.037576,0.834480,-2.520000,17.500000,-3.500000
9.912985,0.641232,0.041968,1.215608,3.920000,-1.540000,-1.260000
9.921072,-0.107848,-0.012200,0.702720,0.840000,-9.940000,-0.980000
9.929160,0.261080,0.060024,1.087264,-0.840000,12.460000,-3.080000
9.937247,0.576328,-0.046360,1.369328,0.140000,-6.020000,-2.100000
9.945334,-0.341112,-0.070760,0.361608,1.680000,5.460000,-1.260000
9.953422,0.599264,0.060512,1.146312,1.260000,6.160000,-2.240000
9.961509,0.476288,0.010736,1.336144,-1.680000,-11.060000,-1.960000
9.969597,-0.382104,-0.058560,0.458232,-1.260000,18.760000,-2.380000
9.977684,0.704184,0.026840,1.214144,4.480000,2.940000,-0.980000
9.985771,0.194224,0.057096,1.256112,-1.400000,-14.000000,-1.540000
9.993859,-0.217648,-0.044896,0.607072,-1.540000,18.760000,-2.800000
10.001946,0.766648,0.006344,1.241472,4.340000,-2.380000,-1.120000
10.010033,-0.051728,-0.019032,0.829112,-1.120000,-9.660000,-1.120000
10.018121,0.136640,0.014152,0.990640,-0.140000,19.600000,-3.920000
10.026208,0.683688,-0.007320,1.269776,1.960000,-6.020000,-1.120000
10.034295,-0.327448,-0.038064,0.468968,-1.400000,1.820000,-1.540000
10.042383,0.423584,0.068320,1.178520,2.240000,14.140000,-4.480000
10.050470,0.509960,-0.016592,1.319064,-2.100000,-13.440001,-0.840000
10.058557,-0.335744,-0.047824,0.459208,1.120000,13.300000,-3.220000
10.066645,0.636352,0.075640,1.308816,2.940000,6.720000,-2.520000
10.074732,0.222040,-0.037576,1.078480,-1.960000,-14.560000,-1.400000
10.082819,-0.097112,-0.025376,0.653432,0.000000,18.760000,-3.220000
10.090907,0.735904,0.026352,1.399584,2.940000,-2.240000,-1.400000
10.098994,-0.209840,-0.021960,0.741760,-2.240000,-4.620000,0.280000
10.107081,0.204472,0.030256,0.820816,3.080000,17.360001,-3.640000
10.115169,0.660752,0.005856,1.457168,0.840000,-9.520000,-0.560000
10.123256,-0.286456,0.004392,0.530944,-2.520000,8.120000,-4.200000
10.131343,0.358680,-0.003904,0.995032,1.400000,14.840000,-1.540000
10.139431,0.569008,-0.067832,1.311744,2.240000,-10.080000,-0.140000
10.147518,-0.228872,0.040016,0.658312,-0.840000,6.020000,-1.540000
10.155605,0.397720,0.020496,1.076040,2.660000,13.160000,-2.660000
10.163693,0.450424,-0.061000,1.254648,-0.420000,-8.540000,0.280000
10.171780,-0.188856,0.052216,0.609024,1.540000,1.820000,-0.980000
10.179867,0.356240,0.033184,1.097512,1.960000,12.180000,-1.540000
10.187955,0.455792,-0.064904,1.284416,-2.520000,-6.020000,-0.560000
10.196042,-0.182512,-0.012200,0.580720,0.700000,4.620000,-0.560000
10.204129,0.357216,0.022936,1.044808,3.920000,8.960000,-1.540000
10.212217,0.502640,-0.010736,1.363960,-0.280000,-6.020000,-0.280000
10.220304,-0.151280,0.011712,0.684664,-1.120000,1.260000,-0.980000
10.228391,0.243512,-0.032208,0.809592,3.080000,8.820000,-0.980000
10.236479,0.520696,0.034648,1.407392,3.080000,-5.880000,0.140000
10.244566,-0.005368,0.009760,0.884256,-3.080000,-1.680000,-0.280000
10.252653,0.075640,-0.015616,0.666608,2.240000,10.360000,-1.680000
10.260741,0.518256,0.000000,1.290272,4.060000,-3.080000,0.980000
10.268828,0.150304,-0.021472,1.045784,-1.960000,-5.040000,-0.700000
10.276915,-0.000976,0.031720,0.776408,0.140000,9.520000,-1.680000
10.285003,0.408456,-0.048312,1.064816,3.220000,0.700000,0.280000
10.293090,0.292800,-0.041968,1.077504,0.000000,-7.420000,-0.140000
10.301177,0.005368,0.060024,0.843264,0.420000,3.360000,-1.400000
10.309265,0.278160,0.013664,1.045296,2.240000,5.040000,-0.840000
10.317352,0.354288,-0.031232,1.093608,-0.420000,-4.900000,-0.140000
10.325439,0.071248,0.019032,0.849608,2.100000,-1.400000,-0.280000
10.333527,0.213744,0.008784,0.953064,1.540000,7.000000,-1.260000
10.341614,0.384544,0.005368,1.202920,-0.420000,-0.980000,-0.700000
10.349701,0.101504,-0.053680,0.904752,0.000000,-1.820000,-0.700000
10.357789,0.130296,0.015128,0.784704,2.100000,4.620000,-1.120000
10.365876,0.398696,0.027328,1.159976,2.520000,0.280000,-0.280000
10.373963,0.197640,-0.001952,1.056032,-1.540000,-1.540000,-0.560000
10.382051,0.068808,-0.024888,0.753472,0.000000,5.180000,-1.260000
10.390138,0.293776,0.032696,1.093608,3.780000,2.380000,0.140000
10.398226,0.302072,-0.043920,1.094096,0.420000,-2.100000,-0.280000
10.406313,0.125416,0.033672,0.929152,-0.560000,1.680000,-1.120000
10.414400,0.171288,-0.003904,0.937936,1.400000,6.440000,-0.560000
10.422488,0.331352,-0.070272,1.011624,1.820000,-2.100000,-0.140000
10.430575,0.212280,0.017080,0.993080,0.420000,-3.500000,-0.560000
10.438662,0.106384,0.031232,0.916952,0.140000,6.160000,-1.960000
10.446750,0.280112,-0.005368,1.059448,1.540000,2.660000,-0.420000
10.454837,0.244000,-0.022448,1.003816,0.280000,-2.100000,0.000000
10.462924,0.122488,-0.003904,0.908168,0.700000,2.380000,-1.260000
10.471012,0.249368,0.036112,1.046760,2.660000,2.940000,-0.980000
10.479099,0.300120,-0.012200,1.089216,-0.420000,-0.560000,-0.700000
10.487186,0.130784,-0.051240,0.884256,-0.140000,0.560000,-0.980000
10.495274,0.216184,0.013664,0.916952,2.380000,1.540000,-0.420000
10.503361,0.271328,0.015128,1.105320,2.240000,0.700000,-1.120000
10.511448,0.228384,-0.030744,0.968192,-1.120000,-0.140000,-0.980000
10.519536,0.120536,0.030256,0.899872,0.420000,2.100000,-1.120000
10.527623,0.253760,-0.020984,0.988688,2.660000,3.220000,-0.700000
10.535710,0.276208,-0.001952,1.094584,1.260000,-3.360000,-0.280000
10.543798,0.170800,0.038064,1.025776,-1.400000,0.560000,-1.960000
10.551885,0.135664,-0.020984,0.895480,0.700000,4.480000,-1.400000
10.559972,0.284016,-0.031232,0.992592,2.100000,-1.960000,-0.420000
10.568060,0.256200,0.002440,1.034072,0.700000,-0.420000,-1.400000
10.576147,0.163480,-0.007808,0.935496,0.000000,1.820000,-1.960000
10.584234,0.232776,0.002928,1.008696,0.420000,2.520000,-1.540000
10.592322,0.193248,-0.030744,0.990152,1.540000,-1.120000,-0.840000
10.600409,0.232288,0.000488,0.913048,0.280000,-1.960000,-1.120000
10.608496,0.184464,0.051240,1.072624,1.540000,1.820000,-1.260000
10.616584,0.246928,-0.001952,1.016504,1.120000,1.680000,-0.980000
10.624671,0.202520,-0.025376,0.933544,-0.560000,-0.560000,-0.980000
10.632758,0.183976,-0.004392,0.950136,2.240000,1.120000,-1.120000
10.640846,0.250344,0.012688,1.063352,1.820000,0.140000,-1.260000
10.648933,0.250344,0.011712,1.031144,-2.380000,0.700000,-1.960000
10.657020,0.147864,-0.050264,0.935984,1.120000,1.120000,-1.120000
10.665108,0.223504,-0.008296,0.906704,1.960000,0.280000,-1.260000
10.673195,0.284992,0.022448,1.079944,1.120000,-1.120000,-1.680000
10.681282,0.161528,0.019032,1.013576,0.420000,0.980000,-1.540000
10.689370,0.182512,-0.028792,0.887184,-0.140000,1.120000,-1.260000
10.697457,0.262056,0.000488,1.008208,1.260000,-0.980000,-1.540000
10.705544,0.192272,-0.008784,1.061888,1.260000,-0.420000,-1.260000
10.713632,0.194712,0.025864,0.976488,-0.840000,-0.840000,-1.820000
10.721719,0.202032,0.007320,0.973072,1.540000,1.680000,-1.540000
10.729806,0.225456,-0.050264,0.965752,1.120000,-0.700000,-0.980000
10.737894,0.248880,0.022448,0.997960,1.540000,-1.680000,-1.120000
10.745981,0.198128,0.020008,1.011624,0.140000,1.960000,-1.820000
10.754068,0.221552,-0.043920,0.946720,-0.140000,1.120000,-1.820000
10.762156,0.235704,-0.018056,0.971608,1.960000,-1.820000,-1.260000
10.770243,0.181536,0.034648,1.005768,1.260000,0.420000,-1.680000
10.778330,0.221552,-0.007808,1.017480,-0.840000,0.700000,-2.380000
10.786418,0.207400,0.019520,0.995032,1.260000,-0.280000,-1.540000
10.794505,0.183488,-0.024888,0.952576,0.700000,0.280000,-1.540000
10.802592,0.238632,-0.010248,0.991616,1.680000,-1.680000,-1.960000
10.810680,0.252784,0.043920,1.069696,0.000000,0.700000,-2.240000
10.818767,0.177632,-0.037088,0.927688,-0.980000,0.980000,-1.680000
10.826854,0.200080,-0.028792,0.918904,1.820000,-0.280000,-1.540000
10.834942,0.268400,0.013664,1.041880,1.960000,-0.140000,-1.960000
10.843029,0.228384,-0.002440,1.015040,-0.700000,0.700000,-2.380000
10.851116,0.180560,-0.000976,0.931592,0.280000,1.260000,-2.240000
10.859204,0.213744,-0.022936,0.927200,1.260000,1.260000,-1.680000
10.867291,0.251808,0.005368,1.073600,1.120000,-1.120000,-1.680000
10.875378,0.203496,0.028792,1.010648,0.140000,0.000000,-2.940000
10.883466,0.170312,-0.005856,0.942328,0.000000,2.240000,-2.520000
10.891553,0.242536,-0.035624,0.981856,1.540000,0.140000,-1.960000
10.899640,0.235704,0.048800,1.082872,1.820000,-1.960000,-2.100000
10.907728,0.194224,-0.020496,0.935496,-1.540000,1.820000,-2.940000
10.915815,0.221552,-0.004392,0.983320,0.980000,0.840000,-1.540000
10.923902,0.244000,-0.014152,0.963800,1.680000,-0.840000,-1.260000
10.931990,0.218136,-0.009272,1.006256,0.000000,0.560000,-2.520000
10.940077,0.209840,0.022448,1.024800,0.280000,1.400000,-2.380000
10.948164,0.196176,-0.017568,0.916952,0.140000,0.560000,-1.680000
10.956252,0.249368,-0.028792,0.966240,0.980000,-1.960000,-1.540000
10.964339,0.210816,0.040504,1.051640,1.540000,0.560000,-1.960000
10.972426,0.172264,0.020008,0.978440,-0.140000,2.380000,-1.960000
10.980514,0.233264,-0.040504,0.955504,-0.280000,0.000000,-1.540000
10.988601,0.221552,0.017568,0.998448,2.660000,-1.540000,-0.980000
10.996688,0.211792,0.004392,1.020408,0.700000,1.260000,-1.960000
11.004776,0.241072,-0.000488,1.011136,-0.280000,0.840000,-1.680000
11.012863,0.200080,-0.021472,0.940376,0.700000,-0.280000,-0.980000
11.020950,0.224968,-0.026840,0.911096,1.400000,-0.140000,-0.980000
11.029038,0.260104,0.028304,1.096048,1.960000,0.140000,-1.120000
11.037125,0.175680,0.015616,1.016504,-0.280000,1.820000,-1.820000
11.045212,0.171776,-0.025864,0.868152,-0.560000,1.260000,-0.980000
11.053300,0.254736,0.011224,1.017480,2.940000,-1.960000,-0.560000
11.061387,0.221064,0.018056,1.088728,0.560000,0.280000,-1.260000
11.069475,0.200568,-0.008784,0.972096,-0.280000,0.000000,-1.820000
11.077562,0.184952,-0.025864,0.913048,0.980000,1.400000,-1.260000
11.085649,0.285968,-0.035136,0.950136,1.400000,-0.280000,-1.540000
11.093737,0.250344,0.028792,1.084824,0.980000,-1.540000,-1.400000
11.101824,0.141032,0.016104,0.982832,-0.140000,2.380000,-1.960000
11.109911,0.222528,-0.030744,0.898896,0.280000,1.260000,-1.120000
11.117998,0.236192,0.003904,1.015528,2.240000,-1.820000,-0.700000
11.126086,0.201544,0.020496,1.073600,0.420000,-0.700000,-1.540000
11.134173,0.204472,0.006344,0.937936,0.280000,1.400000,-1.540000
11.142260,0.228872,-0.034160,1.008208,0.560000,0.700000,-1.260000
11.150348,0.222040,-0.034648,0.909632,1.540000,-2.240000,-0.840000
11.158435,0.240584,0.046360,1.033584,0.560000,-0.560000,-1.960000
11.166522,0.177144,0.001952,1.001376,0.420000,2.240000,-1.960000
11.174610,0.246928,-0.037088,0.951112,1.120000,-0.700000,-1.400000
11.182697,0.224968,0.036600,0.989176,1.960000,-2.380000,-0.700000
11.190784,0.188856,0.010248,1.021872,-0.140000,2.940000,-1.960000
11.198872,0.243512,-0.016104,1.018944,0.700000,1.400000,-1.540000
11.206959,0.221064,-0.043432,0.910120,0.980000,-0.840000,-1.260000
11.215046,0.212280,0.001464,0.947208,0.420000,-0.700000,-1.960000
11.223134,0.225944,0.039040,1.089216,1.120000,1.540000,-2.100000
11.231221,0.197152,-0.016592,1.004304,0.980000,0.700000,-1.400000
11.239308,0.201544,-0.007808,0.915000,0.140000,-2.380000,-1.260000
11.247396,0.239120,0.006832,1.041392,1.960000,1.400000,-1.820000
11.255483,0.256200,-0.008784,1.014552,0.000000,0.280000,-1.960000
11.263570,0.164944,-0.002928,0.879376,-0.980000,-0.560000,-1.540000
11.271658,0.219600,-0.021472,0.958432,2.240000,-0.700000,-1.260000
11.279745,0.279624,0.028304,1.094584,1.540000,0.700000,-1.960000
11.287832,0.170312,0.027816,1.040416,-0.420000,1.820000,-1.960000
11.295920,0.173728,-0.068808,0.838384,0.140000,0.840000,-1.960000
11.304007,0.321592,0.020008,1.034072,1.820000,-1.120000,-1.540000
11.312094,0.231312,0.012200,1.075064,0.280000,0.280000,-2.240000
11.320182,0.115168,-0.018544,0.854488,-0.700000,3.080000,-2.380000
11.328269,0.224968,0.015616,1.005280,2.380000,-0.840000,-1.680000
11.336356,0.293776,-0.037088,1.091168,0.700000,-1.120000,-2.100000
11.344444,0.176656,0.031720,0.987712,-0.420000,1.540000,-2.940000
11.352531,0.177144,-0.030744,0.875472,-0.280000,4.480000,-3.080000
11.360618,0.299144,-0.057096,0.989664,2.100000,-2.520000,-2.380000
11.368706,0.218136,0.067344,1.100928,0.700000,-0.140000,-3.220000
11.376793,0.129808,-0.009760,0.891088,-0.420000,5.320000,-3.500000
11.384880,0.244000,-0.040992,0.946720,1.540000,-1.260000,-2.520000
11.392968,0.270352,0.047336,1.110688,1.400000,-3.360000,-2.520000
11.401055,0.166896,0.012200,0.962824,-0.840000,3.080000,-3.500000
11.409142,0.213256,-0.003904,0.935008,-0.140000,2.800000,-2.520000
11.417230,0.302560,-0.044408,0.997960,1.960000,-2.660000,-1.400000
11.425317,0.196176,0.016104,0.987712,0.420000,0.420000,-1.960000
11.433404,0.207888,0.038064,0.997960,0.140000,3.500000,-2.100000
11.441492,0.202032,-0.029280,0.932568,1.400000,1.960000,-0.980000
11.449579,0.231800,0.004880,0.965264,0.280000,-3.500000,-0.420000
11.457666,0.184952,0.030744,1.102880,1.120000,0.840000,-1.260000
11.465754,0.211792,-0.018056,0.968192,0.700000,4.760000,-1.680000
11.473841,0.264496,-0.024888,0.940864,0.280000,-1.540000,-0.840000
11.481928,0.206912,-0.012688,0.969656,1.400000,-1.120000,-1.120000
11.490016,0.220088,0.040992,1.013576,1.120000,2.380000,-1.400000
11.498103,0.212768,0.025864,1.054080,-0.280000,0.000000,-0.840000
11.506190,0.183976,-0.086376,0.919392,0.980000,-1.260000,-0.700000
11.514278,0.274744,0.024400,0.997472,2.100000,-1.260000,-1.260000
11.522365,0.239608,0.035624,1.040904,0.980000,2.100000,-1.260000
11.530452,0.209352,-0.038552,0.905728,-0.280000,1.120000,-0.980000
11.538540,0.172264,0.000000,0.933544,2.100000,-1.120000,-0.280000
11.546627,0.237656,0.004880,1.080432,1.540000,0.840000,-1.400000
11.554714,0.241560,0.017080,1.049200,0.000000,1.260000,-1.540000
11.562802,0.170312,-0.025864,0.899872,0.280000,0.560000,-0.980000
11.570889,0.240096,-0.035624,0.891088,0.840000,-0.420000,-0.700000
11.578976,0.264496,0.060024,1.156560,2.520000,-1.120000,-0.980000
11.587064,0.152256,0.005368,0.979904,-0.840000,1.960000,-1.680000
11.595151,0.179096,-0.017568,0.859856,0.280000,1.540000,-0.700000
11.603238,0.337208,-0.030744,1.059448,2.940000,-1.820000,-0.700000
11.611326,0.220576,0.019520,1.029192,0.000000,0.700000,-1.540000
11.619413,0.108336,0.029280,0.894504,-0.280000,2.800000,-0.700000
11.627500,0.233752,-0.053680,0.949648,1.120000,0.000000,-0.280000
11.635588,0.323544,-0.004392,1.092632,1.820000,-2.800000,-0.560000
11.643675,0.172264,0.041968,1.018456,0.000000,3.500000,-1.540000
11.651762,0.147864,-0.018056,0.862784,0.140000,4.480000,-1.120000
11.659850,0.290848,-0.012200,0.988200,1.680000,-3.920000,0.000000
11.667937,0.206912,0.015128,1.116056,1.260000,-1.120000,-0.840000
11.676024,0.153232,0.011224,0.923784,-0.140000,4.480000,-1.260000
11.684112,0.265472,-0.028304,0.953064,1.260000,0.560000,-0.840000
11.692199,0.263032,-0.041968,0.958920,0.000000,-3.640000,-0.420000
11.700286,0.191784,0.043920,1.075552,2.100000,-0.560000,-0.840000
11.708374,0.172264,0.017568,1.014064,1.260000,5.040000,-1.680000
11.716461,0.264008,-0.021960,0.937448,-0.700000,-1.960000,-0.280000
11.724548,0.241560,-0.023912,0.952088,2.100000,-2.800000,-0.140000
11.732636,0.211304,0.003904,1.016016,1.540000,3.780000,-1.540000
11.740723,0.225456,0.037088,1.034560,0.000000,1.400000,-1.120000
11.748810,0.155672,-0.035624,0.906704,-0.420000,-0.840000,-0.560000
11.756898,0.249368,0.000000,0.938424,2.520000,-0.420000,-0.420000
11.764985,0.296216,0.028792,1.143872,1.680000,2.660000,-1.400000
11.773072,0.177632,-0.027328,0.915488,-1.400000,2.240000,-1.120000
11.781160,0.145912,-0.008296,0.876448,1.960000,-0.280000,0.000000
11.789247,0.290360,0.008296,1.073600,2.520000,0.420000,-0.840000
11.797334,0.262544,0.030744,1.116056,-0.840000,0.840000,-1.400000
11.805422,0.115168,-0.004392,0.907680,0.700000,1.260000,-0.420000
11.813509,0.244488,-0.070760,0.851072,1.260000,0.840000,-0.700000
11.821596,0.310368,0.055632,1.150704,2.520000,-2.240000,-0.840000
11.829684,0.130784,0.019032,0.980880,-1.260000,2.940000,-1.120000
11.837771,0.171288,-0.025376,0.856928,0.840000,2.380000,-0.560000
11.845858,0.326472,-0.027328,1.073112,2.520000,-1.540000,-0.420000
11.853946,0.235704,-0.008784,1.010648,-0.140000,0.280000,-1.260000
11.862033,0.108336,0.045384,0.897432,0.560000,4.340000,-0.980000
11.870120,0.236680,-0.013664,0.982832,0.980000,3.360000,-0.980000
11.878208,0.275720,-0.012200,1.068232,0.840000,-3.780000,0.140000
11.886295,0.180072,-0.008296,0.980392,1.120000,0.980000,-0.560000
11.894382,0.199104,0.002928,0.893528,0.420000,6.440000,-1.540000
11.902470,0.278648,-0.002928,1.040416,0.840000,-0.700000,-0.280000
11.910557,0.179096,-0.030744,0.996984,1.960000,-1.260000,-0.140000
11.918644,0.184464,0.065392,0.971608,1.120000,3.640000,-0.980000
11.926732,0.271816,-0.020496,1.077992,0.980000,1.960000,-0.840000
11.934819,0.231312,-0.049776,0.894016,0.000000,-0.140000,-0.420000
11.942906,0.172752,0.023424,0.925248,1.400000,-0.140000,-0.280000
11.950994,0.202032,0.009272,1.092144,2.100000,2.520000,-0.840000
11.959081,0.268400,0.016104,1.069696,0.280000,-0.840000,-0.980000
11.967168,0.180072,-0.034648,0.902312,0.140000,0.000000,-0.700000
11.975256,0.219600,-0.038064,0.863272,1.540000,1.400000,-0.840000
11.983343,0.294264,0.064904,1.139480,2.380000,-0.980000,-0.560000
11.991430,0.176168,-0.010736,0.991128,-1.260000,1.540000,-1.120000
11.999517,0.160064,-0.004880,0.887672,0.560000,2.380000,-0.280000
12.007605,0.252784,-0.003904,1.019920,3.220000,-0.700000,-0.140000
12.015692,0.282552,-0.008296,1.083360,0.560000,0.560000,-0.980000
12.023779,0.173240,0.013176,0.931592,-0.420000,0.980000,-0.560000
12.031867,0.170312,-0.022936,0.923296,1.260000,2.800000,-0.560000
12.039954,0.250832,-0.012688,0.992592,1.540000,-2.100000,0.000000
12.048041,0.245464,0.045872,1.115568,1.400000,-1.120000,-0.840000
12.056129,0.136640,-0.011712,0.909632,-0.980000,4.060000,-0.980000
12.064216,0.262056,-0.038064,0.922320,2.240000,0.280000,-0.140000
12.072303,0.274256,-0.007320,1.001376,1.960000,-1.680000,-0.280000
12.080391,0.178608,0.046848,1.051152,0.420000,0.980000,-0.980000
12.088478,0.163968,0.019520,0.996496,0.980000,2.660000,-0.840000
12.096565,0.267424,-0.046360,0.919880,0.560000,1.260000,-0.560000
12.104653,0.232288,-0.008784,1.006256,1.260000,-1.260000,-0.280000
12.112740,0.177144,0.020984,1.017480,1.400000,1.260000,-0.980000
12.120827,0.217160,-0.023424,0.944768,-0.700000,1.960000,-0.840000
12.128915,0.243024,-0.000488,1.040904,1.540000,-1.680000,-0.280000
12.137002,0.208864,-0.009760,0.938912,1.680000,-0.420000,-0.420000
12.145089,0.229848,0.031232,1.052128,1.680000,1.120000,-0.700000
12.153177,0.240584,-0.015128,0.982344,0.700000,1.680000,-0.840000
12.161264,0.168360,-0.032208,0.901824,-0.700000,1.820000,-0.560000
12.169351,0.228872,0.004880,0.952576,2.660000,-1.820000,0.280000
12.177439,0.248880,0.039528,1.110200,1.540000,2.100000,-0.840000
12.185526,0.220576,-0.010736,0.993568,-1.260000,1.820000,-1.400000
12.193613,0.168360,-0.036112,0.896944,1.540000,1.540000,-0.280000
12.201701,0.258152,-0.016104,0.933544,1.680000,0.420000,-0.560000
12.209788,0.243024,0.061488,1.139480,1.540000,-0.560000,-0.560000
12.217875,0.140056,-0.019032,0.961360,-0.560000,2.100000,-0.980000
12.225963,0.204472,-0.019032,0.904264,0.980000,1.260000,-0.560000
12.234050,0.291824,-0.001464,1.060912,2.240000,-0.840000,-0.420000
12.242137,0.203984,-0.010736,0.982832,0.420000,1.260000,-0.980000
12.250225,0.199104,0.026840,0.937936,-0.420000,2.660000,-0.840000
12.258312,0.203496,-0.022448,0.992592,1.120000,2.800000,-0.560000
12.266399,0.244000,-0.020984,0.972096,1.820000,-2.380000,-0.280000
12.274487,0.203984,0.059048,1.090192,1.260000,0.140000,-0.980000
12.282574,0.194712,-0.030256,0.962336,0.000000,3.640000,-1.120000
12.290661,0.256688,-0.025864,0.923296,0.700000,-0.140000,-0.700000
12.298748,0.192760,-0.011224,0.984784,1.820000,-1.260000,-0.560000
12.306836,0.201544,0.028792,0.982344,1.120000,0.280000,-0.560000
12.314923,0.219600,0.031720,1.067256,0.420000,1.680000,-0.980000
12.323010,0.204472,-0.050264,0.976000,0.140000,0.000000,-0.560000
12.331098,0.234728,-0.005856,0.908656,1.400000,-1.540000,-0.140000
12.339185,0.223016,0.016592,1.047248,1.960000,0.700000,-0.840000
12.347272,0.244488,-0.032696,0.990152,0.560000,0.700000,-1.120000
12.355360,0.188368,0.054168,0.975024,0.280000,0.000000,-0.560000
12.363447,0.170800,-0.041480,0.944280,1.400000,1.120000,-0.140000
12.371534,0.293288,-0.000488,1.080920,2.380000,-1.680000,-0.420000
12.379622,0.229360,0.016104,0.982832,-0.140000,1.260000,-1.400000
12.387709,0.176656,-0.023424,0.892064,-0.560000,1.820000,-0.700000
12.395796,0.218624,0.006344,0.985760,2.940000,-0.700000,0.140000
12.403884,0.241560,0.012688,1.091168,0.840000,0.000000,-0.980000
12.411971,0.189832,0.013176,0.988200,0.000000,0.560000,-0.280000
12.420058,0.202520,-0.013176,0.913536,1.680000,2.100000,-0.700000
12.428146,0.242048,-0.024888,0.955504,0.280000,0.420000,-0.140000
12.436233,0.241072,0.000000,1.074088,2.380000,-2.940000,-0.140000
12.444320,0.172264,0.035624,0.966240,0.000000,2.940000,-1.400000
12.452408,0.201056,-0.003416,0.941352,-0.280000,2.100000,-0.840000
12.460495,0.271816,-0.057584,1.009672,2.380000,-2.100000,0.140000
12.468582,0.235704,0.008784,1.018944,1.400000,-0.840000,-1.260000
12.476670,0.185928,0.032208,0.963800,0.140000,2.100000,-1.120000
12.484757,0.193248,0.005368,0.969656,0.560000,2.800000,-0.560000
12.492844,0.243512,-0.035624,0.985760,1.260000,-2.380000,0.280000
12.500932,0.206912,0.018056,1.055056,1.820000,0.840000,-0.980000
12.509019,0.219600,-0.015616,0.921832,0.280000,3.080000,-1.120000
12.517106,0.240096,0.020984,0.983320,0.280000,-0.420000,-0.420000
12.525194,0.180072,-0.040016,0.946720,1.540000,0.140000,-0.280000
12.533281,0.224968,0.045872,1.059448,1.540000,0.280000,-0.840000
12.541368,0.244976,-0.012200,1.031632,0.840000,1.400000,-0.980000
12.549455,0.200568,-0.030256,0.909632,-1.120000,1.960000,-0.980000
12.557543,0.203496,-0.005368,0.903288,2.380000,-0.560000,0.140000
12.565630,0.237656,0.018544,1.073112,2.380000,0.700000,-0.420000
12.573717,0.210816,0.020008,1.046272,-0.560000,0.840000,-0.840000
12.581805,0.190808,-0.015616,0.942328,0.980000,0.420000,-0.560000
12.589892,0.242048,-0.052704,0.898408,1.120000,1.540000,-0.840000
12.597979,0.272792,0.023912,1.083848,2.520000,-0.560000,-0.140000
12.606067,0.189344,0.018544,0.994544,-0.700000,2.520000,-1.120000
12.614154,0.164456,-0.006344,0.922320,-0.280000,2.380000,-0.700000
12.622241,0.236680,-0.011712,1.000888,2.800000,0.000000,0.140000
12.630329,0.245952,-0.014152,1.026264,1.120000,-0.140000,-0.980000
12.638416,0.204960,0.041968,1.019920,-0.140000,1.540000,-1.260000
12.646503,0.215696,-0.010248,0.980392,1.260000,3.220000,-0.840000
12.654591,0.219112,-0.054168,0.876448,0.420000,0.420000,-0.140000
12.662678,0.220576,0.022936,1.000400,1.540000,-0.140000,-0.420000
12.670765,0.189344,0.019032,1.063352,1.400000,2.100000,-0.840000
12.678853,0.219112,-0.006832,0.983320,-0.280000,2.100000,-1.260000
12.686940,0.210328,-0.008296,1.012112,1.260000,-0.140000,-0.420000
12.695027,0.222040,-0.035624,0.895968,2.100000,-0.840000,-0.560000
12.703115,0.230336,0.038552,1.059936,1.120000,1.260000,-0.980000
12.711202,0.233264,-0.014152,1.002840,0.420000,0.700000,-0.840000
12.719289,0.181536,-0.004392,0.915976,-0.280000,1.820000,-0.840000
12.727377,0.207400,0.002928,0.961848,1.960000,0.140000,-0.420000
12.735464,0.227896,-0.007320,1.071160,1.400000,0.140000,-0.700000
12.743551,0.239120,0.025376,1.035536,-0.280000,0.000000,-1.120000
12.751639,0.192272,0.012200,0.933544,1.120000,1.960000,-0.560000
12.759726,0.189832,-0.054656,0.921344,0.420000,2.100000,-0.420000
12.767813,0.281088,-0.014640,1.007720,2.660000,-2.940000,-0.280000
12.775901,0.204472,0.047824,1.074576,-0.140000,0.280000,-0.980000
12.783988,0.151280,-0.008784,0.926712,-0.140000,2.520000,-0.840000
12.792075,0.239120,0.000000,0.995520,1.820000,0.840000,-0.280000
12.800163,0.257664,-0.024400,0.979416,1.260000,-0.700000,-0.560000
12.808250,0.195200,0.019032,1.018456,1.120000,0.140000,-0.280000
12.816337,0.209840,0.001952,0.971120,0.560000,2.240000,-1.120000
12.824424,0.220088,-0.020008,0.960872,0.000000,1.120000,-0.560000
12.832512,0.201056,-0.001952,0.979904,2.380000,-2.100000,0.280000
12.840599,0.220576,0.005368,1.014552,1.260000,0.700000,-1.120000
12.848686,0.236192,0.038552,1.020408,0.140000,1.260000,-0.980000
12.856774,0.214232,-0.033672,1.010160,0.700000,2.380000,-0.560000
12.864861,0.193736,-0.063928,0.844240,0.700000,0.140000,-0.560000
12.872948,0.243512,0.031232,0.999424,2.100000,-0.840000,-0.420000
12.881036,0.224480,0.028304,1.090192,1.260000,1.260000,-0.700000
12.889123,0.199104,0.002928,0.987224,-0.420000,1.400000,-0.980000
12.897210,0.175680,-0.022448,0.969656,1.400000,0.840000,-0.420000
12.905298,0.253272,-0.021472,0.938424,2.100000,-0.140000,-0.840000
12.913385,0.267424,0.041480,1.077016,1.120000,-0.840000,-0.840000
12.921472,0.189832,-0.010248,0.986736,-0.280000,1.820000,-0.980000
12.929560,0.181048,-0.027816,0.870104,-0.140000,2.520000,-0.840000
12.937647,0.197640,0.020008,1.040904,2.660000,-1.120000,0.000000
12.945734,0.259128,-0.006344,1.048224,1.540000,-1.120000,-0.840000
12.953822,0.209840,0.029768,0.994056,-0.560000,0.420000,-1.120000
12.961909,0.191784,-0.013176,0.956480,0.980000,2.380000,-0.980000
12.969996,0.242048,-0.064904,0.901336,1.400000,0.700000,-0.280000
12.978084,0.244488,0.029280,0.999424,1.400000,-1.400000,-0.700000
12.986171,0.171776,0.023912,1.054568,0.980000,1.680000,-0.840000
12.994258,0.221064,-0.009760,0.945256,-0.420000,2.520000,-0.980000
13.002346,0.203496,0.009272,1.021872,2.100000,0.840000,-0.140000
13.010433,0.239608,-0.042944,0.937936,1.960000,-0.420000,-0.560000
13.018520,0.231800,0.042944,1.053592,1.260000,0.560000,-0.840000
13.026608,0.217648,-0.010248,1.011624,0.000000,1.960000,-1.260000
13.034695,0.205936,-0.050752,0.897920,0.000000,0.700000,-0.560000
13.042782,0.195200,0.036112,0.958432,2.100000,-0.560000,-0.140000
13.050869,0.212280,0.008784,1.047248,0.980000,1.820000,-0.560000
13.058957,0.244488,0.001952,1.057984,0.000000,0.700000,-0.980000
13.067044,0.203008,-0.000488,0.975512,0.420000,1.260000,-0.700000
13.075131,0.175192,-0.049288,0.865224,0.280000,2.660000,-0.700000
13.083219,0.303536,0.001464,0.983320,3.220000,-0.420000,-0.280000
13.091306,0.218624,0.040504,1.100928,0.140000,1.120000,-0.840000
13.099393,0.154208,-0.031232,0.905728,-0.420000,2.380000,-0.840000
13.107481,0.215696,0.012688,0.956968,2.240000,2.940000,-0.980000
13.115568,0.223016,-0.004392,1.024312,1.680000,1.400000,-0.420000
13.123655,0.236192,0.003904,1.049200,0.280000,-0.560000,-0.420000
13.131743,0.195200,0.023424,0.990640,0.280000,2.800000,-1.540000
13.139830,0.222040,-0.017568,0.957456,0.840000,4.760000,-0.840000
13.147917,0.262056,-0.050264,0.966728,1.120000,-0.280000,-0.140000
13.156005,0.170800,0.006832,0.951600,1.120000,1.400000,-0.980000
13.164092,0.214232,0.020008,0.995032,0.700000,1.960000,-0.980000
13.172179,0.209840,0.019520,1.055544,0.840000,2.100000,-0.980000
13.180267,0.213744,-0.021472,0.973560,0.420000,1.820000,-0.840000
13.188354,0.194712,0.002928,0.928664,1.260000,-0.140000,-0.280000
13.196441,0.214232,0.027816,1.042368,2.520000,2.800000,-0.840000
13.204529,0.245464,-0.023912,1.024312,-0.420000,1.680000,-0.980000
13.212616,0.211304,-0.012200,0.940376,-0.420000,0.560000,-0.840000
13.220703,0.173728,-0.024888,0.966240,2.660000,1.540000,-0.420000
13.228790,0.262056,-0.009272,0.963800,1.400000,0.560000,-0.700000
13.236878,0.228384,0.056120,1.081408,0.560000,-0.560000,-0.700000
13.244965,0.146888,-0.008296,0.971120,0.000000,3.360000,-1.120000
13.253052,0.212768,-0.019032,0.903288,0.980000,1.540000,-0.700000
13.261140,0.272792,0.013176,1.098000,2.660000,-0.980000,-0.560000
13.269227,0.192272,-0.020008,0.953064,-0.140000,1.960000,-0.840000
13.277314,0.211304,0.020008,0.964288,0.840000,2.380000,-0.980000
13.285402,0.221552,-0.013176,1.026752,0.980000,3.360000,-1.120000
13.293489,0.209352,-0.062952,0.937936,1.260000,-0.700000,-0.420000
13.301576,0.186416,0.046848,0.943304,1.120000,0.560000,-0.840000
13.309664,0.185928,0.028792,1.040416,0.980000,2.240000,-0.980000
13.317751,0.227408,-0.023424,1.013576,-0.140000,0.840000,-0.840000
13.325838,0.223016,0.009272,1.025288,0.840000,0.840000,-0.980000
13.333926,0.171288,-0.032208,0.922320,1.960000,0.980000,-0.700000
13.342013,0.258640,0.043432,0.997472,2.100000,0.000000,-0.700000
13.350100,0.244976,-0.006344,1.101416,-0.560000,1.680000,-0.980000
13.358188,0.166408,-0.051240,0.877424,-0.560000,1.680000,-0.980000
13.366275,0.205448,0.000976,0.934032,2.800000,0.840000,-0.560000
13.374362,0.262544,0.008296,1.000400,1.400000,1.960000,-0.700000
13.382449,0.209840,-0.000488,1.051152,0.280000,0.140000,-0.700000
13.390537,0.164456,0.029768,1.000888,0.560000,1.540000,-1.260000
13.398624,0.177632,-0.003416,0.949648,0.560000,3.920000,-1.120000
13.406711,0.234240,-0.038552,0.997960,1.820000,-1.540000,-0.140000
13.414799,0.247416,0.023424,1.056520,1.540000,-0.840000,-0.840000
13.422886,0.174216,-0.000976,0.920368,-0.700000,2.100000,-1.120000
13.430973,0.230336,0.000488,1.016016,0.840000,2.100000,-0.840000
13.439061,0.235216,-0.040992,0.994544,1.400000,1.260000,-0.980000
13.447148,0.198616,-0.004392,0.902312,1.120000,0.280000,-0.560000
13.455235,0.207400,0.035624,1.028216,1.540000,0.560000,-0.560000
13.463323,0.232776,-0.020496,1.014064,0.560000,2.660000,-1.400000
13.471410,0.189344,0.005856,0.952088,-0.420000,1.400000,-0.840000
13.479497,0.169336,0.005856,0.973560,2.100000,0.140000,0.000000
13.487585,0.209840,-0.014152,0.988688,1.260000,2.380000,-0.700000
13.495672,0.261080,0.028792,1.060912,0.000000,0.140000,-0.980000
13.503759,0.187880,-0.005856,1.061888,0.700000,0.700000,-0.980000
13.511847,0.185440,-0.047336,0.831064,0.840000,1.680000,-0.980000
13.519934,0.269864,0.021472,1.015040,1.820000,0.700000,-0.700000
13.528021,0.211792,-0.004392,1.041880,1.400000,0.140000,-0.560000
13.536109,0.194224,-0.000976,0.947208,-0.700000,2.100000,-1.120000
13.544196,0.183976,0.013176,0.981368,0.560000,2.240000,-0.700000
13.552283,0.193736,-0.034160,1.000400,2.100000,1.120000,-0.700000
13.560370,0.234728,0.012200,0.985272,0.700000,-1.120000,-0.560000
13.568458,0.194712,0.040992,1.052616,0.840000,1.260000,-0.700000
13.576545,0.191296,-0.020496,0.989176,0.140000,3.080000,-1.680000
13.584632,0.248880,-0.019520,0.962336,1.120000,-1.120000,-0.280000
13.592720,0.212280,-0.012688,0.968192,1.820000,0.700000,-0.560000
13.600807,0.212280,-0.002440,0.958432,0.700000,1.260000,-1.400000
13.608894,0.230824,0.030744,1.021872,0.560000,0.560000,-0.840000
13.616982,0.186416,-0.021960,1.012600,0.700000,1.820000,-0.700000
13.625069,0.173728,-0.025376,0.921344,0.980000,0.700000,-0.700000
13.633156,0.225944,0.031720,0.982832,1.960000,0.280000,-0.420000
13.641244,0.215208,0.008784,1.070184,0.700000,2.240000,-0.980000
13.649331,0.211304,-0.014640,0.988200,-0.280000,0.700000,-0.700000
13.657418,0.191296,-0.005368,0.931104,1.260000,2.380000,-0.420000
13.665506,0.219112,-0.046848,0.956968,0.980000,1.260000,-0.700000
13.673593,0.242048,0.019520,1.055056,2.100000,-0.980000,-0.700000
13.681680,0.179584,0.042456,0.983320,-0.420000,1.260000,-0.840000
13.689768,0.183000,-0.016104,0.924272,0.420000,2.660000,-0.560000
13.697855,0.242048,-0.022448,1.021384,2.520000,0.000000,-0.140000
13.705942,0.205448,-0.005856,0.968192,0.980000,0.280000,-0.840000
13.714029,0.202520,0.036600,1.025776,0.980000,1.120000,-0.980000
13.722117,0.224968,0.007320,1.059936,1.260000,2.240000,-0.980000
13.730204,0.208376,-0.046848,0.925736,-0.700000,2.520000,-1.260000
13.738291,0.212280,-0.001952,0.967216,1.820000,0.420000,-0.140000
13.746379,0.206912,0.001464,0.997960,2.380000,1.400000,-0.840000
13.754466,0.237168,0.015616,1.014552,-0.280000,2.240000,-1.540000
13.762553,0.191296,0.007808,1.002840,0.280000,0.840000,-0.560000
13.770641,0.147864,-0.017080,0.929152,1.120000,2.940000,-0.420000
13.778728,0.229360,-0.033184,0.932568,1.680000,0.280000,-0.420000
13.786815,0.252296,0.049288,1.124840,1.960000,0.280000,-0.980000
13.794903,0.178608,-0.009272,0.969168,-0.420000,3.080000,-1.260000
13.802990,0.200568,0.010248,0.927200,-0.420000,3.220000,-0.840000
13.811077,0.200080,-0.035624,0.996008,2.660000,1.960000,-0.280000
13.819165,0.217160,-0.012200,0.973072,1.680000,2.100000,-0.700000
13.827252,0.238144,0.034160,1.022360,0.000000,1.820000,-1.120000
13.835339,0.176656,-0.006832,1.022360,0.280000,3.360000,-1.120000
13.843427,0.222040,-0.049288,0.891576,1.120000,2.520000,-0.840000
13.851514,0.223504,0.012200,0.981856,1.400000,1.680000,-0.840000
13.859601,0.174216,0.020008,1.031632,2.380000,1.820000,-0.280000
13.867689,0.202032,0.007808,0.986736,-1.120000,3.080000,-1.260000
13.875776,0.222040,0.004880,1.053592,1.400000,1.680000,-0.420000
13.883863,0.178120,-0.051728,0.937448,1.120000,2.520000,-0.840000
13.891950,0.224480,0.025376,0.947208,1.260000,1.400000,-1.260000
13.900038,0.203984,0.046848,1.097512,1.960000,3.220000,-0.840000
13.908125,0.206424,-0.032208,0.973560,-0.280000,3.640000,-1.400000
13.916212,0.215696,-0.012200,0.937936,0.140000,2.100000,-0.840000
13.924300,0.179096,-0.007808,0.982832,2.660000,2.520000,-0.420000
13.932387,0.232288,0.000488,0.979904,1.120000,1.400000,-0.700000
13.940474,0.229360,0.028792,1.052616,0.000000,2.660000,-1.120000
13.948562,0.130296,-0.020496,0.961360,0.280000,4.480000,-0.980000
13.956649,0.213744,-0.033672,0.905240,1.960000,2.380000,-0.420000
13.964736,0.225456,0.031232,1.068720,1.400000,0.280000,-0.840000
13.972824,0.166408,0.006344,1.037000,0.980000,3.220000,-1.120000
13.980911,0.199104,-0.000976,0.927200,0.420000,2.940000,-0.980000
13.988998,0.237168,-0.001952,1.015040,0.840000,2.660000,-1.120000
13.997086,0.181536,-0.036112,1.014064,1.680000,2.660000,-0.420000
14.005173,0.218624,0.034160,0.970144,1.960000,0.560000,-0.700000
14.013260,0.193248,0.015128,1.030656,0.700000,2.800000,-0.980000
14.021347,0.203008,-0.049776,0.953552,-0.560000,2.800000,-0.980000
14.029435,0.206912,-0.010736,0.983808,1.540000,0.420000,-0.700000
14.037522,0.194712,0.011712,0.931592,1.680000,1.960000,-0.700000
14.045609,0.191296,0.018056,1.034072,0.840000,2.660000,-0.980000
14.053697,0.196664,0.011224,1.050176,0.280000,1.820000,-0.980000
14.061784,0.163968,-0.012688,0.951600,0.140000,2.800000,-0.980000
14.069871,0.185928,-0.012688,0.969168,1.960000,0.420000,-0.560000
14.077959,0.251320,0.016104,1.056520,2.100000,0.560000,-0.840000
14.086046,0.181048,-0.010248,0.982344,-0.840000,2.940000,-1.260000
14.094133,0.218136,-0.015128,0.994056,0.140000,0.840000,-0.980000
14.102221,0.186416,-0.018056,0.929152,2.520000,2.100000,-0.700000
14.110308,0.239608,-0.008784,0.941352,0.980000,1.820000,-0.980000
14.118395,0.194712,0.015616,1.061888,1.120000,0.700000,-0.420000
14.126483,0.165920,0.028792,0.995032,0.280000,3.640000,-1.260000
14.134570,0.188368,-0.019032,0.958432,0.140000,3.500000,-0.840000
14.142657,0.207400,-0.014640,1.026752,2.800000,-1.260000,0.140000
14.150744,0.187880,0.022448,0.982344,0.140000,1.820000,-1.820000
14.158832,0.192760,0.020008,1.016504,-0.420000,2.520000,-0.980000
14.166919,0.200568,-0.017568,1.023824,1.680000,1.960000,-0.980000
14.175006,0.201056,-0.025376,0.942328,0.420000,0.560000,-0.980000
14.183094,0.234728,-0.004392,0.982344,1.820000,0.560000,-0.560000
14.191181,0.174704,0.027328,1.015528,1.400000,2.940000,-0.980000
14.199268,0.209840,-0.025376,0.983320,-0.700000,1.400000,-1.260000
14.207356,0.176656,0.000976,0.996008,0.560000,2.100000,-0.980000
14.215443,0.162992,-0.009760,0.898408,2.660000,2.100000,-0.140000
14.223530,0.236680,0.021960,1.064328,0.700000,1.540000,-0.840000
14.231618,0.199592,0.019032,1.077016,0.280000,1.400000,-1.260000
14.239705,0.149816,-0.016592,0.919392,0.560000,3.360000,-0.840000
14.247792,0.216672,-0.017080,0.957456,1.260000,2.520000,-0.840000
14.255880,0.233264,-0.023424,1.040904,1.960000,0.140000,-0.560000
14.263967,0.176656,0.007808,0.972584,-0.280000,1.680000,-1.120000
14.272054,0.173240,0.018544,0.968680,0.280000,3.220000,-1.260000
14.280141,0.213256,-0.015616,1.017480,1.820000,2.520000,-0.700000
14.288229,0.203496,-0.018056,0.952576,1.120000,0.140000,-0.840000
14.296316,0.187392,0.036600,1.038464,1.260000,1.120000,-0.700000
14.304403,0.176168,-0.006344,1.002840,0.840000,3.780000,-1.120000
14.312491,0.237656,0.024888,1.019920,0.420000,2.520000,-1.120000
14.320578,0.155672,-0.039040,0.963800,0.700000,2.380000,-0.560000
14.328665,0.193248,-0.025864,0.892064,1.960000,1.960000,-0.700000
14.336753,0.245464,0.052704,1.103856,1.400000,0.840000,-0.980000
14.344840,0.183000,-0.013664,1.018944,-0.420000,2.520000,-1.540000
14.352927,0.165432,-0.022448,0.875472,0.420000,2.100000,-0.560000
14.361015,0.182024,0.015616,1.012112,2.660000,1.540000,-0.840000
14.369102,0.221064,-0.011224,1.057496,1.260000,1.820000,-0.980000
14.377189,0.175192,0.025864,1.003816,-1.400000,1.400000,-1.400000
14.385276,0.156648,0.005368,0.981368,1.260000,4.200000,-0.980000
14.393364,0.210328,-0.062952,0.952088,1.680000,2.380000,-0.980000
14.401451,0.264496,0.010248,1.016016,1.960000,-1.260000,-0.980000
14.409538,0.143472,0.041480,1.019920,0.000000,2.940000,-1.260000
14.417626,0.139568,-0.044896,0.903776,-0.140000,3.780000,-0.840000
14.425713,0.234240,0.018544,1.009184,1.820000,0.420000,-0.140000
14.433800,0.168360,-0.011224,0.997472,0.980000,0.980000,-0.840000
14.441888,0.194712,-0.000976,0.986248,1.120000,1.120000,-0.980000
14.449975,0.206424,0.040992,1.074576,1.820000,2.800000,-1.120000
14.458062,0.209840,-0.030256,0.967216,-0.980000,2.520000,-1.120000
14.466150,0.179584,-0.025376,0.968192,0.980000,1.400000,-0.560000
14.474237,0.191296,0.011712,0.969656,3.080000,2.660000,-0.980000
14.482324,0.223016,0.013664,1.028704,-0.280000,2.660000,-1.260000
14.490412,0.171776,0.005856,1.042856,0.000000,0.560000,-0.980000
14.498499,0.134200,-0.022448,0.888648,1.120000,3.080000,-0.980000
14.506586,0.197152,-0.007320,0.952088,2.940000,1.540000,-0.700000
14.514673,0.245952,0.040016,1.116544,1.260000,1.120000,-1.120000
14.522761,0.164456,-0.019032,1.000888,-1.400000,3.080000,-1.400000
14.530848,0.150792,-0.000488,0.939400,0.420000,3.220000,-0.840000
14.538935,0.232776,-0.043920,0.967216,2.940000,1.820000,-0.840000
14.547023,0.195200,0.003904,0.976976,-0.140000,1.680000,-0.840000
14.555110,0.181536,0.033672,1.076040,0.700000,0.140000,-0.980000
14.563197,0.144448,-0.000488,0.935984,0.700000,4.340000,-1.400000
14.571285,0.234728,-0.030744,0.981368,0.140000,1.400000,-1.120000
14.579372,0.183000,0.034648,1.045784,2.660000,1.400000,-0.140000
14.587459,0.151768,-0.011712,0.974536,0.420000,3.080000,-1.120000
14.595547,0.227408,0.000488,1.017968,0.000000,2.240000,-0.840000
14.603634,0.209840,-0.017568,1.022848,0.980000,2.520000,-0.980000
14.611721,0.131760,-0.024400,0.873032,0.560000,1.120000,-0.560000
14.619808,0.207400,0.024888,1.012600,2.520000,1.120000,-0.420000
14.627896,0.212768,0.020984,1.049688,0.980000,3.080000,-1.400000
14.635983,0.147864,-0.003904,1.000888,-0.420000,2.800000,-0.980000
14.644070,0.162504,-0.020496,0.961848,1.400000,2.520000,-0.980000
14.652158,0.200568,-0.006832,0.975512,1.960000,1.820000,-0.560000
14.660245,0.219112,0.025376,1.070672,1.540000,0.840000,-0.840000
14.668332,0.170800,-0.004392,0.978928,-0.560000,2.940000,-1.120000
14.676420,0.158600,-0.036112,0.924272,0.420000,2.940000,-1.260000
14.684507,0.219600,0.011224,0.989664,2.800000,0.000000,-0.140000
14.692594,0.184464,0.002440,1.010648,0.840000,1.960000,-0.420000
14.700682,0.179584,0.012688,1.021384,-0.420000,2.800000,-1.120000
14.708769,0.180560,0.026840,1.033096,1.540000,3.500000,-1.120000
14.716856,0.163480,-0.052216,0.946232,1.120000,2.380000,-0.840000
14.724944,0.233264,0.007320,0.970144,1.260000,1.120000,-0.840000
14.733031,0.162504,0.013176,1.049688,1.260000,2.240000,-0.840000
14.741118,0.175192,-0.017568,0.966240,-0.140000,2.100000,-0.980000
14.749205,0.200080,0.015616,0.993568,1.400000,1.120000,-0.420000
14.757293,0.135176,-0.021960,0.960872,1.540000,1.960000,-0.420000
14.765380,0.221064,0.014640,1.010160,1.400000,0.700000,-0.840000
14.773467,0.168360,0.035624,1.046760,0.280000,2.660000,-0.980000
14.781555,0.178608,-0.036112,0.971608,0.560000,3.640000,-0.980000
14.789642,0.177632,-0.010736,0.944768,1.120000,2.520000,-0.840000
14.797729,0.183976,-0.001464,1.029680,2.660000,1.260000,-0.980000
14.805817,0.201056,-0.001464,0.989664,-0.840000,1.960000,-1.540000
14.813904,0.168360,0.008784,1.007232,0.000000,1.680000,-1.120000
14.821991,0.150792,-0.019520,0.968680,1.540000,2.240000,-0.980000
14.830079,0.207400,0.007808,0.939888,0.980000,0.980000,-0.700000
14.838166,0.194224,0.015616,1.098488,1.820000,1.540000,-0.560000
14.846253,0.154696,-0.002440,0.966240,0.000000,3.640000,-1.120000
14.854340,0.189344,0.025864,0.955992,0.000000,2.940000,-0.280000
14.862428,0.175680,-0.051728,1.033584,1.820000,3.360000,-0.700000
14.870515,0.206912,-0.013176,0.976488,2.520000,2.380000,-0.700000
14.878602,0.196176,0.049776,0.989176,-0.420000,1.960000,-0.980000
14.886690,0.138592,-0.010736,1.019920,0.000000,4.340000,-0.840000
14.894777,0.191296,-0.046848,0.949648,1.400000,1.820000,-0.280000
14.902864,0.179584,0.041480,1.003816,2.240000,0.140000,-0.280000
14.910952,0.188368,0.009272,1.028704,0.280000,3.920000,-1.120000
14.919039,0.168848,-0.018056,1.004792,0.000000,3.780000,-1.120000
14.927126,0.174704,0.004880,0.972096,1.260000,3.220000,-0.700000
14.935214,0.192760,-0.030256,0.962824,0.700000,3.080000,-1.540000
14.943301,0.196664,0.002928,1.044320,2.100000,2.100000,-1.120000
14.951388,0.169336,0.033672,0.964288,0.840000,3.640000,-1.400000
14.959476,0.172752,-0.007808,0.976488,-1.260000,3.780000,-1.680000
14.967563,0.161528,-0.027816,1.029680,2.940000,1.400000,-0.280000
14.975650,0.159088,0.021960,0.960872,1.120000,2.380000,-1.120000
14.983737,0.198616,0.020008,1.042856,-0.840000,2.100000,-1.400000
14.991825,0.164944,0.005368,1.046760,1.400000,3.500000,-0.980000
14.999912,0.163480,-0.042944,0.904752,0.560000,4.340000,-0.980000
15.007999,0.230824,0.001464,0.988688,1.820000,1.120000,-0.420000
15.016087,0.141520,0.013664,1.065792,0.980000,2.940000,-1.120000
15.024174,0.172752,-0.015616,0.932568,0.560000,4.060000,-1.400000
15.032261,0.197152,0.004392,0.992104,0.140000,3.920000,-0.980000
15.040349,0.139080,-0.025864,0.989176,1.820000,2.520000,-0.980000
15.048436,0.190320,0.016592,0.953552,1.120000,3.080000,-0.700000
15.056523,0.199592,0.022936,1.068720,1.260000,3.360000,-1.120000
15.064611,0.153232,0.000976,1.010160,0.000000,5.880000,-1.680000
15.072698,0.150304,-0.035624,0.940376,0.840000,2.800000,-0.700000
15.080785,0.181536,0.016104,1.011136,2.240000,3.360000,-0.560000
15.088872,0.201056,0.020496,1.043344,0.840000,4.200000,-1.120000
15.096960,0.164456,-0.016592,1.005768,-0.280000,3.640000,-1.120000
15.105047,0.145912,-0.029768,0.960872,1.820000,3.920000,-0.840000
15.113134,0.192760,-0.007808,0.926224,1.260000,2.240000,-0.980000
15.121222,0.183000,0.019032,1.066280,1.400000,3.780000,-1.540000
15.129309,0.142496,0.010736,1.008696,0.700000,4.340000,-1.540000
15.137396,0.142008,-0.003904,0.928664,0.420000,4.340000,-1.260000
15.145484,0.162504,-0.000976,1.061400,2.240000,2.100000,-0.560000
15.153571,0.183000,-0.017568,0.996008,1.820000,2.940000,-1.120000
15.161658,0.178120,0.049776,1.014552,-0.420000,3.640000,-1.400000
15.169746,0.148840,-0.018056,1.037000,0.840000,4.200000,-0.840000
15.177833,0.162016,-0.051240,0.902800,1.400000,2.940000,-1.120000
15.185920,0.210328,0.021960,0.969656,1.680000,2.240000,-0.700000
15.194007,0.139568,0.030256,1.068232,1.540000,4.760000,-1.400000
15.202095,0.161528,-0.029768,0.941840,-0.980000,4.620000,-1.540000
15.210182,0.160552,-0.002928,1.001864,1.540000,2.240000,-0.980000
15.218269,0.169336,-0.012688,0.964288,1.820000,3.920000,-0.980000
15.226357,0.174704,0.015616,1.024312,1.120000,2.660000,-1.260000
15.234444,0.162504,0.022448,1.034072,0.700000,4.620000,-1.680000
15.242531,0.121512,-0.011224,0.979904,0.000000,5.320000,-1.680000
15.250619,0.170312,-0.023912,0.929640,1.540000,2.660000,-0.840000
15.258706,0.187392,0.026352,1.080432,1.820000,3.500000,-1.260000
15.266793,0.171288,0.007808,1.006256,0.140000,5.180000,-1.400000
15.274881,0.172752,-0.003416,1.009184,0.000000,5.180000,-1.680000
15.282968,0.142008,-0.056120,0.971608,2.100000,3.640000,-0.980000
15.291055,0.168848,0.003904,0.924272,0.840000,2.940000,-1.400000
15.299143,0.146400,0.041968,1.056520,0.700000,3.920000,-1.820000
15.307230,0.135664,-0.014152,1.021872,0.420000,5.600000,-1.540000
15.315317,0.170800,-0.015616,0.926712,0.280000,3.360000,-1.960000
15.323404,0.168848,0.024888,1.042856,2.240000,2.660000,-1.540000
15.331492,0.139568,0.002440,1.028216,1.680000,5.320000,-2.100000
15.339579,0.183488,0.019520,0.993080,-0.140000,5.040000,-2.100000
15.347666,0.131760,-0.010736,1.027728,0.700000,4.620000,-1.400000
15.355754,0.173240,-0.058072,0.888648,1.400000,3.780000,-1.400000
15.363841,0.165920,0.025376,1.071160,1.260000,3.640000,-1.960000
15.371928,0.164944,0.020496,1.039928,0.700000,4.480000,-1.680000
15.380016,0.128344,-0.021960,0.920856,-0.700000,4.760000,-1.820000
15.388103,0.173728,-0.009760,0.951600,2.380000,4.340000,-1.120000
15.396190,0.153232,0.017080,1.074088,2.380000,3.920000,-0.840000
15.404278,0.153720,0.023424,0.979416,-0.700000,4.760000,-2.240000
15.412365,0.124928,0.015128,1.038464,0.560000,5.180000,-1.540000
15.420452,0.157136,-0.059048,0.966240,2.240000,4.060000,-1.260000
15.428539,0.164944,0.029768,0.984296,0.840000,3.500000,-1.820000
15.436627,0.156648,0.027816,1.081896,1.260000,5.600000,-1.820000
15.444714,0.155672,-0.031232,0.938912,-0.140000,5.180000,-1.820000
15.452801,0.165920,-0.029768,1.011136,0.980000,2.800000,-1.820000
15.460889,0.130296,0.008296,0.965752,1.820000,5.040000,-1.960000
15.468976,0.146400,0.033184,1.001864,0.840000,5.180000,-1.960000
15.477063,0.154208,0.002440,1.029680,0.000000,4.340000,-1.960000
15.485151,0.126880,-0.033672,0.969656,2.100000,4.900000,-1.400000
15.493238,0.128832,0.023424,0.958920,0.840000,3.220000,-1.120000
15.501325,0.166408,0.055632,1.117520,1.820000,4.760000,-1.260000
15.509413,0.148352,-0.040504,1.001376,-0.700000,6.160000,-1.960000
15.517500,0.161528,-0.035136,0.910608,1.260000,4.060000,-0.840000
15.525587,0.160552,0.024400,1.010160,2.660000,5.040000,-1.540000
15.533674,0.139080,-0.005856,1.053592,0.140000,4.480000,-2.240000
15.541762,0.101992,0.033184,1.016504,-0.140000,5.460000,-1.120000
15.549849,0.125904,-0.041480,0.895480,1.260000,4.620000,-0.980000
15.557936,0.180072,-0.021472,1.002352,1.400000,2.940000,-1.820000
15.566024,0.139568,0.055144,1.123864,1.960000,3.220000,-1.680000
15.574111,0.098576,0.003904,0.935496,-0.280000,6.020000,-2.100000
15.582198,0.159088,-0.031720,0.989176,0.840000,4.900000,-2.100000
15.590286,0.175680,-0.007808,1.038952,2.660000,2.800000,-1.680000
15.598373,0.107360,0.035624,0.996008,0.140000,4.760000,-1.960000
15.606460,0.145424,-0.020984,1.004304,-0.140000,4.340000,-1.680000
15.614548,0.150792,-0.029768,0.972096,0.980000,3.920000,-1.540000
15.622635,0.131760,-0.001464,0.940376,1.540000,2.520000,-1.400000
15.630722,0.138592,0.057584,1.079944,1.960000,4.200000,-1.260000
15.638809,0.132248,-0.014640,1.019432,-0.560000,5.320000,-1.680000
15.646897,0.128344,-0.017568,0.948184,1.260000,3.360000,-1.120000
15.654984,0.152744,0.011712,1.033096,2.660000,2.800000,-1.120000
15.663071,0.128344,-0.000488,1.047248,0.980000,4.620000,-2.240000
15.671159,0.142008,0.002440,1.010648,0.140000,4.060000,-2.240000
15.679246,0.119560,-0.017080,0.899872,0.700000,4.340000,-1.120000
15.687333,0.160552,-0.027328,0.953064,1.960000,2.800000,-0.980000
15.695421,0.140056,0.066368,1.128256,1.400000,3.080000,-1.540000
15.703508,0.080032,0.000000,0.999912,-0.560000,6.020000,-1.680000
15.711595,0.137616,-0.023424,0.948672,1.260000,2.520000,-0.560000
15.719683,0.188856,-0.004880,1.051152,2.380000,1.960000,-1.120000
15.727770,0.081008,0.003904,1.004792,0.000000,3.780000,-1.680000
15.735857,0.131272,0.020008,0.982832,0.560000,2.800000,-1.260000
15.743944,0.127856,-0.030744,0.974536,0.700000,3.920000,-1.400000
15.752032,0.154696,-0.016592,0.961848,0.840000,0.700000,-1.260000
15.760119,0.124928,0.078080,1.090192,2.100000,2.380000,-0.980000
15.768206,0.096624,-0.025376,1.008208,-1.400000,5.460000,-1.540000
15.776294,0.173728,-0.023424,1.000888,1.680000,1.680000,-1.120000
15.784381,0.122488,-0.010736,0.972584,1.400000,2.100000,-1.260000
15.792468,0.126392,0.005856,0.967704,0.980000,2.660000,-1.680000
15.800556,0.118584,0.039040,1.064328,0.840000,1.960000,-0.840000
15.808643,0.118096,-0.020496,0.996984,0.000000,2.520000,-1.120000
15.816730,0.127856,-0.006832,0.946720,2.240000,0.840000,-0.420000
15.824818,0.149816,0.046848,1.092144,1.820000,2.240000,-1.260000
15.832905,0.132736,-0.036112,0.998936,-0.700000,3.500000,-1.400000
15.840992,0.138104,-0.017080,0.942816,0.420000,2.380000,-0.980000
15.849080,0.108824,-0.004392,0.946232,1.680000,2.520000,-0.700000
15.857167,0.137616,0.002928,1.021872,1.820000,1.680000,-0.420000
15.865254,0.121024,0.057584,1.113616,0.280000,1.400000,-1.260000
15.873341,0.069784,-0.022936,0.947696,0.140000,2.940000,-1.400000
15.881429,0.150304,-0.006344,0.973072,2.380000,0.560000,-0.420000
15.889516,0.194712,0.000488,1.078968,1.820000,0.840000,-1.120000
15.897603,0.126392,-0.002440,0.949160,-0.560000,2.660000,-1.120000
15.905691,0.089792,0.010736,0.954528,0.420000,3.780000,-1.120000
15.913778,0.116632,-0.032696,1.020896,2.240000,1.960000,-0.560000
15.921865,0.138104,0.015128,1.027728,0.700000,-0.140000,-0.840000
15.929953,0.099552,0.049288,1.058472,0.420000,1.680000,-1.540000
15.938040,0.110776,-0.029280,0.957944,0.560000,3.360000,-1.120000
15.946127,0.179584,-0.017568,0.993080,1.680000,0.560000,-0.560000
15.954214,0.122976,-0.004392,0.988200,1.960000,0.280000,-0.840000
15.962302,0.110288,0.012688,0.976488,-0.140000,2.520000,-1.120000
15.970389,0.136640,0.030744,1.060912,0.420000,1.820000,-0.980000
15.978476,0.106384,-0.032208,0.975024,0.420000,1.820000,-0.560000
15.986564,0.127368,0.005856,0.977952,1.540000,-0.140000,-0.560000
15.994651,0.135176,0.039040,1.090680,1.820000,1.540000,-0.980000
16.002738,0.136152,-0.044408,1.009672,-0.700000,2.800000,-1.400000
16.010826,0.132736,0.003416,0.940376,0.560000,1.400000,-1.120000
16.018913,0.087352,-0.000976,0.954528,1.960000,0.280000,-0.700000
16.027000,0.168848,0.015128,1.030168,1.820000,0.840000,-0.280000
16.035088,0.115168,0.026352,1.078480,0.280000,1.260000,-1.260000
16.043175,0.080520,-0.019032,0.976976,0.420000,1.260000,-0.840000
16.051262,0.150304,-0.005368,0.983320,1.400000,0.420000,-0.280000
16.059349,0.142008,-0.009760,1.016016,1.960000,0.700000,-0.980000
16.067437,0.121512,0.004392,0.989176,0.140000,1.540000,-1.260000
16.075524,0.105408,0.041968,1.013576,0.000000,1.120000,-0.560000
16.083611,0.082472,-0.052216,0.967704,0.980000,1.400000,-0.560000
16.091699,0.162016,0.023424,1.008696,2.380000,-1.260000,-0.560000
16.099786,0.136640,0.044408,1.082384,0.840000,1.120000,-0.980000
16.107873,0.117608,-0.046848,0.948672,-0.700000,2.100000,-0.980000
16.115961,0.140544,-0.005856,0.971608,1.540000,0.280000,-0.420000
16.124048,0.128832,-0.020984,0.991128,1.260000,0.140000,-0.980000
16.132135,0.087352,0.060024,1.038464,0.980000,0.280000,-0.420000
16.140222,0.132736,0.004392,1.068720,0.700000,0.840000,-1.260000
16.148310,0.149816,-0.045872,0.974048,-0.140000,1.260000,-0.980000
16.156397,0.140544,-0.004880,0.949648,2.100000,-1.260000,-0.700000
16.164484,0.115656,0.040016,1.004304,1.820000,1.680000,-0.700000
16.172572,0.142008,0.002440,1.035536,-0.560000,2.100000,-1.120000
16.180659,0.095648,-0.003904,1.012112,0.140000,1.400000,-0.980000
16.188746,0.096624,-0.026352,0.949160,1.680000,2.100000,-0.980000
16.196834,0.138104,0.019032,1.046760,1.400000,-0.420000,-0.280000
16.204921,0.133224,0.006344,1.011136,0.280000,0.840000,-1.400000
16.213008,0.114192,-0.019520,0.989664,-0.140000,1.120000,-0.980000
16.221095,0.113704,0.016104,0.971608,1.680000,-0.840000,-0.700000
16.229183,0.097600,0.014152,0.992592,2.100000,0.420000,-0.560000
16.237270,0.152744,0.029768,1.083360,-0.140000,-0.140000,-0.560000
16.245357,0.131760,-0.027328,1.014552,0.840000,0.140000,-0.980000
16.253445,0.122488,-0.063440,0.913536,0.000000,1.260000,-1.120000
16.261532,0.141032,0.042944,0.992104,2.660000,-1.540000,-0.420000
16.269619,0.095160,0.017568,1.077504,-0.140000,0.140000,-0.840000
16.277707,0.126880,-0.013176,0.977952,-0.280000,-0.280000,-0.840000
16.285794,0.106872,0.008296,0.984296,1.260000,-0.140000,-0.420000
16.293881,0.136640,-0.031720,0.984784,1.680000,0.000000,-0.700000
16.301968,0.176656,0.022448,1.085800,2.100000,-1.680000,-0.840000
16.310056,0.092232,0.010736,0.953064,-0.280000,0.560000,-1.120000
16.318143,0.083936,-0.007320,0.958920,-0.140000,1.400000,-0.980000
16.326230,0.142008,0.015616,1.034072,3.220000,-3.360000,-0.140000
16.334318,0.117120,0.008784,1.060912,-0.280000,0.000000,-1.120000
16.342405,0.155184,0.003416,0.993568,0.000000,-1.820000,-0.700000
16.350492,0.102968,-0.007320,0.964776,0.700000,0.840000,-0.980000
16.358580,0.144936,-0.061488,0.972096,1.260000,-2.380000,-0.280000
16.366667,0.165920,0.045872,1.037976,2.100000,-2.800000,-0.280000
16.374754,0.074664,0.047824,1.013576,-0.420000,1.540000,-1.680000
16.382841,0.113216,-0.020008,0.996984,0.980000,0.140000,-0.420000
16.390929,0.161040,-0.023424,1.020896,1.960000,-2.240000,-0.560000
16.399016,0.131272,-0.010248,0.976488,-0.140000,-1.120000,-1.400000
16.407103,0.121512,0.029280,1.018944,1.540000,-0.280000,-0.560000
16.415191,0.110776,0.017080,0.994056,0.000000,1.260000,-0.840000
16.423278,0.127368,-0.036112,1.005768,0.280000,-1.540000,-0.560000
16.431365,0.097600,0.021960,0.990640,2.520000,-2.660000,-0.140000
16.439453,0.131760,0.001952,1.023336,0.980000,0.420000,-1.260000
16.447540,0.202032,-0.002928,1.050176,0.140000,-2.100000,-1.120000
16.455627,0.098088,-0.007808,0.971120,0.420000,-1.540000,-0.700000
16.463714,0.110288,-0.035624,0.871080,0.420000,-0.280000,-0.280000
16.471802,0.175680,0.038552,1.074576,3.080000,-1.540000,-0.560000
16.479889,0.104920,0.015616,1.081408,-0.700000,0.280000,-1.400000
16.487976,0.090768,0.006344,0.955016,0.000000,-0.700000,-0.700000
16.496064,0.122488,-0.019520,0.984296,2.240000,-1.260000,-0.280000
16.504151,0.174216,-0.020984,0.982832,1.540000,-1.820000,-0.420000
16.512238,0.156160,0.040016,1.073112,-0.280000,-1.260000,-1.120000
16.520326,0.055632,0.001952,0.964776,0.840000,0.560000,-0.560000
16.528413,0.149816,-0.032208,0.913048,0.140000,0.000000,-0.700000
16.536500,0.156648,0.014152,1.067256,2.240000,-3.500000,-0.140000
16.544588,0.122488,0.009760,1.080432,0.140000,-0.420000,-0.840000
16.552675,0.121512,0.016592,0.945256,-0.560000,0.140000,-0.980000
16.560762,0.145912,-0.021960,0.995520,0.840000,-0.140000,-0.280000
16.568849,0.154208,-0.047336,0.944280,0.980000,-2.240000,-0.560000
16.576937,0.128344,0.063928,1.072136,2.240000,-1.540000,-0.840000
16.585024,0.117120,0.009760,1.005768,-0.140000,1.260000,-1.260000
16.593111,0.128832,-0.003904,1.010160,0.000000,-0.840000,-0.560000
16.601199,0.126392,-0.029768,1.017968,2.100000,-2.240000,-0.420000
16.609286,0.132248,0.003416,0.905240,1.260000,-0.560000,-0.700000
16.617373,0.169824,0.030744,1.083360,0.280000,-0.700000,-0.840000
16.625461,0.081008,-0.010736,1.000888,0.000000,-0.280000,-0.980000
16.633548,0.116632,-0.028304,0.932568,0.840000,-2.520000,-0.420000
16.641635,0.160064,0.027328,1.018944,2.660000,-1.960000,-0.420000
16.649722,0.146888,0.021960,1.051640,-0.560000,0.840000,-0.980000
16.657810,0.147864,-0.015616,1.034072,0.560000,-1.540000,-0.700000
16.665897,0.106384,-0.025376,0.905728,0.420000,0.980000,-0.980000
16.673984,0.133224,-0.020984,0.946720,1.960000,-0.700000,-0.420000
16.682072,0.183976,0.062952,1.128744,2.100000,-2.660000,-0.420000
16.690159,0.116144,-0.007320,0.996008,-1.120000,0.560000,-1.120000
16.698246,0.093696,0.005856,0.921832,0.280000,1.120000,-0.700000
16.706334,0.168848,-0.015128,1.031632,3.500000,0.700000,-0.420000
16.714421,0.158600,-0.019520,1.009184,0.140000,-0.420000,-0.980000
16.722508,0.111752,0.032696,1.016992,0.420000,-0.420000,-0.700000
16.730595,0.117608,-0.005856,0.983808,0.420000,0.980000,-0.700000
16.738683,0.134688,-0.030744,0.975024,0.840000,-0.980000,-0.560000
16.746770,0.144936,0.024400,1.069208,1.960000,-1.960000,-0.280000
16.754857,0.138104,0.005368,0.991616,0.420000,1.260000,-1.400000
16.762945,0.142984,0.008784,1.003328,0.000000,0.980000,-0.840000
16.771032,0.147376,-0.037576,0.968192,1.400000,-0.420000,-0.280000
16.779119,0.120536,-0.005856,0.935496,0.700000,-0.840000,-0.560000
16.787207,0.122000,0.053680,1.089216,2.100000,-0.980000,-0.560000
16.795294,0.132248,-0.005856,1.021872,-0.840000,0.980000,-1.260000
16.803381,0.137616,-0.017080,1.000888,0.420000,-2.240000,-0.420000
16.811468,0.122000,-0.007808,0.951112,2.660000,-0.840000,-0.280000
16.819556,0.172752,0.014152,0.966728,1.540000,0.840000,-0.840000
16.827643,0.181536,0.015616,1.069208,-0.560000,0.420000,-0.840000
16.835730,0.074176,-0.016104,1.011136,0.420000,0.980000,-0.700000
16.843818,0.122976,-0.028304,0.861808,1.540000,0.420000,-0.700000
16.851905,0.168848,0.041968,1.105808,1.960000,-0.700000,-0.420000
16.859992,0.136640,0.004880,1.058960,0.560000,0.000000,-0.700000
16.868080,0.108336,-0.007320,0.971120,-0.560000,0.840000,-1.400000
16.876167,0.128344,-0.029280,0.972584,2.380000,0.420000,-0.560000
16.884254,0.179096,-0.018544,0.951112,0.980000,-1.400000,-0.560000
16.892341,0.141032,0.044896,1.100440,0.420000,-2.240000,-1.120000
16.900429,0.070760,0.011224,0.966728,0.560000,1.400000,-0.700000
16.908516,0.147376,-0.007320,0.938424,1.540000,0.420000,-0.700000
16.916603,0.156648,0.002440,1.105808,1.540000,-1.260000,-0.420000
16.924691,0.128832,-0.017568,0.959896,1.260000,-1.960000,-0.840000
16.932778,0.153232,0.036600,0.999912,-0.280000,1.260000,-1.120000
16.940865,0.145912,-0.017568,1.039928,0.700000,0.700000,-0.560000
16.948953,0.119072,-0.054656,0.914024,0.280000,-2.240000,0.280000
16.957040,0.144448,0.041480,0.975512,1.960000,-1.400000,-0.420000
16.965127,0.123952,0.021472,1.092144,1.680000,2.240000,-0.700000
16.973214,0.162016,-0.008296,1.015040,-0.840000,-0.560000,-0.840000
16.981302,0.122488,-0.014640,0.977952,0.560000,-0.420000,-0.840000
16.989389,0.144936,-0.029768,0.927688,2.240000,0.980000,-0.420000
16.997476,0.182512,0.032208,1.068232,1.260000,-1.400000,-0.700000
17.005564,0.113216,0.005856,1.027728,-0.840000,1.120000,-1.120000
17.013651,0.101504,-0.012200,0.949160,0.700000,0.280000,-0.700000
17.021738,0.116632,0.021960,0.968680,2.380000,-1.960000,-0.280000
17.029826,0.158112,0.000000,1.106784,1.260000,-1.400000,-1.120000
17.037913,0.153720,0.021472,0.999912,-0.840000,-2.100000,-0.560000
17.046000,0.096624,-0.019032,0.955016,1.120000,0.000000,-0.700000
17.054087,0.158112,-0.041968,0.948184,0.560000,0.000000,-0.700000
17.062175,0.193248,0.000976,1.045296,2.100000,-4.200000,-0.560000
17.070262,0.111264,0.049776,1.026264,-0.140000,-0.840000,-0.980000
17.078349,0.110776,-0.022936,0.975512,-0.420000,0.980000,-0.980000
17.086437,0.156648,0.000488,1.018456,2.660000,-2.100000,-0.280000
17.094524,0.155184,-0.000488,0.981856,0.420000,-1.540000,-0.700000
17.102611,0.125416,0.023912,1.020408,1.540000,-1.400000,-0.280000
17.110698,0.154208,0.006344,1.019920,0.420000,0.700000,-1.120000
17.118786,0.142008,-0.040992,0.972096,0.140000,-0.420000,-0.980000
17.126873,0.133224,-0.004880,0.958920,1.820000,-3.500000,-0.140000
17.134960,0.151280,0.012688,0.986248,1.260000,-0.280000,-0.840000
17.143048,0.144448,0.022448,1.057008,0.280000,0.140000,-0.980000
17.151135,0.142496,0.006832,1.059936,0.840000,-1.400000,-0.420000
17.159222,0.083448,-0.034648,0.940864,0.000000,-0.420000,-1.120000
17.167310,0.174216,0.002928,0.971608,3.080000,-3.080000,0.000000
17.175397,0.213256,0.038064,1.086288,0.560000,-1.400000,-0.700000
17.183484,0.110288,-0.046848,0.958920,-1.680000,-0.280000,-1.540000
17.191571,0.128344,0.013664,0.953064,2.240000,-0.280000,-0.280000
17.199659,0.142008,0.010248,0.982832,1.960000,-0.840000,-0.560000
17.207746,0.140544,-0.005856,1.052128,-0.420000,-1.820000,-0.560000
17.215833,0.141032,0.024400,1.038952,0.560000,-1.400000,-0.700000
17.223921,0.130296,-0.028792,0.926712,0.000000,0.700000,-1.120000
17.232008,0.182512,-0.030256,0.992104,1.540000,-1.260000,-0.280000
17.240095,0.148352,0.016104,1.030168,1.960000,-2.240000,-0.840000
17.248183,0.105408,0.026840,1.002352,-0.840000,-0.420000,-1.120000
17.256270,0.135664,0.019520,1.036512,1.680000,-0.840000,-0.560000
17.264357,0.159088,-0.033184,0.990152,0.700000,-1.540000,-0.560000
17.272444,0.160064,-0.014152,0.987712,1.260000,-3.640000,-0.420000
17.280532,0.128344,0.033672,1.009184,1.680000,-0.560000,-0.840000
17.288619,0.182024,-0.007808,0.960872,-0.840000,0.280000,-1.120000
17.296706,0.141520,-0.008784,1.036024,0.700000,-2.100000,-0.700000
17.304794,0.098088,-0.008296,0.972096,1.820000,-1.680000,-0.140000
17.312881,0.165432,0.006344,0.951600,1.400000,-2.100000,-0.980000
17.320968,0.167384,0.048800,1.138016,0.420000,-2.100000,-0.840000
17.329056,0.131272,-0.024400,0.980880,-0.560000,-0.560000,-0.980000
17.337143,0.120048,-0.020008,0.887672,0.840000,-1.260000,-0.140000
17.345230,0.201056,0.000000,1.024800,2.940000,-1.820000,-0.140000
17.353317,0.157136,-0.001952,1.048712,-0.280000,-1.540000,-1.120000
17.361405,0.136152,0.014640,0.978928,0.140000,-1.540000,-0.840000
17.369492,0.100528,-0.004880,0.986248,0.280000,1.400000,-1.120000
17.377579,0.142984,-0.026352,0.974536,2.940000,-4.340000,0.000000
17.385667,0.194712,0.034648,1.097024,0.840000,-4.060000,-0.420000
17.393754,0.144448,0.004392,0.984296,-0.840000,-0.980000,-1.120000
17.401841,0.154696,-0.018056,0.965264,0.560000,-0.700000,-0.980000
17.409928,0.129808,-0.006344,0.953552,2.660000,-1.400000,-0.140000
17.418016,0.179584,-0.014640,1.011136,0.560000,-2.940000,-0.840000
17.426103,0.117120,0.053680,1.063352,0.560000,-2.660000,-0.700000
17.434190,0.118584,-0.016104,1.004792,0.700000,-0.280000,-0.700000
17.442278,0.196664,-0.021472,0.958920,0.140000,-2.240000,-1.120000
17.450365,0.135664,0.005856,0.994056,2.240000,-3.640000,0.420000
17.458452,0.141032,0.005368,0.979904,0.700000,-1.260000,-1.120000
17.466540,0.206424,0.002440,1.027240,0.140000,-1.960000,-0.840000
17.474627,0.123464,0.001952,1.024800,1.120000,-1.120000,-0.980000
17.482714,0.131760,-0.022936,0.916464,0.700000,-3.640000,0.140000
17.490801,0.183488,0.021472,0.977464,1.540000,-1.960000,-0.420000
17.498889,0.161040,0.015128,1.115080,0.420000,-0.280000,-1.120000
17.506976,0.125904,-0.009272,1.004792,-0.280000,-3.360000,-0.700000
17.515063,0.150304,0.000976,0.957944,1.120000,-1.680000,-0.420000
17.523151,0.170312,-0.032696,0.938424,0.980000,-0.980000,-0.700000
17.531238,0.189344,0.015616,1.059448,2.100000,-3.500000,-0.560000
17.539325,0.160064,0.020008,1.006256,-0.840000,-0.840000,-0.980000
17.547413,0.112728,-0.040016,0.943792,-0.140000,0.000000,-1.400000
17.555500,0.152744,0.010248,0.999912,3.500000,-3.500000,-0.280000
17.563587,0.191784,0.021960,1.020896,0.420000,-1.960000,-0.560000
17.571674,0.156648,-0.008296,1.025776,-0.700000,-2.660000,-0.840000
17.579762,0.111264,0.028304,0.989176,1.540000,-0.140000,-0.700000
17.587849,0.213256,-0.061000,0.932080,-0.140000,0.000000,-1.260000
17.595936,0.172752,0.001464,1.020408,1.680000,-2.660000,-0.280000
17.604024,0.140544,0.028304,1.015040,1.680000,-1.400000,-0.700000
17.612111,0.163480,-0.004392,0.990640,-0.840000,0.980000,-1.260000
17.620198,0.162016,0.003416,1.034072,1.260000,-1.260000,-0.560000
17.628286,0.127368,-0.025864,0.970632,0.980000,-1.680000,-0.560000
17.636373,0.168360,0.014152,0.983320,1.120000,-2.520000,-0.560000
17.644460,0.200080,0.023424,1.063840,1.540000,-0.980000,-0.980000
17.652547,0.125904,-0.017080,0.965264,-0.840000,0.280000,-1.120000
17.660635,0.148352,-0.017568,0.932568,1.540000,-2.240000,-0.280000
17.668722,0.162016,0.001952,0.987224,1.400000,-1.260000,-0.840000
17.676809,0.186904,0.033672,1.077992,0.420000,-1.400000,-0.700000
17.684897,0.160552,-0.002928,1.015528,0.420000,-1.400000,-0.560000
17.692984,0.139080,-0.035136,0.934520,0.420000,0.840000,-0.980000
17.701071,0.188368,-0.000976,0.963312,2.660000,-1.960000,-0.280000
17.709158,0.194224,0.023424,1.109712,1.260000,-1.820000,-1.120000
17.717246,0.118584,-0.008296,0.960384,-1.540000,-0.280000,-1.120000
17.725333,0.150792,-0.003416,0.923784,2.100000,-0.140000,-0.280000
17.733420,0.174704,0.000488,1.050176,1.400000,-0.560000,-0.980000
17.741508,0.161040,-0.001464,1.018944,0.700000,-3.080000,-0.280000
17.749595,0.149816,0.029280,0.992104,0.280000,-0.420000,-1.120000
17.757682,0.151768,-0.026352,0.969656,0.000000,1.960000,-1.540000
17.765770,0.198616,-0.028792,1.016992,2.660000,-3.500000,-0.280000
17.773857,0.168848,0.015616,1.004304,1.260000,-2.380000,-0.700000
17.781944,0.131760,0.023912,0.967216,-0.140000,-0.700000,-0.980000
17.790031,0.168848,0.014152,1.009184,1.540000,0.560000,-0.840000
17.798119,0.192272,-0.028792,1.014064,0.420000,-0.420000,-0.560000
17.806206,0.156160,-0.016592,0.944768,1.260000,-1.540000,-0.140000
17.814293,0.160552,0.037088,1.047736,1.960000,0.280000,-1.120000
17.822381,0.166408,-0.017568,1.012600,-0.420000,0.560000,-1.120000
17.830468,0.192272,-0.020984,0.986736,0.560000,-0.980000,-0.840000
17.838555,0.102968,0.001952,0.950136,0.980000,0.000000,-0.840000
17.846643,0.203496,-0.015616,0.945744,1.680000,-1.120000,-0.420000
17.854730,0.189344,0.057584,1.097024,0.280000,-0.280000,-0.980000
17.862817,0.124440,-0.017568,1.025288,0.140000,1.540000,-1.120000
17.870904,0.159576,-0.017568,0.863760,0.700000,-0.280000,-0.420000
17.878992,0.192760,0.020008,1.055056,2.800000,0.000000,-0.840000
17.887079,0.183976,-0.005368,1.054080,0.280000,0.420000,-0.980000
17.895166,0.152256,-0.006344,0.961848,-0.560000,0.140000,-0.980000
17.903254,0.128832,0.007808,0.959408,0.420000,1.680000,-0.980000
17.911341,0.197152,-0.060024,0.959408,2.100000,-0.700000,-0.140000
17.919428,0.207400,0.044408,1.078968,1.120000,-1.260000,-0.840000
17.927515,0.118096,0.025864,0.998448,-0.420000,3.500000,-1.540000
17.935603,0.177144,0.000976,0.988688,1.820000,0.700000,-0.700000
17.943690,0.172264,-0.034160,0.993080,1.680000,0.700000,-0.420000
17.951777,0.153720,-0.026352,0.960384,1.120000,0.280000,-0.840000
17.959865,0.167872,0.049288,1.016016,0.140000,-0.420000,-0.840000
17.967952,0.134688,-0.010248,1.027240,0.280000,1.680000,-1.120000
17.976039,0.159576,-0.029768,0.987224,1.120000,-0.980000,-0.560000
17.984127,0.192760,0.040992,0.965752,2.240000,-0.560000,-0.280000
17.992214,0.142984,-0.004392,1.002352,0.140000,1.960000,-1.120000
18.000301,0.198128,-0.004392,1.059936,1.120000,0.140000,-1.120000
18.008388,0.154208,-0.016592,0.967704,-0.280000,0.280000,-0.840000
18.016476,0.155184,-0.028304,0.919880,1.540000,-1.400000,-0.280000
18.024563,0.206912,0.029280,1.037000,2.240000,-0.560000,-0.840000
18.032650,0.149816,0.032208,1.065792,0.420000,1.680000,-1.120000
18.040738,0.133712,-0.026840,0.954528,-0.420000,0.980000,-0.840000
18.048825,0.141032,0.002440,0.997472,1.960000,0.280000,-0.700000
18.056912,0.193248,-0.017080,0.972096,1.820000,-0.560000,-0.560000
18.064999,0.218624,0.021472,1.072624,0.420000,-1.120000,-0.840000
18.073087,0.109312,0.000000,0.972584,0.000000,1.400000,-1.400000
18.081174,0.170800,-0.037576,0.887672,0.560000,0.560000,-0.420000
18.089261,0.195200,0.007320,1.032120,2.800000,-0.280000,-0.420000
18.097349,0.155672,0.018544,1.050664,0.420000,0.280000,-1.400000
18.105436,0.123952,0.021960,0.965752,-0.840000,0.700000,-0.700000
18.113523,0.177632,-0.007320,1.003328,0.840000,0.980000,-0.560000
18.121610,0.188368,-0.061000,0.994056,0.980000,-0.140000,-0.840000
18.129698,0.178608,0.037576,1.001376,1.540000,-1.820000,-0.700000
18.137785,0.165432,0.016592,0.988200,0.700000,1.540000,-0.980000
18.145872,0.176168,-0.017568,1.007720,-0.140000,1.960000,-0.980000
18.153960,0.154208,-0.015128,1.001864,1.400000,-1.120000,-0.560000
18.162047,0.122488,0.031720,0.971120,2.240000,0.840000,-0.700000
18.170134,0.168360,0.016104,1.035536,0.420000,-0.280000,-0.700000
18.178222,0.203008,-0.010248,1.068232,0.420000,0.420000,-1.260000
18.186309,0.168360,-0.049776,0.904264,-0.840000,0.140000,-0.980000
18.194396,0.154696,0.003416,0.954040,1.540000,-0.980000,-0.420000
18.202483,0.169336,0.021472,1.049200,2.940000,0.980000,-0.840000
18.210571,0.203984,0.007808,1.042368,-1.680000,-0.420000,-1.120000
18.218658,0.118096,0.001952,0.990152,0.700000,-0.280000,-0.560000
18.226745,0.147376,-0.025376,0.893528,1.820000,1.820000,-0.840000
18.234833,0.220088,0.018544,1.066768,2.100000,-1.120000,-0.560000
18.242920,0.164456,0.010736,1.044320,-0.280000,-0.700000,-0.980000
18.251007,0.113216,-0.023912,0.913536,-0.140000,1.120000,-0.980000
18.259094,0.197152,-0.009272,0.977952,2.660000,-0.980000,-0.560000
18.267182,0.180560,-0.011224,1.058960,1.540000,-1.400000,-0.700000
18.275269,0.167384,0.051728,1.025776,-0.280000,-1.680000,-0.700000
18.283356,0.123464,-0.003416,0.984296,0.140000,1.960000,-1.120000
18.291444,0.184464,-0.068808,0.930616,1.400000,0.840000,-0.840000
18.299531,0.236192,0.031720,1.034560,2.240000,-3.640000,-0.280000
18.307618,0.107848,0.027816,1.042368,-0.280000,-0.280000,-1.540000
18.315705,0.118584,-0.008296,0.929640,0.420000,1.120000,-0.560000
18.323793,0.226920,-0.002928,1.035048,1.680000,-2.100000,-0.700000
18.331880,0.137616,-0.002928,1.049200,0.140000,-0.840000,-1.260000
18.339967,0.173240,0.001952,0.917440,1.540000,-1.540000,-0.140000
18.348055,0.201544,0.011224,1.024800,0.700000,1.400000,-1.400000
18.356142,0.160552,-0.031720,0.981368,-0.840000,1.260000,-1.260000
18.364229,0.173728,-0.018056,0.961848,2.660000,-3.500000,0.000000
18.372317,0.135176,0.042944,0.951600,0.980000,1.540000,-1.260000
18.380404,0.192760,0.012688,1.093608,0.560000,-0.420000,-0.700000
18.388491,0.171288,-0.014640,1.050176,0.560000,-1.260000,-0.700000
18.396578,0.134200,-0.032696,0.875472,0.140000,1.120000,-1.260000
18.404666,0.207888,0.005856,0.962824,2.380000,-0.420000,-0.560000
18.412753,0.200080,0.028792,1.120448,1.680000,-0.700000,-0.560000
18.420840,0.141520,-0.021960,0.954528,-1.960000,0.140000,-1.260000
18.428928,0.128832,-0.005856,0.929640,2.240000,0.420000,-0.420000
18.437015,0.206912,0.012688,1.001864,2.520000,0.420000,-0.840000
18.445102,0.196664,0.025864,1.111176,-0.420000,-1.540000,-0.700000
18.453189,0.105896,-0.009272,1.008208,0.420000,0.280000,-0.840000
18.461277,0.188856,-0.042456,0.844240,0.700000,0.840000,-1.260000
18.469364,0.215696,0.006344,1.045784,1.680000,-0.980000,-0.560000
18.477451,0.143960,0.027328,1.065792,1.820000,-1.960000,-0.420000
18.485539,0.135176,0.003904,0.957944,-1.680000,0.280000,-1.260000
18.493626,0.162504,0.000000,1.029680,2.240000,-0.560000,-0.560000
18.501713,0.234728,-0.032208,0.994056,1.540000,-1.680000,-0.700000
18.509800,0.170800,0.001952,0.996496,-0.140000,-2.800000,-0.700000
18.517888,0.156160,0.010248,0.979904,1.260000,0.700000,-0.980000
18.525975,0.181536,-0.009760,0.955016,0.420000,1.540000,-1.260000
18.534062,0.177632,-0.007808,1.012112,1.400000,-2.800000,-0.280000
18.542150,0.131272,0.002928,0.978928,1.400000,-0.700000,-0.700000
18.550237,0.157624,0.038552,1.004304,0.420000,0.560000,-0.980000
18.558324,0.200568,-0.000488,1.083848,0.700000,-0.700000,-0.840000
18.566412,0.155184,-0.045872,0.926712,0.560000,-1.260000,-0.420000
18.574499,0.204960,0.005368,0.946720,2.380000,-1.820000,-0.700000
18.582586,0.192272,0.026352,1.098976,1.680000,0.560000,-1.260000
18.590673,0.153720,-0.032696,0.948184,-1.120000,-0.140000,-0.840000
18.598761,0.144936,0.010248,0.940864,0.980000,-0.420000,-0.980000
18.606848,0.154208,-0.003904,0.948184,1.960000,-0.280000,0.000000
18.614935,0.205448,0.022448,1.095072,1.120000,-1.260000,-0.840000
18.623023,0.186904,0.009272,1.031632,-0.140000,-0.700000,-1.400000
18.631110,0.129320,-0.024888,0.936960,0.560000,1.820000,-0.700000
18.639197,0.203496,-0.015616,0.962824,1.400000,-1.400000,-0.140000
18.647284,0.210328,-0.005856,1.097512,1.820000,-2.100000,-1.120000
18.655372,0.144448,0.012200,0.928664,-1.120000,0.560000,-1.120000
18.663459,0.152744,0.019520,0.956480,0.840000,0.980000,-0.840000
18.671546,0.190320,-0.037088,1.047736,2.800000,-2.240000,-0.280000
18.679634,0.200080,0.020984,1.028704,0.280000,-2.380000,-0.840000
18.687721,0.133712,0.060024,0.998936,0.700000,0.280000,-0.980000
18.695808,0.167872,-0.044896,0.955992,0.140000,1.820000,-1.120000
18.703895,0.214232,-0.046360,1.012112,0.980000,-2.380000,-0.420000
18.711983,0.164456,0.024888,0.972584,1.400000,-1.680000,-0.700000
18.720070,0.153720,0.004880,0.957944,0.700000,0.700000,-0.840000
18.728157,0.199104,0.017080,1.068720,0.140000,0.140000,-1.400000
18.736245,0.159576,-0.039528,0.993568,0.560000,-1.260000,-0.560000
18.744332,0.165432,0.004880,0.852048,0.980000,-1.260000,-0.420000
18.752419,0.190808,0.039040,1.143384,1.680000,0.700000,-1.400000
18.760507,0.177632,-0.022448,1.032120,0.560000,0.560000,-0.980000
18.768594,0.183488,-0.012200,0.916952,-0.280000,-1.260000,-0.980000
18.776681,0.150792,-0.015128,0.950136,1.820000,-0.700000,-0.560000
18.784768,0.211304,-0.003416,1.040904,1.820000,-0.280000,-0.560000
18.792856,0.217160,0.029280,1.015528,-0.840000,-0.420000,-1.260000
18.800943,0.103944,0.006344,0.987712,0.700000,0.280000,-0.840000
18.809030,0.174704,-0.021472,0.894016,1.960000,0.140000,-0.420000
18.817118,0.221064,0.012200,1.125816,1.400000,-2.380000,-0.560000
18.825205,0.130296,0.008296,1.013576,-0.420000,-1.260000,-1.260000
18.833292,0.177144,0.008784,0.919880,0.280000,0.980000,-0.980000
18.841379,0.202032,-0.031232,1.040904,2.100000,-0.840000,-0.560000
18.849467,0.186904,-0.025864,0.963312,0.700000,-2.240000,-0.280000
18.857554,0.174216,0.044408,1.011136,1.120000,-1.400000,-1.120000
18.865641,0.149816,0.004392,1.003328,0.280000,1.540000,-1.260000
18.873729,0.196176,-0.033672,0.968680,0.700000,-1.260000,-0.140000
18.881816,0.190320,0.019520,1.031632,2.100000,-3.500000,-0.700000
18.889903,0.140544,0.000000,0.996008,0.700000,-0.420000,-0.840000
18.897990,0.223992,-0.007320,1.012112,0.980000,-1.120000,-1.120000
18.906078,0.189344,0.003416,1.001864,-0.700000,-0.560000,-1.260000
18.914165,0.130296,-0.044408,0.913536,0.840000,-0.980000,-0.140000
18.922252,0.203984,0.025376,0.971608,1.960000,-1.540000,-0.700000
18.930340,0.163968,0.031232,1.109224,0.700000,-0.980000,-1.120000
18.938427,0.157624,-0.010248,0.966240,-0.980000,-1.260000,-0.700000
18.946514,0.152256,-0.010248,0.963312,1.260000,-1.820000,-0.560000
18.954601,0.229848,-0.024888,0.970632,2.520000,-1.960000,-0.560000
18.962689,0.235704,0.036112,1.091168,0.700000,-2.660000,-1.120000
18.970776,0.144936,0.000000,0.976000,-0.280000,-0.700000,-1.120000
18.978863,0.167384,-0.036600,0.893528,0.420000,0.420000,-0.700000
18.986951,0.220088,-0.002928,0.998936,2.240000,-2.940000,-0.700000
18.995038,0.160552,0.028304,1.097512,1.540000,-1.260000,-0.700000
19.003125,0.146400,0.015616,0.940376,-1.400000,-0.980000,-0.840000
19.011212,0.204472,-0.006832,1.022360,1.540000,-0.560000,-0.980000
19.019300,0.200568,-0.056608,0.984296,0.980000,-0.840000,-0.980000
19.027387,0.205936,0.033672,0.952576,1.400000,-2.800000,-0.560000
19.035474,0.146888,0.026840,1.013576,0.980000,0.840000,-0.840000
19.043562,0.185440,-0.045872,0.986248,-0.280000,-0.140000,-1.120000
19.051649,0.183976,0.005856,1.014552,0.700000,-3.220000,-0.420000
19.059736,0.145424,0.003904,0.926712,1.260000,-0.840000,-0.700000
19.067823,0.191296,0.018056,1.026264,1.820000,-2.240000,-0.560000
19.075911,0.226432,0.019520,1.099952,0.280000,-2.380000,-0.840000
19.083998,0.155672,-0.037576,0.929152,-1.260000,-0.280000,-1.260000
19.092085,0.183000,-0.015128,0.909632,2.660000,-1.400000,-0.280000
19.100173,0.242536,0.001952,1.053104,2.240000,-1.540000,-0.700000
19.108260,0.195688,0.000976,1.015528,-0.840000,-0.700000,-1.400000
19.116347,0.131760,0.020984,0.944280,0.840000,-1.260000,-0.280000
19.124435,0.170312,-0.009272,0.988688,1.260000,1.680000,-1.120000
19.132522,0.223992,-0.019520,1.020896,2.100000,-4.200000,-0.140000
19.140609,0.184464,0.042944,1.037488,0.700000,-2.100000,-0.840000
19.148696,0.139080,-0.011712,0.949160,-0.980000,3.220000,-1.540000
19.156784,0.236680,-0.025376,1.019432,2.100000,-1.960000,-0.420000
19.164871,0.196176,-0.016592,0.970144,0.700000,-2.240000,-0.560000
19.172958,0.157624,-0.005368,0.934520,0.840000,-1.120000,-1.120000
19.181046,0.187392,0.045384,1.025776,1.400000,0.420000,-0.700000
19.189133,0.199104,-0.002440,1.054080,-0.140000,-1.260000,-0.980000
19.197220,0.153232,-0.034648,0.955504,0.280000,-3.080000,-0.280000
19.205307,0.205936,0.035624,0.965752,3.360000,-0.560000,-0.560000
19.213395,0.236192,-0.008784,1.016016,0.280000,0.700000,-1.260000
19.221482,0.213256,-0.010736,1.050664,-0.420000,-1.680000,-0.700000
19.229569,0.130784,-0.007808,0.890600,0.840000,1.400000,-0.840000
19.237657,0.202032,-0.030744,0.918416,1.960000,0.840000,-0.980000
19.245744,0.222528,0.046360,1.141432,1.960000,-2.380000,-0.980000
19.253831,0.122488,0.010736,1.011624,-1.120000,0.000000,-0.980000
19.261918,0.174216,-0.007808,0.877912,0.560000,0.280000,-0.840000
19.270006,0.251808,-0.033184,1.078480,2.940000,-1.820000,-0.420000
19.278093,0.198128,-0.005856,1.010648,0.980000,-2.100000,-0.700000
19.286180,0.182024,0.036600,0.932080,-0.420000,0.700000,-1.400000
19.294268,0.151768,-0.001464,0.941352,1.260000,2.800000,-0.700000
19.302355,0.246440,-0.061488,0.997472,0.840000,-1.120000,-0.420000
19.310442,0.156648,0.047824,1.065304,1.120000,-2.100000,-0.840000
19.318529,0.124928,0.011224,0.979904,0.980000,2.940000,-0.840000
19.326617,0.274744,-0.010736,1.001376,0.980000,-1.260000,-1.120000
19.334704,0.187392,-0.029280,1.042368,0.140000,-1.680000,-0.840000
19.342791,0.167872,-0.017080,0.853512,1.820000,-0.420000,-0.140000
19.350879,0.203008,0.058560,1.033096,2.520000,1.400000,-0.980000
19.358966,0.213256,-0.022448,1.065304,-0.420000,0.140000,-1.260000
19.367053,0.152744,0.000976,0.941840,-0.840000,-0.980000,-0.560000
19.375140,0.156648,0.008784,0.958432,2.520000,1.540000,-0.700000
19.383228,0.257664,-0.032696,1.047736,1.960000,-0.140000,-0.700000
19.391315,0.212768,0.037088,1.041392,-0.700000,-0.980000,-1.120000
19.399402,0.107848,-0.008784,0.933056,0.280000,1.680000,-0.840000
19.407490,0.214720,-0.061488,0.890112,1.540000,1.540000,-0.980000
19.415577,0.232776,0.040992,1.116056,2.240000,-3.080000,-0.420000
19.423664,0.147376,0.029768,1.004304,-0.280000,0.840000,-1.120000
19.431751,0.138104,-0.009760,0.888648,-0.140000,1.960000,-0.840000
19.439839,0.276696,-0.029280,1.051152,1.960000,1.260000,-0.980000
19.447926,0.216184,-0.039040,0.986736,0.560000,-0.560000,-0.700000
19.456013,0.164456,0.051240,0.989176,1.680000,0.140000,-0.560000
19.464101,0.179096,0.007320,0.949648,0.000000,4.060000,-1.400000
19.472188,0.216672,-0.030256,1.022360,0.840000,0.420000,-0.840000
19.480275,0.169824,0.027328,1.028704,1.680000,-1.960000,-0.140000
19.488362,0.139568,0.013176,0.923784,0.980000,3.640000,-1.260000
19.496450,0.255224,0.004392,1.090680,0.840000,1.120000,-1.120000
19.504537,0.218136,-0.040504,0.987224,0.000000,-0.560000,-0.980000
19.512624,0.141520,-0.027816,0.854000,0.560000,1.960000,-0.980000
19.520712,0.210328,0.023424,1.018456,3.360000,2.380000,-0.560000
19.528799,0.203984,0.039040,1.101416,0.560000,2.100000,-0.980000
19.536886,0.134200,-0.006344,0.994056,-1.820000,0.280000,-0.980000
19.544973,0.156648,-0.030744,0.901824,2.240000,2.380000,-0.280000
19.553061,0.270840,-0.023912,0.995520,2.520000,0.420000,-1.120000
19.561148,0.196664,0.037088,1.074576,0.420000,-0.840000,-0.840000
19.569235,0.110288,0.006344,0.916464,-0.280000,2.240000,-0.840000
