Time [s],lsm6dsv16x_acc_x [g],lsm6dsv16x_acc_y [g],lsm6dsv16x_acc_z [g],lsm6dsv16x_gyro_x [dps],lsm6dsv16x_gyro_y [dps],lsm6dsv16x_gyro_z [dps]
10.731878,-0.156160,0.008784,0.934520,2.380000,2.240000,-0.420000
10.735944,-0.193248,0.054656,0.983808,-3.920000,2.240000,0.000000
10.740010,-0.326960,0.077592,0.907192,-0.140000,2.520000,0.980000
10.744076,-0.140544,0.039528,1.049688,1.120000,1.540000,-0.980000
10.748141,-0.212280,0.005856,1.063352,-2.520000,5.320000,0.420000
10.752207,-0.298168,0.026840,0.856440,0.700000,0.140000,-0.700000
10.756273,-0.272304,0.069296,1.026752,3.780000,-0.420000,-1.680000
10.760339,-0.120536,-0.032208,0.990640,-2.520000,2.800000,0.560000
10.764405,-0.379664,0.064904,0.967704,-0.980000,4.060000,-0.280000
10.768471,-0.157624,0.002928,0.933544,1.820000,-0.980000,-0.420000
10.772537,-0.134688,0.045384,1.079456,-2.380000,1.540000,-0.140000
10.776603,-0.304024,0.024400,1.009184,-0.560000,6.580000,-0.420000
10.780669,-0.218624,-0.002440,0.866688,2.940000,-2.380000,-1.120000
10.784735,-0.222040,0.057096,1.011136,-1.960000,1.120000,0.560000
10.788801,-0.304024,-0.002928,0.948184,-2.660000,5.880000,0.000000
10.792867,-0.234240,0.078568,0.964776,1.400000,0.980000,-0.280000
10.796933,-0.163968,0.057096,0.990640,-0.560000,-1.120000,0.000000
10.800998,-0.332328,0.011712,0.985272,-0.560000,2.800000,-1.260000
10.805064,-0.186416,0.021472,0.925248,1.820000,0.000000,-1.120000
10.809130,-0.212280,0.040016,1.012112,-2.100000,-0.560000,-0.140000
10.813196,-0.299144,0.078080,1.031144,-0.700000,3.080000,0.280000
10.817262,-0.179096,0.017080,0.930128,0.980000,1.680000,-0.700000
10.821328,-0.190808,0.066368,1.037000,-1.400000,2.520000,-0.140000
10.825394,-0.272792,0.066368,0.945744,0.700000,1.540000,0.000000
10.829460,-0.295240,0.035624,0.985272,1.960000,2.520000,-1.540000
10.833526,-0.168360,0.015128,0.975512,-2.240000,3.920000,-0.420000
10.837592,-0.276696,0.069784,0.988200,-0.280000,1.680000,0.700000
10.841658,-0.221064,0.038064,0.910608,2.240000,1.400000,-0.840000
10.845724,-0.237656,0.011712,0.968192,-1.400000,2.240000,-0.140000
10.849790,-0.214720,0.086376,1.084336,-0.840000,3.920000,-0.420000
10.853855,-0.238144,0.006832,0.897432,1.680000,1.540000,0.000000
10.857921,-0.274256,0.043432,0.919880,-0.980000,3.220000,-0.980000
10.861987,-0.194712,0.076616,1.066280,0.280000,1.120000,0.280000
10.866053,-0.266448,-0.020984,0.811056,-1.120000,3.080000,0.140000
10.870119,-0.184952,0.081496,1.019432,-0.560000,-0.280000,-1.120000
10.874185,-0.251808,0.062464,1.108248,1.120000,2.380000,0.420000
10.878251,-0.241560,-0.017568,0.830576,-0.420000,4.060000,-1.260000
10.882317,-0.214720,0.022448,1.043832,0.560000,-3.220000,-0.560000
10.886383,-0.259128,0.086376,0.984296,0.280000,2.660000,0.980000
10.890449,-0.235704,0.026352,0.995520,0.000000,4.900000,-1.260000
10.894515,-0.231800,0.076616,0.959408,-1.260000,2.520000,0.560000
10.898581,-0.206424,-0.015616,0.977952,0.280000,0.700000,-1.120000
10.902646,-0.294752,0.001464,1.025776,0.980000,2.800000,-0.280000
10.906712,-0.203496,0.045872,0.913048,-2.100000,1.680000,-0.840000
10.910778,-0.260104,0.056120,1.058960,1.400000,-1.260000,-0.840000
10.914844,-0.173240,-0.023424,0.911584,-0.700000,3.360000,1.680000
10.918910,-0.359168,0.023424,1.009184,-1.960000,4.760000,-1.960000
10.922976,-0.223992,0.059536,1.017968,1.260000,1.400000,1.120000
10.927042,-0.149328,-0.001464,0.877912,-0.140000,-0.840000,-0.700000
10.931108,-0.335256,0.061488,1.007720,-0.980000,3.220000,-0.560000
10.935174,-0.170800,0.105896,1.017968,0.140000,0.840000,-0.700000
10.939240,-0.279624,-0.037576,0.992592,0.280000,2.660000,-0.280000
10.943306,-0.194712,0.039528,0.862296,-2.520000,3.920000,0.280000
10.947372,-0.305976,0.094672,1.107760,1.260000,1.960000,-1.120000
10.951438,-0.184952,0.022448,0.905728,0.700000,2.800000,0.560000
10.955503,-0.299144,0.011712,0.945256,-1.820000,1.260000,-1.260000
10.959569,-0.189344,0.087840,1.029680,2.380000,2.240000,-0.420000
10.963635,-0.186416,0.042944,0.996984,0.980000,2.660000,-0.280000
10.967701,-0.371368,0.004880,0.887672,-2.660000,5.880000,0.420000
10.971767,-0.228384,0.096136,0.947208,1.260000,-0.140000,-0.980000
10.975833,-0.209840,0.026840,1.049688,0.560000,2.100000,0.560000
10.979899,-0.232776,0.041968,0.860832,-4.060000,5.320000,-0.140000
10.983965,-0.296704,0.111752,1.030656,3.220000,-3.220000,-1.820000
10.988031,-0.141520,-0.020496,0.939888,1.680000,0.840000,0.560000
10.992097,-0.273280,0.010248,1.004792,-4.060000,5.040000,-1.120000
10.996163,-0.317688,0.134688,0.980880,2.800000,0.140000,0.420000
11.000229,-0.092232,-0.016104,0.925736,0.700000,0.840000,0.140000
11.004294,-0.307440,0.026352,1.015040,-3.640000,6.020000,-0.280000
11.008360,-0.251808,0.127368,0.949160,1.120000,2.800000,-0.560000
11.012426,-0.229360,0.028792,1.029680,2.660000,-0.560000,-0.980000
11.016492,-0.234728,-0.004392,0.898896,-2.800000,4.200000,-0.140000
11.020558,-0.295728,0.008784,0.979416,0.840000,1.540000,-1.260000
11.024624,-0.165432,0.087352,1.047248,1.960000,0.420000,0.980000
11.028690,-0.272304,-0.008784,0.877424,-3.360000,4.200000,0.140000
11.032756,-0.362096,0.014152,1.069696,0.420000,1.820000,-1.260000
11.036822,-0.091744,0.021472,0.972584,1.400000,-0.980000,0.560000
11.040888,-0.286944,0.001464,0.993080,-2.520000,1.400000,-1.680000
11.044954,-0.268888,0.035624,1.008208,1.260000,0.280000,-0.280000
11.049020,-0.226920,-0.021960,0.959896,0.980000,0.700000,-0.840000
11.053086,-0.187880,0.044896,0.945744,-3.780000,3.220000,0.700000
11.057151,-0.346480,0.016104,0.960384,0.420000,1.540000,-0.420000
11.061217,-0.176168,0.071736,1.020896,1.680000,1.120000,-0.560000
11.065283,-0.261568,0.075640,0.938424,-1.400000,2.100000,-0.420000
11.069349,-0.361120,0.020984,0.912560,-0.140000,0.420000,-0.840000
11.073415,-0.145424,0.030744,1.013088,1.260000,-0.560000,-0.700000
11.077481,-0.223992,0.074176,0.967216,-3.920000,4.620000,0.840000
11.081547,-0.337208,0.066856,0.956480,0.000000,1.400000,-0.980000
11.085613,-0.199104,0.043920,0.999912,3.640000,-1.680000,-0.420000
11.089679,-0.169336,0.001952,0.989176,-3.080000,3.640000,-0.280000
11.093745,-0.361120,0.021960,0.938912,-0.840000,2.240000,-0.420000
11.097811,-0.138592,0.084912,1.014064,2.100000,-0.420000,-0.140000
11.101877,-0.207400,0.030744,1.070184,-2.660000,5.320000,-0.140000
11.105943,-0.309392,0.058560,0.883768,-1.960000,4.900000,0.140000
11.110008,-0.288896,0.000000,0.926712,3.780000,-0.560000,-1.400000
11.114074,-0.124928,0.043432,1.038464,-1.400000,0.980000,0.140000
11.118140,-0.345016,0.033184,0.985272,-2.800000,7.000000,-0.840000
11.122206,-0.232776,0.052704,0.920856,2.940000,-0.140000,0.000000
11.126272,-0.139080,0.013176,0.990640,-0.840000,0.000000,-0.420000
11.130338,-0.379176,0.047824,0.973560,-3.360000,6.860000,0.560000
11.134404,-0.229360,0.079544,0.938912,2.660000,0.560000,-1.400000
11.138470,-0.198128,-0.010736,1.045784,-0.420000,0.700000,0.280000
11.142536,-0.282552,0.020984,0.920368,-2.520000,4.900000,-0.560000
11.146602,-0.289384,0.058560,1.047248,3.640000,0.420000,-1.540000
11.150668,-0.182024,0.000488,0.893528,-1.540000,0.700000,1.260000
11.154734,-0.289872,0.048800,0.975024,-2.660000,3.780000,-0.420000
11.158799,-0.265472,0.044896,1.068232,4.340000,1.540000,-0.980000
11.162865,-0.128344,0.035624,0.963800,-1.680000,3.780000,0.280000
11.166931,-0.336720,0.052216,0.918904,-1.960000,2.240000,-0.840000
11.170997,-0.286456,0.080032,0.961848,2.800000,1.680000,-0.700000
11.175063,-0.177144,0.003904,1.046760,-1.820000,4.200000,-0.420000
11.179129,-0.326472,0.002928,0.889136,-3.220000,4.060000,0.840000
11.183195,-0.244488,0.039528,0.899872,2.520000,-1.960000,-0.980000
11.187261,-0.198128,0.034160,1.120448,-0.560000,0.700000,-0.280000
11.191327,-0.260104,0.036112,0.901824,-3.080000,4.340000,0.840000
11.195393,-0.311344,0.071248,1.010160,3.080000,-0.140000,-1.960000
11.199459,-0.152744,0.007808,0.944280,-0.560000,1.680000,0.700000
11.203525,-0.259128,0.045384,0.965752,-4.200000,5.320000,-0.420000
11.207591,-0.398208,0.052704,0.979904,1.960000,2.520000,-0.420000
11.211656,-0.155184,0.053192,0.903776,-0.560000,1.960000,-0.420000
11.215722,-0.321104,0.008784,1.009672,-1.400000,0.280000,-0.700000
11.219788,-0.259616,0.009760,0.895480,1.540000,1.960000,0.000000
11.223854,-0.180560,0.113216,1.024312,-0.280000,-1.960000,-1.120000
11.227920,-0.284504,0.057584,1.007720,-1.120000,3.080000,1.120000
11.231986,-0.264008,0.007808,0.798856,0.280000,2.940000,-1.400000
11.236052,-0.216672,0.116632,1.093608,0.000000,-1.540000,-0.700000
11.240118,-0.211792,0.049288,0.955016,-1.960000,2.240000,1.120000
11.244184,-0.411384,0.024888,1.002352,0.840000,3.640000,-1.680000
11.248250,-0.076128,0.081984,0.942328,0.140000,0.560000,0.000000
11.252316,-0.253272,0.048800,0.997472,-1.400000,1.680000,0.140000
11.256382,-0.311832,0.025376,0.971608,1.400000,5.600000,-0.700000
11.260447,-0.184952,0.046848,0.891576,-0.420000,1.680000,-0.420000
11.264513,-0.267912,0.063928,1.054080,-2.100000,1.400000,0.000000
11.268579,-0.303536,0.003904,0.902312,0.000000,2.800000,0.000000
11.272645,-0.210816,0.041968,1.105808,1.260000,1.820000,-1.820000
11.276711,-0.223016,0.023424,0.944280,-0.560000,1.960000,0.700000
11.280777,-0.329888,-0.014152,0.896944,0.840000,2.240000,-0.980000
11.284843,-0.237168,0.081496,0.999912,-0.140000,3.500000,-0.420000
11.288909,-0.160552,0.060512,1.037976,-2.240000,2.380000,-0.140000
11.292975,-0.320616,-0.019520,0.947696,0.980000,2.940000,0.560000
11.297041,-0.231312,0.022448,0.934032,1.680000,0.840000,-1.400000
11.301107,-0.277672,0.076128,1.065792,0.560000,1.960000,-0.840000
11.305173,-0.244000,0.014640,0.835944,-0.980000,4.340000,0.700000
11.309239,-0.288896,0.036112,1.031144,-0.280000,3.220000,-1.120000
11.313304,-0.176656,0.072712,1.028704,-1.120000,1.680000,0.980000
11.317370,-0.301584,-0.055144,0.959408,1.540000,2.660000,-1.120000
11.321436,-0.296216,-0.006832,0.917440,0.840000,1.680000,-0.280000
11.325502,-0.178608,0.134688,1.053592,-0.420000,0.980000,-1.120000
11.329568,-0.294264,0.048800,0.908656,0.420000,5.460000,1.260000
11.333634,-0.276208,0.003904,0.904752,-1.260000,4.340000,-1.400000
11.337700,-0.247416,0.096136,1.072624,-1.120000,1.260000,0.420000
11.341766,-0.291336,0.021960,0.932080,0.980000,4.200000,-0.700000
11.345832,-0.246440,-0.014640,0.920856,0.140000,-0.140000,-0.700000
11.349898,-0.247904,0.124440,1.003328,-0.560000,1.820000,0.000000
11.353964,-0.256688,0.093208,1.001864,0.840000,5.040000,-0.560000
11.358030,-0.325496,-0.035624,0.928664,-0.420000,4.620000,-0.420000
11.362096,-0.187880,0.067344,0.992592,-1.680000,1.260000,-0.280000
11.366161,-0.254248,0.039528,0.969168,1.260000,1.820000,0.280000
11.370227,-0.284016,0.030256,0.916464,-0.280000,5.180000,-0.560000
11.374293,-0.215696,0.093208,1.023824,0.140000,0.700000,-1.260000
11.378359,-0.304512,0.039528,0.943792,1.820000,3.920000,0.700000
11.382425,-0.231312,0.008296,0.871080,-1.400000,2.940000,-1.120000
11.386491,-0.309880,0.103944,1.090680,-0.700000,2.380000,-0.280000
11.390557,-0.196664,0.039040,0.875960,0.700000,3.640000,0.840000
11.394623,-0.262544,-0.036600,0.966240,-1.260000,0.140000,-1.540000
11.398689,-0.344040,0.080032,1.009672,-0.140000,3.360000,-0.980000
11.402755,-0.180072,0.056608,0.944280,0.840000,1.400000,0.000000
11.406821,-0.298656,0.040504,0.981368,-0.980000,-0.420000,-0.700000
11.410887,-0.214232,0.063440,1.009672,0.560000,2.660000,0.140000
11.414952,-0.224480,0.055144,0.956480,0.420000,3.920000,-0.140000
11.419018,-0.304512,0.026840,0.971120,-0.840000,4.200000,-0.560000
11.423084,-0.267424,0.091256,0.939888,-0.840000,3.080000,0.280000
11.427150,-0.283040,0.045384,0.990640,1.120000,3.640000,-1.120000
11.431216,-0.178120,0.007808,0.884744,-1.820000,1.400000,0.140000
11.435282,-0.348920,0.060512,1.061400,1.120000,0.420000,-1.120000
11.439348,-0.236192,0.028304,0.952088,1.820000,3.920000,0.000000
11.443414,-0.217648,0.001952,0.926224,-2.240000,2.240000,-0.420000
11.447480,-0.281576,0.108336,1.001864,-0.700000,3.780000,0.560000
11.451546,-0.207888,0.060024,0.963312,2.380000,0.980000,-1.120000
11.455612,-0.276696,-0.035624,1.045296,-0.980000,3.920000,-0.700000
11.459678,-0.310368,0.026352,0.894992,-1.540000,4.620000,-0.420000
11.463744,-0.224480,0.085888,1.016016,2.800000,-0.280000,-0.980000
11.467809,-0.242048,-0.004880,0.900848,-1.540000,3.500000,1.400000
11.471875,-0.353800,0.072712,0.995520,-1.540000,5.320000,-1.960000
11.475941,-0.213256,0.038064,1.012112,2.800000,-0.840000,0.560000
11.480007,-0.253272,-0.011712,0.879376,-3.360000,3.920000,0.140000
11.484073,-0.386496,0.109800,1.082872,0.980000,1.680000,-1.960000
11.488139,-0.131760,0.004880,0.920368,2.520000,-0.560000,0.420000
11.492205,-0.278648,-0.001464,0.990152,-3.780000,4.200000,-1.120000
11.496271,-0.356240,0.037088,0.993568,0.840000,1.680000,0.280000
11.500337,-0.142008,0.055144,0.975512,1.400000,1.540000,-0.700000
11.504403,-0.247904,-0.002928,0.969168,-2.800000,3.920000,0.000000
11.508469,-0.380152,0.089792,0.917440,0.000000,5.040000,-0.420000
11.512535,-0.187880,0.040504,1.057496,3.640000,-2.100000,-0.980000
11.516601,-0.277184,-0.013664,0.938912,-2.660000,4.060000,0.560000
11.520666,-0.330376,0.095160,0.895480,-0.980000,4.340000,-0.980000
11.524732,-0.185928,0.071248,1.058960,3.780000,-0.420000,-0.420000
11.528798,-0.206424,-0.010248,0.956480,-2.940000,6.580000,0.420000
11.532864,-0.416752,0.014640,0.918904,-0.980000,5.040000,-0.840000
11.536930,-0.227896,0.104432,0.969656,3.920000,-1.120000,-0.700000
11.540996,-0.171288,-0.002440,1.014064,-2.380000,0.560000,0.000000
11.545062,-0.439200,0.036600,0.915488,-1.680000,6.440000,-0.140000
11.549128,-0.157624,0.154208,0.910120,3.500000,-0.140000,-0.840000
11.553194,-0.241560,0.008784,1.041392,-1.820000,1.960000,0.000000
11.557260,-0.425536,-0.002440,0.822280,-2.100000,6.580000,0.140000
11.561326,-0.219600,0.120048,1.104344,3.500000,-1.820000,-2.380000
11.565392,-0.165432,-0.036600,0.932080,-1.540000,1.960000,1.400000
11.569458,-0.379176,0.043920,0.835456,-1.540000,3.080000,-0.840000
11.573523,-0.210816,0.178608,1.122888,5.180000,-1.680000,-1.120000
11.577589,-0.119560,-0.027328,0.894016,-4.480000,4.900000,1.820000
11.581655,-0.467016,0.087840,0.968192,-1.260000,5.460000,-1.400000
11.585721,-0.201544,0.093696,1.008696,5.320000,1.260000,-0.700000
11.589787,-0.167872,-0.048800,0.899872,-4.200000,3.500000,0.280000
11.593853,-0.432368,0.093208,1.031144,-0.980000,5.040000,-0.700000
11.597919,-0.179584,0.107848,0.917928,4.200000,0.840000,-0.140000
11.601985,-0.244000,0.000488,1.012112,-2.520000,3.920000,-0.700000
11.606051,-0.334768,0.017568,0.862784,-1.400000,3.920000,0.000000
11.610117,-0.270840,0.119072,1.004792,4.200000,-1.820000,-1.540000
11.614183,-0.224480,0.009272,1.018456,-1.260000,2.940000,0.700000
11.618249,-0.353800,0.082960,0.829600,-1.120000,4.480000,-0.140000
11.622315,-0.245464,0.069296,1.082872,3.920000,0.560000,-1.680000
11.626380,-0.086376,-0.006344,0.935496,-3.500000,2.380000,2.100000
11.630446,-0.462136,0.069784,0.998448,-1.400000,6.720000,-1.680000
11.634512,-0.231800,0.060024,0.921832,4.060000,0.280000,-0.280000
11.638578,-0.183488,-0.064904,0.961848,-2.520000,2.380000,-0.280000
11.642644,-0.402112,0.081496,0.944280,-0.840000,3.500000,0.140000
11.646710,-0.210328,0.102480,1.019920,3.360000,0.140000,-1.820000
11.650776,-0.181048,-0.071248,0.991128,-2.660000,1.680000,0.980000
11.654842,-0.383568,0.112240,0.908168,-1.820000,5.880000,-0.700000
11.658908,-0.309880,0.012200,1.012600,3.360000,-0.140000,-1.680000
11.662974,-0.199592,-0.067344,0.989664,-1.680000,2.240000,0.140000
11.667040,-0.352336,0.075640,0.965264,-1.400000,1.820000,-0.560000
11.671106,-0.270840,-0.006344,0.997960,2.380000,0.000000,0.140000
11.675171,-0.146400,0.043920,0.997472,-1.120000,2.380000,-0.560000
11.679237,-0.366976,0.052216,0.955016,-0.980000,3.500000,0.420000
11.683303,-0.323544,0.046360,0.910120,1.960000,3.500000,-1.680000
11.687369,-0.168360,0.064904,0.997472,-0.980000,-0.280000,-0.980000
11.691435,-0.313784,0.031232,0.933056,-2.660000,3.360000,0.420000
11.695501,-0.398208,0.027328,0.889136,1.680000,4.620000,-1.400000
11.699567,-0.146888,0.078568,0.983808,-0.560000,-0.560000,0.140000
11.703633,-0.306464,0.038064,0.938424,-2.380000,1.540000,0.980000
11.707699,-0.369416,0.062464,0.926712,1.400000,2.940000,-1.260000
11.711765,-0.157136,0.097112,1.020896,1.540000,-3.080000,-1.400000
11.715831,-0.240584,0.007808,0.987712,-1.680000,1.260000,0.840000
11.719897,-0.402600,0.063440,0.842288,-0.140000,5.180000,-1.820000
11.723963,-0.202032,0.082960,1.024800,0.840000,0.140000,-0.140000
11.728028,-0.268400,0.032208,0.969168,-2.940000,1.400000,0.840000
11.732094,-0.359168,-0.018056,0.843752,0.000000,2.660000,-0.840000
11.736160,-0.159088,0.103944,1.023824,0.420000,-2.240000,-0.420000
11.740226,-0.305976,0.076616,1.090192,-0.140000,0.140000,-0.140000
11.744292,-0.382592,-0.040016,0.836432,0.560000,3.080000,-0.840000
11.748358,-0.234728,0.000000,0.924760,-0.560000,-1.260000,-1.260000
11.752424,-0.180072,0.112240,1.094584,-2.660000,-1.540000,1.120000
11.756490,-0.370880,0.022448,0.932080,-0.700000,2.940000,-0.280000
11.760556,-0.304024,0.039040,0.917440,1.260000,1.260000,-2.240000
11.764622,-0.116144,0.019032,1.044320,-1.540000,-1.820000,0.700000
11.768688,-0.393328,0.079544,0.948672,-0.840000,3.500000,0.000000
11.772754,-0.271816,0.071248,0.806664,1.400000,-0.420000,-0.560000
11.776820,-0.274256,0.094184,1.102392,-1.120000,-0.980000,-1.120000
11.780885,-0.234728,0.054168,0.926712,-1.680000,1.400000,0.980000
11.784951,-0.304512,0.052216,0.897432,0.000000,2.380000,-1.540000
11.789017,-0.213256,0.054168,0.991128,-0.700000,-0.560000,0.420000
11.793083,-0.317200,0.078568,1.018944,-0.280000,1.260000,-0.560000
11.797149,-0.276696,-0.009760,0.929152,1.400000,0.700000,-0.560000
11.801215,-0.237656,0.001952,0.992592,-1.820000,-0.140000,-0.980000
11.805281,-0.316712,0.074664,1.079456,-0.700000,-0.420000,0.560000
11.809347,-0.260592,-0.043920,0.872056,-0.280000,1.540000,-0.280000
11.813413,-0.285968,0.002928,0.976488,-2.380000,0.560000,-1.540000
11.817479,-0.246440,0.083448,1.061400,1.120000,-1.400000,0.000000
11.821545,-0.342088,-0.011224,0.905728,0.280000,2.940000,-0.560000
11.825611,-0.289872,0.017568,0.874008,-1.680000,-1.680000,-0.560000
11.829677,-0.264008,0.147376,0.969168,-0.840000,-0.420000,-0.560000
11.833742,-0.222528,0.036600,0.925736,-0.840000,-0.420000,0.560000
11.837808,-0.317200,0.037576,0.961848,-1.540000,1.820000,-0.560000
11.841874,-0.282552,0.104432,1.016016,0.700000,-1.540000,-0.980000
11.845940,-0.255224,0.040504,0.979904,1.260000,0.420000,0.000000
11.850006,-0.287920,-0.030256,0.903288,-2.100000,1.260000,-0.560000
11.854072,-0.307440,0.097600,0.973560,-0.700000,-1.120000,-0.420000
11.858138,-0.247416,0.046360,1.021384,0.420000,0.000000,-0.140000
11.862204,-0.219112,-0.009760,0.921344,-2.240000,1.120000,-0.140000
11.866270,-0.381616,0.063928,0.962824,-1.120000,-0.420000,-1.120000
11.870336,-0.252784,0.069296,0.998448,1.260000,-1.120000,-0.280000
11.874402,-0.222040,0.011712,0.961360,-2.660000,1.680000,0.000000
11.878468,-0.337208,0.040992,0.857416,-2.100000,-0.280000,0.000000
11.882534,-0.367464,0.131272,1.067256,3.360000,-1.120000,-1.400000
11.886599,-0.097112,0.003904,0.856440,-1.120000,-1.680000,0.700000
11.890665,-0.368440,0.079544,0.955016,-3.780000,1.960000,-0.280000
11.894731,-0.220576,0.166408,1.025288,2.660000,-1.540000,-0.560000
11.898797,-0.167872,-0.002440,1.003816,-0.140000,-0.980000,-0.560000
11.902863,-0.373808,-0.011712,0.860344,-4.480000,3.360000,0.000000
11.906929,-0.389424,0.080520,1.015040,1.680000,-0.700000,-1.540000
11.910995,-0.134688,-0.030744,1.023336,0.700000,-5.180000,0.980000
11.915061,-0.326472,-0.030256,0.954040,-4.200000,2.240000,-0.280000
11.919127,-0.378688,0.057096,0.964776,1.120000,0.000000,-1.260000
11.923193,-0.180072,0.001952,1.024312,2.100000,-5.460000,-0.420000
11.927259,-0.313296,-0.026352,0.893528,-4.060000,1.120000,0.560000
11.931325,-0.366488,0.132736,0.883768,-1.820000,-1.680000,-1.120000
11.935391,-0.187392,0.083936,0.976000,2.100000,-4.340000,0.560000
11.939456,-0.203984,0.023912,1.013088,-3.780000,0.840000,0.420000
11.943522,-0.360632,0.139568,1.050176,0.560000,1.260000,-1.400000
11.947588,-0.240096,-0.009272,0.874008,3.080000,-1.680000,-0.420000
11.951654,-0.216672,0.013176,0.954528,-3.080000,1.120000,0.000000
11.955720,-0.357216,0.086864,0.941840,-2.240000,1.400000,0.140000
11.959786,-0.315736,0.052704,1.023336,1.540000,-1.400000,-1.540000
11.963852,-0.135664,-0.012688,0.998448,-1.260000,-1.120000,0.420000
11.967918,-0.359168,0.011712,0.914024,-3.360000,0.700000,-0.560000
11.971984,-0.379664,0.088328,0.922808,2.380000,0.140000,-0.840000
11.976050,-0.133224,0.051728,0.978440,-0.280000,-1.680000,-0.420000
11.980116,-0.337696,0.071736,0.952088,-4.200000,1.120000,0.280000
11.984182,-0.338672,0.071736,0.946232,0.700000,-1.400000,-0.700000
11.988247,-0.209352,0.083448,0.953064,1.120000,-2.240000,-0.560000
11.992313,-0.146400,0.047336,1.016016,-3.920000,0.140000,0.840000
11.996379,-0.448472,0.077104,0.964288,0.840000,1.680000,-0.560000
12.000445,-0.198616,0.009272,0.894504,2.940000,-2.940000,-1.120000
12.004511,-0.211792,0.041480,1.099952,-3.500000,-0.420000,-0.280000
12.008577,-0.342088,0.018056,0.966728,-1.540000,1.540000,0.700000
12.012643,-0.278160,0.000000,0.999912,1.960000,-0.420000,-1.820000
12.016709,-0.169336,0.018056,0.981368,-2.100000,-0.420000,0.700000
12.020775,-0.375760,-0.006832,0.961848,-1.680000,1.400000,-0.700000
12.024841,-0.281576,0.009272,0.868152,1.820000,-2.100000,-0.140000
12.028907,-0.223992,0.076128,1.050664,-1.680000,-0.840000,-0.560000
12.032973,-0.348432,0.074176,0.965264,-1.120000,0.840000,0.420000
12.037039,-0.335744,-0.002440,0.813008,0.560000,0.000000,-0.980000
12.041104,-0.224480,0.117120,0.965752,-0.840000,-1.680000,-0.420000
12.045170,-0.243512,0.124440,1.045784,-2.660000,-1.540000,0.140000
12.049236,-0.397720,-0.000488,0.828136,-0.420000,0.000000,-0.140000
12.053302,-0.172264,0.017080,1.013576,0.560000,-3.500000,-1.680000
12.057368,-0.220088,0.055632,1.130696,-1.400000,-0.840000,0.700000
12.061434,-0.370880,-0.008784,0.859856,0.420000,2.660000,-0.280000
12.065500,-0.274744,0.067344,0.943792,0.420000,-1.820000,-0.280000
12.069566,-0.169336,0.092232,0.990640,-3.080000,-0.560000,0.420000
12.073632,-0.361608,0.072224,1.080432,-1.120000,2.520000,-0.840000
12.077698,-0.253760,-0.037088,0.827648,0.840000,1.260000,-0.700000
12.081764,-0.284016,0.039040,0.987224,-0.980000,-2.380000,-1.120000
12.085830,-0.301096,0.115656,0.972096,0.420000,1.400000,0.700000
12.089896,-0.298168,0.036112,0.865712,-1.400000,2.240000,-0.560000
12.093961,-0.182512,0.122488,0.957944,-1.680000,-2.800000,0.000000
12.098027,-0.262544,0.097112,1.073600,0.280000,0.980000,-0.140000
12.102093,-0.317688,-0.012688,0.868152,0.280000,2.940000,-1.400000
12.106159,-0.226920,0.034160,1.023824,-0.700000,-3.500000,-0.700000
12.110225,-0.299632,0.044896,1.027240,-0.420000,0.700000,0.700000
12.114291,-0.311832,-0.033672,0.925736,-0.140000,4.060000,-0.840000
12.118357,-0.225456,0.025864,0.977952,-1.400000,-2.940000,-0.280000
12.122423,-0.289384,0.069296,1.002840,0.000000,-2.380000,-0.140000
12.126489,-0.349896,-0.046848,0.962336,0.280000,1.960000,-0.700000
12.130555,-0.218624,0.038552,0.907192,-2.240000,-1.540000,-0.700000
12.134621,-0.337696,0.117608,1.057984,0.000000,-1.540000,-0.140000
12.138687,-0.213744,0.015128,0.891088,0.700000,0.000000,0.140000
12.142753,-0.319640,0.004880,0.939888,-2.800000,2.240000,-0.840000
12.146818,-0.266448,0.146400,0.948672,0.000000,-1.680000,0.000000
12.150884,-0.258152,0.044408,1.021384,0.840000,0.140000,-0.140000
12.154950,-0.276208,-0.005856,0.849120,-1.120000,1.260000,-0.280000
12.159016,-0.322568,0.122976,1.047248,-0.420000,-0.700000,-1.540000
12.163082,-0.194224,0.046848,0.982832,0.560000,-1.680000,1.400000
12.167148,-0.298168,-0.058072,0.853512,-3.080000,3.220000,-1.120000
12.171214,-0.350872,0.090280,1.044320,-0.700000,-1.400000,-0.420000
12.175280,-0.216672,0.064904,1.024312,1.400000,-0.700000,0.000000
12.179346,-0.255224,-0.019520,0.849120,-2.940000,-0.980000,0.280000
12.183412,-0.350384,0.082960,0.992592,-0.700000,0.280000,-1.540000
12.187478,-0.261080,0.141032,1.005280,1.680000,-0.560000,-0.140000
12.191544,-0.214720,0.037088,0.907192,-1.960000,1.820000,-0.280000
12.195610,-0.321104,0.066368,0.919392,-2.660000,1.260000,-0.420000
12.199675,-0.321104,0.081008,0.996496,1.820000,-2.380000,-0.980000
12.203741,-0.164944,-0.005368,1.022360,-0.700000,-2.100000,0.140000
12.207807,-0.322568,0.013176,0.922320,-1.680000,1.120000,0.280000
12.211873,-0.348920,0.087352,1.013088,2.100000,0.840000,-1.540000
12.215939,-0.141520,-0.011712,1.030656,1.680000,-3.920000,0.700000
12.220005,-0.292312,-0.036600,0.910608,-4.760000,2.520000,-0.140000
12.224071,-0.373808,0.096136,0.958920,-1.260000,-1.120000,-1.120000
12.228137,-0.204472,-0.041968,1.032608,0.980000,-2.100000,-0.280000
12.232203,-0.293776,-0.033672,0.927200,-3.920000,1.820000,0.280000
12.236269,-0.404064,0.104920,0.874008,-0.700000,-0.980000,-1.120000
12.240335,-0.212280,0.119560,0.947208,3.220000,-3.080000,0.000000
12.244401,-0.201056,0.054168,0.980392,-2.800000,0.420000,0.000000
12.248466,-0.353800,0.095160,0.943304,-2.100000,0.000000,-0.280000
12.252532,-0.239120,0.067832,1.008208,2.660000,-2.380000,-0.980000
12.256598,-0.210816,-0.003416,1.022360,-1.680000,1.260000,-0.420000
12.260664,-0.293776,0.013176,0.890112,-3.920000,1.400000,0.420000
12.264730,-0.446032,0.036112,0.939400,2.380000,-1.400000,-0.980000
12.268796,-0.123464,0.027816,1.052616,1.120000,-1.820000,-0.560000
12.272862,-0.292312,0.058560,0.968192,-4.620000,2.660000,0.980000
12.276928,-0.371368,0.122976,0.830088,1.680000,0.560000,-1.260000
12.280994,-0.139568,0.111264,0.981856,2.100000,-3.920000,-0.700000
12.285060,-0.250344,-0.008296,0.982344,-5.040000,2.240000,0.840000
12.289126,-0.454816,0.119072,0.952576,0.140000,1.680000,-1.820000
12.293192,-0.177144,0.013176,0.912560,3.360000,-6.020000,0.140000
12.297258,-0.220088,-0.005368,1.037000,-4.200000,2.100000,-0.280000
12.301323,-0.385520,0.055632,0.947696,-0.140000,-1.120000,0.280000
12.305389,-0.254248,-0.043920,1.009184,2.240000,-3.080000,-0.840000
12.309455,-0.142496,-0.009760,1.056032,-3.220000,-0.140000,-0.280000
12.313521,-0.396744,0.105896,0.988200,-0.980000,0.700000,-0.140000
12.317587,-0.373320,-0.005368,0.842288,1.540000,-2.520000,-1.120000
12.321653,-0.185928,0.031232,0.944280,-2.940000,-2.240000,-0.700000
12.325719,-0.281576,0.137616,1.031632,-3.220000,0.420000,0.280000
12.329785,-0.329400,0.027816,0.850096,1.260000,1.540000,0.420000
12.333851,-0.218624,0.036600,0.930128,0.420000,-2.800000,-1.120000
12.337917,-0.200568,0.097112,1.050664,-1.540000,-1.960000,0.280000
12.341983,-0.368928,0.047824,0.940376,-0.140000,2.520000,-0.420000
12.346049,-0.172264,0.007808,0.938912,-0.140000,-1.960000,-1.260000
12.350115,-0.248392,0.089304,1.036024,-2.800000,-0.560000,0.560000
12.354180,-0.437736,-0.084424,0.987712,-0.140000,2.100000,-0.560000
12.358246,-0.226432,0.023424,0.906216,0.140000,-2.380000,-0.980000
12.362312,-0.227408,0.056120,0.982832,-2.100000,-4.060000,0.840000
12.366378,-0.418704,0.107848,0.996984,-1.120000,2.940000,-0.420000
12.370444,-0.240096,0.042944,0.839848,1.540000,-3.220000,-0.700000
12.374510,-0.211792,0.114680,0.951600,-2.520000,-2.660000,-0.140000
12.378576,-0.253272,0.158112,1.062376,-0.280000,0.140000,0.000000
12.382642,-0.340624,-0.042456,0.908656,1.120000,0.420000,-1.120000
12.386708,-0.211304,0.000976,1.031144,-1.820000,-1.960000,-0.560000
12.390774,-0.223504,0.058560,1.025776,-1.400000,-1.400000,0.980000
12.394840,-0.359656,-0.034648,0.915000,0.140000,1.960000,-0.700000
12.398906,-0.258152,-0.033184,0.969168,-0.700000,-1.680000,-0.420000
12.402972,-0.308416,0.086376,1.015040,-0.560000,-1.960000,-0.140000
12.407037,-0.262056,0.029768,0.909144,0.560000,0.700000,-0.560000
12.411103,-0.234728,0.044408,0.931104,-1.400000,-0.840000,-0.700000
12.415169,-0.266936,0.145424,1.017480,-1.540000,0.420000,-0.280000
12.419235,-0.267424,0.109800,0.980392,0.980000,1.680000,-0.140000
12.423301,-0.285968,-0.048312,0.893040,-1.120000,3.500000,-0.700000
12.427367,-0.313784,0.083936,0.981368,-1.540000,0.560000,-0.560000
12.431433,-0.273768,0.124440,0.990640,1.680000,-1.680000,0.560000
12.435499,-0.232776,-0.034160,0.896456,-1.120000,1.540000,-0.700000
12.439565,-0.327448,0.061488,1.010648,-1.960000,-0.420000,-1.260000
12.443631,-0.221552,0.065392,1.030656,1.260000,-2.660000,0.700000
12.447697,-0.279624,-0.065392,0.916952,-2.660000,3.220000,-0.700000
12.451763,-0.335256,0.045872,0.972584,-1.260000,-0.700000,-0.840000
12.455829,-0.292312,0.074664,1.008696,2.100000,-1.540000,0.000000
12.459894,-0.243512,0.005368,0.871080,-0.840000,-1.400000,0.140000
12.463960,-0.277672,0.089304,1.001864,-3.220000,0.280000,-1.120000
12.468026,-0.245464,0.115168,0.969168,0.560000,-2.800000,0.420000
12.472092,-0.242536,0.016104,0.972584,-0.280000,1.120000,-0.280000
12.476158,-0.304024,0.001952,0.918904,-1.540000,2.100000,-0.700000
12.480224,-0.350872,0.092720,0.988200,0.700000,-0.700000,-0.280000
12.484290,-0.170312,0.023912,1.003816,0.000000,-0.560000,0.280000
12.488356,-0.274256,0.008296,0.946720,-3.080000,1.400000,-0.700000
12.492422,-0.342576,0.072712,0.979904,1.120000,-1.260000,-1.120000
12.496488,-0.206912,0.007320,1.014552,1.680000,0.000000,-0.700000
12.500554,-0.286456,-0.052704,0.899384,-3.920000,1.680000,0.980000
12.504620,-0.418216,0.092720,0.978440,-0.560000,0.840000,-1.120000
12.508686,-0.218136,0.048800,1.010160,2.940000,-2.800000,0.140000
12.512751,-0.199104,-0.042944,0.908656,-3.220000,0.000000,-0.140000
12.516817,-0.408456,0.107360,0.917928,-1.120000,-0.280000,-0.980000
12.520883,-0.228872,0.120048,0.949648,1.540000,-1.260000,-0.840000
12.524949,-0.173240,0.049288,0.912072,-3.220000,0.140000,0.700000
12.529015,-0.391864,0.110288,0.921832,-1.540000,2.940000,-0.280000
12.533081,-0.284504,0.101016,1.025288,3.080000,-2.100000,-1.400000
12.537147,-0.137128,0.006832,0.920368,-1.820000,-0.420000,0.980000
12.541213,-0.393816,0.097600,1.043832,-2.940000,1.680000,-1.120000
12.545279,-0.286944,-0.015128,1.013088,2.520000,-1.400000,-0.420000
12.549345,-0.183976,-0.028304,1.005768,-1.400000,0.140000,-0.840000
12.553411,-0.304024,0.008296,0.940376,-3.500000,-0.560000,0.560000
12.557477,-0.372832,0.031232,0.963312,0.840000,-0.140000,-1.260000
12.561543,-0.128832,0.054168,0.964776,0.420000,0.140000,0.140000
12.565608,-0.305000,0.074664,0.985760,-2.380000,0.560000,-0.560000
12.569674,-0.406504,0.057096,0.870592,0.280000,-0.420000,-0.140000
12.573740,-0.187880,0.003904,0.993568,2.380000,-2.800000,-1.540000
12.577806,-0.210816,0.107848,1.002352,-3.500000,0.840000,1.540000
12.581872,-0.393816,0.022936,0.942816,-0.980000,3.500000,-0.560000
12.585938,-0.288896,0.030744,0.927200,3.220000,-1.960000,-1.260000
12.590004,-0.171288,-0.028304,0.961360,-2.100000,-1.680000,0.140000
12.594070,-0.347944,0.077592,1.008208,-4.060000,2.380000,0.000000
12.598136,-0.313296,0.053680,0.916952,2.660000,-2.940000,-1.120000
12.602202,-0.214232,-0.052216,1.000400,-1.260000,-1.400000,-0.420000
12.606268,-0.322568,0.054168,0.890112,-3.920000,1.260000,0.420000
12.610334,-0.388448,0.171288,0.919880,1.400000,-1.960000,-0.700000
12.614400,-0.153720,0.056120,0.962824,1.260000,-1.680000,-0.560000
12.618465,-0.156160,0.095160,1.021872,-4.480000,0.140000,0.000000
12.622531,-0.428952,0.102480,0.982832,1.120000,1.260000,-0.140000
12.626597,-0.204472,0.017080,0.934032,1.400000,1.260000,-1.540000
12.630663,-0.223504,0.022936,1.059448,-2.660000,-1.120000,0.700000
12.634729,-0.362096,0.024400,0.947696,-1.400000,1.680000,0.140000
12.638795,-0.337696,-0.036112,0.963312,2.940000,-1.960000,-1.400000
12.642861,-0.094184,0.005368,1.043344,-2.100000,-1.540000,-0.560000
12.646927,-0.409432,0.029280,0.984296,-2.100000,1.540000,0.280000
12.650993,-0.314272,0.009760,0.840824,1.400000,0.280000,-0.560000
12.655059,-0.173728,0.053680,1.023336,-2.100000,-2.240000,-1.120000
12.659125,-0.329888,0.124928,0.935496,-1.680000,1.260000,1.120000
12.663191,-0.358192,0.022936,0.876936,1.400000,0.420000,-1.260000
12.667257,-0.177632,0.077104,0.955016,0.280000,-2.940000,-0.420000
12.671322,-0.211792,0.109312,1.033584,-2.800000,0.560000,0.560000
12.675388,-0.430416,0.038552,0.868640,0.840000,0.980000,-0.560000
12.679454,-0.222040,0.009760,0.932080,0.700000,-1.120000,-1.400000
12.683520,-0.213256,0.053680,1.084336,-3.500000,-1.540000,0.700000
12.687586,-0.365512,0.023424,0.933056,-0.980000,0.420000,0.000000
12.691652,-0.329888,0.027816,0.880840,1.260000,-2.100000,-1.120000
12.695718,-0.137616,0.046360,1.080920,-1.960000,-2.100000,-0.280000
12.699784,-0.355752,0.097600,0.958920,-1.680000,2.380000,-0.140000
12.703850,-0.275232,0.088816,0.897920,1.820000,0.560000,-0.840000
12.707916,-0.175680,0.065392,0.958920,-1.540000,-3.780000,-0.280000
12.711982,-0.351360,0.088816,0.991616,-1.820000,1.680000,0.000000
12.716048,-0.305488,0.018544,0.931104,0.840000,0.140000,-0.840000
12.720114,-0.191784,0.019032,0.928664,-1.540000,-2.240000,0.420000
12.724179,-0.270840,0.082472,1.089704,0.000000,-0.560000,-0.280000
12.728245,-0.318664,-0.050264,0.960872,1.400000,0.700000,-0.420000
12.732311,-0.267912,-0.047824,0.961848,-2.240000,-0.420000,-1.260000
12.736377,-0.264008,0.077104,1.080920,-0.420000,-1.680000,-0.280000
12.740443,-0.281576,-0.068320,0.894992,0.280000,1.540000,-0.140000
12.744509,-0.345504,0.006344,0.860832,-2.520000,-1.680000,-0.980000
12.748575,-0.280600,0.186416,1.008696,-0.280000,-2.240000,-0.420000
12.752641,-0.259128,0.067832,0.922808,-0.700000,1.960000,0.560000
12.756707,-0.292800,0.017080,0.867176,-2.100000,0.700000,-0.840000
12.760773,-0.279136,0.147864,1.036024,0.420000,-3.920000,-0.420000
12.764839,-0.238632,0.011712,1.019432,1.540000,-0.980000,-0.700000
12.768905,-0.286944,-0.012200,0.937936,-1.680000,0.420000,0.140000
12.772971,-0.244000,0.094184,0.958432,-1.260000,-0.980000,-0.560000
12.777036,-0.254248,0.087840,1.078480,0.140000,0.280000,0.420000
12.781102,-0.249368,-0.010248,0.895968,-2.100000,4.200000,-0.420000
12.785168,-0.415776,0.040016,0.941352,-0.560000,-0.700000,-1.260000
12.789234,-0.219600,0.070272,0.949648,1.260000,-2.800000,-0.420000
12.793300,-0.228384,0.006344,1.019432,-1.540000,1.120000,0.280000
12.797366,-0.242048,0.098576,0.835456,-2.240000,0.420000,0.700000
12.801432,-0.367952,0.115656,1.076528,2.520000,-0.840000,-1.540000
12.805498,-0.180560,-0.049288,0.955504,-0.280000,0.560000,-0.140000
12.809564,-0.334768,-0.038552,0.986736,-4.060000,1.960000,-0.840000
12.813630,-0.311832,0.072224,1.009184,1.680000,-2.940000,-0.140000
12.817696,-0.232288,-0.006344,0.988200,1.680000,-0.560000,-1.120000
12.821762,-0.282552,-0.030256,0.962336,-3.780000,3.780000,0.560000
12.825828,-0.386984,0.101992,0.883280,-0.700000,0.560000,-0.700000
12.829893,-0.229360,0.055632,0.967704,2.660000,-3.920000,-0.560000
12.833959,-0.231800,-0.006344,0.965752,-3.500000,1.540000,-0.280000
12.838025,-0.406504,0.151768,0.882304,-2.100000,2.100000,-0.420000
12.842091,-0.181048,0.122976,0.955016,4.060000,-4.340000,-0.560000
12.846157,-0.137616,0.004392,0.936472,-2.940000,0.840000,0.420000
12.850223,-0.437248,0.101016,0.979904,-3.360000,4.760000,-0.280000
12.854289,-0.301584,0.077592,0.941352,2.800000,-2.100000,-0.280000
12.858355,-0.130784,-0.013664,1.002840,0.000000,-4.900000,-0.280000
12.862421,-0.361120,0.069296,1.008696,-2.940000,3.360000,-0.840000
12.866487,-0.350384,0.007808,0.936472,1.540000,-1.120000,-0.700000
12.870553,-0.080032,0.016592,1.034560,-0.560000,-2.800000,0.420000
12.874619,-0.314760,0.027816,0.991128,-4.480000,3.640000,0.140000
12.878685,-0.447984,0.061488,0.990640,0.420000,2.100000,-1.400000
12.882750,-0.173240,0.024400,0.934520,1.820000,-3.080000,-0.280000
12.886816,-0.229360,0.048312,0.924760,-2.660000,0.700000,0.140000
12.890882,-0.435296,0.091256,0.966728,0.560000,2.100000,-1.260000
12.894948,-0.201056,0.008296,0.945256,2.100000,-1.820000,-0.420000
12.899014,-0.169336,-0.002440,0.985272,-2.520000,-1.400000,0.140000
12.903080,-0.352336,0.046848,0.972584,-1.540000,2.100000,-0.140000
12.907146,-0.381616,0.032696,0.929152,1.540000,-0.280000,-1.260000
12.911212,-0.170800,0.001952,0.927688,-2.520000,-2.660000,0.700000
12.915278,-0.325984,0.044408,1.042368,-2.520000,-0.560000,-0.140000
12.919344,-0.341600,0.040504,0.890600,1.820000,0.140000,-1.540000
12.923410,-0.195200,0.078568,0.977952,-0.840000,-2.520000,-0.280000
12.927476,-0.276696,0.045872,0.921344,-3.220000,0.140000,1.400000
12.931542,-0.417240,0.132736,0.887672,0.700000,0.840000,-1.820000
12.935607,-0.141032,0.053192,0.971120,0.140000,-0.280000,-0.140000
12.939673,-0.181536,0.072224,1.036024,-3.640000,-1.260000,0.420000
12.943739,-0.471408,0.034160,0.950624,3.360000,0.000000,-0.840000
12.947805,-0.230824,0.005856,0.948184,1.260000,0.840000,-1.540000
12.951871,-0.157624,0.122488,1.098488,-3.360000,-1.680000,1.120000
12.955937,-0.301584,0.028304,0.935496,-1.260000,1.260000,0.000000
12.960003,-0.359656,-0.051240,0.939888,-0.560000,1.540000,-1.540000
12.964069,-0.183488,0.036600,1.024312,-1.820000,-2.240000,-0.840000
12.968135,-0.368928,0.021960,0.994056,0.000000,-0.140000,0.140000
12.972201,-0.291336,0.002928,0.836920,1.820000,-0.140000,-0.560000
12.976267,-0.273280,0.137616,0.997960,0.000000,-1.540000,-0.840000
12.980333,-0.238632,0.112240,0.910608,-2.240000,0.420000,2.240000
12.984399,-0.360144,0.007320,0.908656,-0.420000,-0.560000,-1.680000
12.988464,-0.148352,0.040016,1.013576,-0.840000,-1.680000,-0.980000
12.992530,-0.307440,0.036600,1.060424,-2.240000,-0.840000,0.000000
12.996596,-0.319152,-0.025864,0.866200,0.420000,0.000000,-0.140000
13.000662,-0.313296,-0.040504,0.886208,0.280000,-1.820000,-1.120000
13.004728,-0.257176,0.116144,1.112640,-2.660000,-0.140000,0.560000
13.008794,-0.264984,0.078568,0.930128,-0.280000,-1.120000,0.140000
13.012860,-0.313784,0.000000,0.855952,0.140000,-1.540000,-0.840000
13.016926,-0.221552,0.135176,1.041880,-0.980000,-0.420000,-1.540000
13.020992,-0.291336,0.149328,0.981368,-0.140000,-0.140000,0.700000
13.025058,-0.295240,0.004392,0.804224,-1.680000,1.400000,0.000000
13.029124,-0.205936,0.121512,1.056032,-1.400000,-1.260000,-0.280000
13.033190,-0.322568,0.038552,1.067744,1.120000,-0.280000,-0.140000
13.037256,-0.259616,-0.070272,0.891576,-0.280000,0.280000,0.000000
13.041321,-0.265472,0.035624,1.019920,-0.280000,-2.380000,-1.820000
13.045387,-0.255224,0.044896,1.071160,0.140000,-1.960000,0.420000
13.049453,-0.330864,-0.067832,0.928664,-1.680000,3.360000,-0.140000
13.053519,-0.285968,0.014152,0.893040,-1.540000,-1.820000,-1.120000
13.057585,-0.274256,0.083936,0.997960,0.000000,-2.240000,0.000000
13.061651,-0.296216,0.036600,0.929640,-0.700000,1.820000,-0.140000
13.065717,-0.247416,0.075152,0.835456,-1.960000,-2.520000,0.140000
13.069783,-0.279136,0.152256,1.084824,1.400000,-1.400000,-1.400000
13.073849,-0.249856,0.034648,0.938912,-0.700000,1.820000,0.420000
13.077915,-0.327936,-0.017080,0.887184,-2.380000,0.560000,-0.840000
13.081981,-0.322080,0.104920,0.965264,0.140000,-3.220000,-0.140000
13.086047,-0.213256,0.004880,1.093120,0.140000,-1.260000,-0.980000
13.090113,-0.251320,-0.057584,0.920856,-3.080000,1.680000,1.120000
13.094178,-0.357216,0.104432,0.916464,0.000000,-1.260000,-1.260000
13.098244,-0.252784,0.082472,1.102392,3.080000,-3.080000,-0.560000
13.102310,-0.241072,0.038064,0.825696,-3.640000,2.100000,-0.140000
13.106376,-0.348920,0.103944,0.940376,-3.080000,-0.560000,0.000000
13.110442,-0.199592,0.101992,0.968680,2.100000,-2.240000,0.140000
13.114508,-0.235216,0.006832,1.045784,-1.260000,3.500000,-0.420000
13.118574,-0.348432,0.026840,0.862784,-1.680000,0.420000,-0.420000
13.122640,-0.292312,0.067344,0.979416,2.940000,-4.620000,-0.980000
13.126706,-0.142984,0.009760,1.029680,0.000000,-1.260000,-0.140000
13.130772,-0.347944,0.004392,0.969656,-4.620000,2.800000,0.280000
13.134838,-0.391864,0.037576,0.950136,0.700000,-2.240000,-0.420000
13.138904,-0.149816,-0.046848,1.033584,1.540000,-2.380000,-0.840000
13.142970,-0.310856,0.015616,0.994056,-3.500000,0.980000,0.280000
13.147035,-0.379664,0.131272,0.891088,0.280000,0.280000,-1.400000
13.151101,-0.170312,0.040504,0.878400,2.380000,-4.060000,-0.140000
13.155167,-0.213256,0.080520,1.051640,-4.340000,2.800000,-0.420000
13.159233,-0.436760,0.104920,0.910120,-2.240000,3.220000,-0.140000
13.163299,-0.242536,0.075640,0.886696,2.940000,-4.200000,-0.560000
13.167365,-0.162992,-0.031232,1.058960,-1.820000,0.140000,-0.140000
13.171431,-0.403576,0.042456,0.909632,-2.940000,2.800000,-0.280000
13.175497,-0.303536,0.079056,0.986736,3.360000,-3.220000,-0.420000
13.179563,-0.077592,-0.030256,0.975024,-0.840000,-2.240000,0.140000
13.183629,-0.395280,0.090768,0.992104,-4.760000,4.760000,-0.560000
13.187695,-0.362096,0.025376,0.943304,1.540000,-3.500000,-0.420000
13.191761,-0.194224,0.024400,0.945256,-0.420000,-3.780000,-0.560000
13.195827,-0.260104,0.055144,0.995032,-4.760000,1.540000,-0.280000
13.199892,-0.391376,0.109312,1.006744,1.400000,1.120000,-0.700000
13.203958,-0.147864,0.012688,0.855464,2.940000,-5.040000,-0.700000
13.208024,-0.211792,0.089792,1.048224,-3.500000,1.400000,0.420000
13.212090,-0.418216,0.089792,0.945744,-1.400000,2.940000,-0.420000
13.216156,-0.249368,-0.028304,0.903776,1.820000,-2.800000,-0.140000
13.220222,-0.165920,0.021960,1.060912,-2.240000,-2.520000,-0.280000
13.224288,-0.388448,0.014152,0.992104,-0.980000,2.380000,-0.700000
13.228354,-0.336720,-0.032696,0.899384,1.820000,-1.820000,-0.700000
13.232420,-0.154208,0.048312,0.996984,-1.400000,-2.660000,0.420000
13.236486,-0.338184,0.095648,0.973072,-2.380000,2.240000,0.280000
13.240552,-0.312808,0.028792,0.903776,0.700000,1.680000,-1.820000
13.244618,-0.193248,0.070760,0.921344,-0.560000,-3.640000,0.280000
13.248684,-0.317200,0.077592,1.007232,-1.680000,0.980000,-0.840000
13.252749,-0.375760,0.060512,0.931592,1.120000,1.680000,-1.120000
13.256815,-0.183488,0.028304,0.889136,0.000000,-1.820000,0.280000
13.260881,-0.238632,0.122488,1.017968,-1.960000,-1.680000,1.260000
13.264947,-0.371368,0.041480,0.934520,0.560000,2.660000,-0.700000
13.269013,-0.281576,-0.012688,0.989664,0.420000,-0.560000,-1.540000
13.273079,-0.147376,0.103944,1.073112,-2.240000,-2.100000,0.700000
13.277145,-0.348920,-0.011224,0.958432,-0.420000,0.420000,-0.280000
13.281211,-0.313784,0.012200,0.920856,0.560000,1.820000,-2.100000
13.285277,-0.166896,0.073688,1.020408,-1.400000,-2.240000,0.140000
13.289343,-0.351848,0.054168,0.902312,-1.400000,0.140000,1.260000
13.293409,-0.292800,0.059048,0.933056,0.140000,2.520000,-1.960000
13.297475,-0.199104,0.066856,0.977464,-0.700000,-2.240000,-0.140000
13.301541,-0.266448,0.068320,1.023336,-1.120000,-0.840000,0.700000
13.305606,-0.371856,-0.043432,0.954040,1.540000,0.840000,-1.400000
13.309672,-0.216184,0.009272,0.932568,-1.820000,-0.280000,-0.840000
13.313738,-0.254248,0.096136,1.078968,-1.960000,-1.680000,0.840000
13.317804,-0.279136,-0.048800,0.815936,-0.560000,1.260000,0.280000
13.321870,-0.373808,-0.002928,1.023824,-1.260000,2.240000,-2.380000
13.325936,-0.242536,0.088816,1.012600,-0.560000,-1.960000,0.420000
13.330002,-0.313784,0.034648,0.878888,0.280000,-2.660000,-0.280000
13.334068,-0.271328,0.081496,0.874008,0.420000,0.000000,-0.980000
13.338134,-0.215208,0.188368,1.077504,-1.400000,-0.700000,-0.700000
13.342200,-0.261568,0.099552,0.951600,-0.840000,1.260000,1.680000
13.346266,-0.302072,0.020984,0.874008,-1.260000,3.920000,-1.540000
13.350332,-0.302560,0.003904,1.077016,-0.560000,-0.140000,-1.120000
13.354398,-0.270840,-0.028792,0.955992,0.000000,-2.660000,0.700000
13.358463,-0.293288,0.021960,0.945256,0.000000,-0.560000,-0.700000
13.362529,-0.250344,0.003904,0.959896,-0.840000,-0.840000,-0.560000
13.366595,-0.336720,0.081984,0.997960,-0.560000,-0.560000,-0.140000
13.370661,-0.200568,0.046360,0.915976,-0.560000,0.000000,0.700000
13.374727,-0.320128,0.068808,0.951112,-1.960000,-0.840000,-1.680000
13.378793,-0.307928,0.105408,1.015528,0.560000,-0.140000,-0.980000
13.382859,-0.202032,-0.028792,0.944768,-0.700000,-0.700000,0.700000
13.386925,-0.313296,0.005368,0.882792,-1.960000,0.140000,-0.280000
13.390991,-0.284992,0.082472,1.068720,0.840000,-0.560000,-1.400000
13.395057,-0.294752,0.035624,0.953064,0.560000,0.980000,0.560000
13.399123,-0.235216,0.013176,0.894504,-2.940000,0.980000,-0.140000
13.403189,-0.344040,0.095648,1.002840,0.560000,-2.240000,-0.980000
13.407255,-0.245464,0.045384,1.031144,0.420000,1.260000,-1.400000
13.411320,-0.209840,0.039528,0.942816,-2.100000,0.840000,1.120000
13.415386,-0.407480,0.058560,0.859856,-0.560000,1.540000,-0.840000
13.419452,-0.265960,0.123464,1.060912,1.820000,0.840000,-0.840000
13.423518,-0.109800,0.037576,0.932568,-2.100000,0.280000,1.400000
13.427584,-0.443592,0.083936,0.888160,-1.260000,1.120000,-0.980000
13.431650,-0.239608,0.003416,1.025776,4.200000,-3.920000,-1.680000
13.435716,-0.193248,-0.051728,1.045784,-1.680000,1.400000,0.140000
13.439782,-0.278160,0.085888,0.939888,-3.220000,1.540000,0.140000
13.443848,-0.374784,-0.038064,0.968680,1.260000,-2.380000,-0.280000
13.447914,-0.238632,-0.038552,0.981856,-0.280000,1.120000,-1.120000
13.451980,-0.282552,0.128344,0.974536,-3.500000,1.820000,0.000000
13.456046,-0.347456,0.032208,0.823256,-0.700000,-1.680000,-0.560000
13.460112,-0.235216,0.061488,1.014552,2.800000,-0.560000,-2.380000
13.464177,-0.215208,0.092232,0.963800,-2.240000,1.400000,0.700000
13.468243,-0.437248,0.111264,0.835456,-1.400000,1.820000,-0.280000
13.472309,-0.201544,0.053192,0.961360,2.240000,-4.060000,-0.420000
13.476375,-0.168848,0.012200,1.057984,-3.220000,1.820000,0.140000
13.480441,-0.376248,0.082960,0.989664,-1.960000,1.960000,0.560000
13.484507,-0.363560,-0.027816,0.859368,3.080000,-3.920000,-1.400000
13.488573,-0.141520,0.011224,1.079944,-0.700000,-1.680000,-0.980000
13.492639,-0.328424,0.086864,0.944280,-4.900000,3.080000,0.840000
13.496705,-0.361120,0.100528,0.888648,1.260000,-2.660000,-0.420000
13.500771,-0.124928,0.050752,0.993568,0.980000,-2.100000,-0.700000
13.504837,-0.193736,0.046360,1.118496,-3.220000,2.240000,0.000000
13.508903,-0.447496,0.023424,0.924760,1.120000,0.700000,-0.420000
13.512969,-0.252296,-0.046360,0.890600,2.380000,-1.400000,-1.400000
13.517034,-0.184464,-0.008296,1.088728,-2.660000,0.140000,0.140000
13.521100,-0.331352,0.045872,0.954528,-3.780000,3.080000,-0.280000
13.525166,-0.406504,0.022936,0.878400,2.240000,-2.940000,-0.280000
13.529232,-0.154208,0.020984,0.934032,-0.560000,-0.420000,-1.400000
13.533298,-0.295240,0.102480,0.991128,-3.780000,1.260000,0.560000
13.537364,-0.426512,0.121024,0.833992,1.400000,-0.280000,-0.560000
13.541430,-0.159088,0.082472,0.951112,0.700000,-3.220000,-0.840000
13.545496,-0.196176,0.104432,1.111664,-3.500000,0.840000,0.980000
13.549562,-0.419680,0.041480,0.920368,-0.280000,4.200000,-0.280000
13.553628,-0.210328,0.009272,0.912072,2.520000,-5.040000,-1.120000
13.557694,-0.137128,0.014152,1.129720,-2.240000,-1.260000,-0.140000
13.561760,-0.440176,-0.010736,0.878400,-2.240000,3.780000,0.000000
13.565826,-0.301584,0.020984,0.944768,1.120000,-1.960000,-1.400000
13.569892,-0.152256,0.039040,0.981368,-2.240000,-3.080000,0.840000
13.573957,-0.317688,0.169336,1.077016,-0.840000,4.060000,-1.120000
13.578023,-0.321104,-0.031232,0.849608,2.520000,0.000000,0.140000
13.582089,-0.264008,0.023424,0.942328,-0.560000,1.120000,-1.680000
13.586155,-0.182024,0.149816,1.029192,-0.840000,-0.560000,0.560000
13.590221,-0.411872,-0.028304,0.935984,0.140000,3.780000,-0.560000
13.594287,-0.263032,-0.007808,0.859368,-2.940000,0.980000,-0.700000
13.598353,-0.251808,0.099064,1.097024,-1.540000,-2.520000,0.000000
13.602419,-0.386496,-0.016592,0.932080,0.700000,1.400000,-0.280000
13.606485,-0.305000,-0.018056,0.894504,-0.840000,-0.280000,-1.540000
13.610551,-0.183976,0.216184,0.962336,-1.680000,-1.540000,0.700000
13.614617,-0.270352,0.098088,0.974536,0.280000,-1.120000,0.000000
13.618683,-0.272792,0.025376,0.894016,-0.560000,3.220000,-0.840000
13.622749,-0.286944,0.087352,0.984784,-2.380000,-2.100000,-0.980000
13.626814,-0.188856,0.093696,1.057984,0.280000,-3.220000,0.700000
13.630880,-0.337208,-0.136152,0.894504,-0.560000,2.100000,-0.420000
13.634946,-0.325008,0.081496,1.090192,-1.820000,3.360000,-1.680000
13.639012,-0.181536,-0.026840,0.983320,1.120000,-5.040000,1.540000
13.643078,-0.370880,-0.088328,0.882304,-1.120000,2.100000,-0.840000
13.647144,-0.346480,0.075152,0.985760,0.420000,-0.560000,-1.540000
13.651210,-0.220576,0.113216,0.972096,-0.560000,-1.960000,0.280000
13.655276,-0.268400,0.046848,0.795928,-2.240000,-0.980000,0.840000
13.659342,-0.307440,0.110776,0.994056,-0.700000,0.700000,-1.820000
13.663408,-0.257664,0.133712,1.088728,-0.840000,0.840000,-0.420000
13.667474,-0.229360,0.044896,0.881328,0.560000,-1.400000,0.420000
13.671540,-0.360632,-0.000488,0.826184,0.420000,0.140000,-0.840000
13.675606,-0.285968,0.046360,1.097512,-0.840000,0.560000,-0.980000
13.679671,-0.221064,0.063928,1.056032,-0.700000,-0.560000,1.120000
13.683737,-0.198128,-0.039528,0.875472,-2.520000,-0.980000,0.280000
13.687803,-0.390400,0.055144,1.057984,-0.140000,-0.280000,-1.960000
13.691869,-0.307440,0.072224,0.996008,1.120000,1.120000,-0.840000
13.695935,-0.191296,0.005368,0.887672,-1.260000,-0.980000,0.420000
13.700001,-0.312320,0.051728,0.842776,-1.400000,-1.820000,0.000000
13.704067,-0.334768,0.127368,1.108736,0.140000,3.360000,-2.240000
13.708133,-0.139080,0.001464,0.955504,-0.700000,0.560000,2.520000
13.712199,-0.368440,-0.009760,0.899384,-1.120000,0.280000,-1.540000
13.716265,-0.273768,0.082472,1.005768,2.240000,-0.840000,-1.400000
13.720331,-0.263520,-0.010736,1.010160,-0.840000,2.100000,0.000000
13.724397,-0.287432,0.111264,0.888160,-2.800000,1.680000,0.560000
13.728463,-0.329400,0.012200,0.858392,-0.840000,-3.220000,-0.840000
13.732528,-0.304024,0.084424,1.115568,1.400000,2.240000,-0.840000
13.736594,-0.189832,0.108336,0.951112,-0.840000,2.800000,0.000000
13.740660,-0.331840,0.072712,0.768112,-0.700000,-4.620000,0.280000
13.744726,-0.321104,-0.009760,0.985760,2.520000,-2.100000,-1.540000
13.748792,-0.136640,0.085888,1.195600,-2.240000,3.080000,-0.140000
13.752858,-0.319640,0.027328,0.837408,-3.360000,-0.420000,0.980000
13.756924,-0.403088,-0.003904,0.942816,1.680000,-4.200000,-0.980000
13.760990,-0.123952,-0.040016,1.179008,0.700000,0.980000,-1.820000
13.765056,-0.330376,0.025864,0.938424,-3.920000,3.500000,0.000000
13.769122,-0.387472,0.066856,0.777872,2.100000,-3.220000,-0.280000
13.773188,-0.172752,0.001464,0.970144,-0.280000,-3.640000,-1.260000
13.777254,-0.201544,0.194712,1.119472,-3.780000,5.600000,-0.840000
13.781320,-0.473848,0.081008,0.846680,0.560000,2.800000,0.280000
13.785385,-0.232776,-0.014152,0.773968,1.820000,-5.600000,-1.260000
13.789451,-0.061976,0.138104,1.129720,-1.120000,-3.780000,-1.960000
13.793517,-0.473360,-0.031720,1.048224,-2.380000,8.820000,-0.560000
13.797583,-0.355752,-0.013176,0.757376,0.140000,1.120000,-0.280000
13.801649,-0.025376,0.118584,1.120936,0.840000,-9.660000,-1.120000
13.805715,-0.387960,0.037576,1.013576,-0.700000,3.780000,-2.520000
13.809781,-0.436272,-0.031720,0.939400,-0.280000,5.740000,-0.980000
13.813847,-0.121512,0.083448,0.918904,0.560000,-5.180000,0.420000
13.817913,-0.159088,0.117120,0.937936,-2.520000,-5.600000,-0.560000
13.821979,-0.541680,-0.011712,1.026264,-0.700000,6.860000,-1.540000
13.826045,-0.246440,0.023912,0.883280,0.420000,6.300000,-0.280000
13.830111,-0.098576,0.144448,0.937448,-0.420000,-10.780000,0.280000
13.834177,-0.366976,-0.059048,0.870104,-0.420000,-5.320000,-1.820000
13.838242,-0.446520,0.013664,1.120936,-0.700000,8.260000,-1.120000
13.842308,-0.080032,0.065880,0.993568,-1.120000,-2.940000,1.680000
13.846374,-0.385520,-0.025376,0.809104,-1.120000,-5.880000,-0.140000
13.850440,-0.361120,-0.026352,1.006744,1.260000,0.000000,-2.800000
13.854506,-0.132736,0.210328,1.121912,-1.540000,3.640000,0.000000
13.858572,-0.249856,0.122976,0.856440,-1.120000,-2.520000,0.980000
13.862638,-0.413336,-0.062464,0.762256,1.260000,-1.540000,-1.540000
13.866704,-0.128344,0.184464,1.176080,-2.240000,4.340000,-2.100000
13.870770,-0.292800,0.091256,1.062376,-2.240000,1.960000,2.660000
13.874836,-0.423096,-0.089304,0.726144,0.700000,-2.380000,-1.120000
13.878902,-0.207888,-0.040504,1.144360,1.400000,-5.040000,-2.800000
13.882968,-0.189832,0.079544,1.174616,-1.540000,4.760000,-0.280000
13.887034,-0.413336,0.021960,0.781776,-0.280000,2.240000,1.120000
13.891099,-0.328912,-0.039040,0.738832,-0.280000,-3.780000,-0.980000
13.895165,-0.170312,0.139568,1.216096,-1.540000,-0.700000,-1.680000
13.899231,-0.281088,0.099064,0.956480,-3.080000,5.740000,1.680000
13.903297,-0.418704,0.022936,0.673928,0.700000,0.140000,0.000000
13.907363,-0.095160,0.107848,1.002352,2.100000,-8.680000,-2.660000
13.911429,-0.230824,0.119560,1.159000,-0.700000,2.660000,-1.120000
13.915495,-0.488000,-0.003904,0.820816,-2.240000,9.940000,0.840000
13.919561,-0.187392,0.033672,0.967704,0.980000,-7.280000,-0.840000
13.923627,-0.150304,0.061000,1.073112,-0.980000,-6.860000,-0.840000
13.927693,-0.484584,-0.093696,1.060912,-2.520000,8.120000,-2.240000
13.931759,-0.283040,0.004880,0.864248,1.960000,0.980000,0.420000
13.935825,-0.119072,0.134688,0.957944,0.420000,-6.160000,-0.700000
13.939891,-0.309880,0.107360,0.933544,-0.420000,0.560000,-1.540000
13.943956,-0.374296,-0.030744,1.031632,-1.820000,7.560000,-0.980000
13.948022,-0.254736,0.086376,0.934520,-0.140000,-1.680000,0.700000
13.952088,-0.148840,0.099552,0.874008,-0.140000,-7.560000,-1.400000
13.956154,-0.453352,-0.106384,0.983320,-0.280000,2.800000,-2.660000
13.960220,-0.276208,-0.005856,0.983320,-0.840000,6.300000,-0.280000
13.964286,-0.257176,0.164456,0.894016,0.700000,-6.020000,0.700000
13.968352,-0.290848,0.022448,0.909632,0.140000,-6.160000,-1.680000
13.972418,-0.271328,0.057584,1.107272,-2.940000,3.780000,-1.680000
13.976484,-0.234728,0.148352,1.034072,0.000000,0.980000,0.840000
13.980550,-0.199104,0.039040,0.872056,1.820000,-3.360000,-0.700000
13.984616,-0.352336,-0.049288,0.968680,-0.420000,-0.840000,-2.660000
13.988682,-0.385032,0.081984,1.074576,-1.400000,7.700000,-1.820000
13.992748,-0.139568,0.026840,0.940864,0.000000,-2.800000,0.980000
13.996813,-0.263032,-0.054168,0.830576,-1.400000,-4.060000,-1.260000
14.000879,-0.413336,0.074176,1.029192,-0.700000,2.380000,-3.780000
14.004945,-0.251320,0.084912,1.066768,0.000000,3.500000,0.140000
14.009011,-0.231800,0.012200,0.709552,-0.840000,-2.520000,0.420000
14.013077,-0.291336,0.039528,0.871568,0.280000,-6.440000,-3.640000
14.017143,-0.311344,0.234240,1.189744,-0.140000,3.080000,-1.820000
14.021209,-0.295240,0.072712,0.919392,0.140000,6.440000,0.840000
14.025275,-0.212280,-0.012200,0.803248,-0.700000,-5.740000,-1.120000
14.029341,-0.255712,0.109800,1.066768,-0.140000,-5.040000,-3.360000
14.033407,-0.292312,0.019032,1.162416,0.140000,3.780000,-0.980000
14.037473,-0.262056,-0.120048,0.924760,0.560000,1.400000,0.140000
14.041539,-0.313784,0.032696,0.918904,-0.280000,-3.360000,-2.800000
14.045605,-0.255712,0.096624,1.081408,-0.140000,-0.560000,-2.380000
14.049670,-0.343064,-0.056608,0.876448,-1.680000,4.900000,-0.280000
14.053736,-0.277672,0.078080,0.790072,-1.120000,-1.400000,-1.400000
14.057802,-0.213744,0.225456,1.071648,0.700000,-4.620000,-3.080000
14.061868,-0.274256,0.033672,0.967704,-0.840000,3.780000,-1.540000
14.065934,-0.321592,0.081496,0.920856,-0.140000,6.020000,-1.120000
14.070000,-0.251808,0.099064,0.910608,1.120000,-4.340000,-1.400000
14.074066,-0.230824,0.068320,1.034072,0.000000,-0.980000,-3.360000
14.078132,-0.360144,-0.049776,1.031144,-0.980000,4.620000,-1.820000
14.082198,-0.273768,-0.056120,0.934032,0.000000,-0.560000,-2.100000
14.086264,-0.238144,0.030744,0.964288,0.840000,-7.700000,-2.520000
14.090330,-0.329888,-0.034160,0.990152,-1.260000,1.260000,-2.800000
14.094396,-0.351848,0.018056,0.932568,-1.260000,3.220000,-2.240000
14.098462,-0.267424,0.121512,0.892064,0.840000,-3.360000,-1.260000
14.102527,-0.226432,0.105408,0.920856,-1.400000,-1.680000,-1.680000
14.106593,-0.343064,0.078080,0.973560,-0.280000,2.380000,-2.240000
14.110659,-0.252784,0.137616,1.095072,2.240000,0.280000,-2.240000
14.114725,-0.151768,-0.036112,0.956968,1.120000,-1.400000,-0.280000
14.118791,-0.367464,-0.019032,0.943792,-1.820000,2.240000,-2.240000
14.122857,-0.337208,0.070760,1.068720,-0.140000,0.980000,-2.240000
14.126923,-0.230824,-0.072224,1.032608,-0.140000,-1.540000,-0.700000
14.130989,-0.257176,-0.045384,0.802760,-2.520000,0.980000,-1.820000
14.135055,-0.351848,0.137616,0.909632,-0.140000,-1.540000,-2.940000
14.139121,-0.255712,0.134688,1.020408,1.120000,1.820000,-1.820000
14.143187,-0.230824,0.053192,0.895480,-0.420000,2.240000,-1.260000
14.147253,-0.332816,0.081984,0.884256,-0.560000,1.540000,-2.100000
14.151319,-0.246928,0.214232,1.057496,0.700000,-1.120000,-2.940000
14.155384,-0.243024,0.049776,1.029192,0.980000,0.560000,-1.540000
14.159450,-0.321592,-0.110288,0.840336,-1.120000,2.940000,-3.080000
14.163516,-0.285968,0.075152,1.078480,-0.420000,-2.520000,-2.100000
14.167582,-0.229360,0.001952,0.990152,0.700000,-2.240000,-2.100000
14.171648,-0.399672,-0.095160,0.909144,-0.420000,4.200000,-1.960000
14.175714,-0.258152,0.018056,0.918904,-0.420000,0.000000,-1.820000
14.179780,-0.263520,0.171776,1.017968,-0.280000,-3.500000,-1.680000
14.183846,-0.323544,-0.038552,0.885232,-0.980000,1.540000,-1.120000
14.187912,-0.321592,0.053680,1.034072,-0.700000,3.640000,-2.660000
14.191978,-0.153232,0.142984,0.960384,1.400000,-3.220000,-1.260000
14.196044,-0.369416,0.028792,0.937936,-0.700000,-0.420000,-0.980000
14.200110,-0.294752,0.028792,0.915976,-0.280000,3.920000,-2.100000
14.204176,-0.211304,0.071248,1.071648,-1.540000,0.980000,-1.400000
14.208241,-0.267912,0.031232,0.958432,-0.280000,-0.980000,0.000000
14.212307,-0.405528,-0.029768,0.852048,0.420000,0.840000,-2.520000
14.216373,-0.165432,0.094672,1.050664,0.840000,0.140000,-2.380000
14.220439,-0.264008,0.077104,0.983320,0.000000,2.380000,-0.420000
14.224505,-0.402600,0.028304,0.864736,-0.980000,2.380000,-0.700000
14.228571,-0.265472,0.002928,0.961360,-1.260000,-0.980000,-1.820000
14.232637,-0.192272,0.155672,1.164368,-1.680000,-0.140000,-1.400000
14.236703,-0.323056,-0.078568,0.912560,0.980000,1.260000,-0.700000
14.240769,-0.330864,-0.025376,0.888160,0.280000,3.080000,-2.100000
14.244835,-0.186416,0.178120,1.026264,-0.280000,-3.920000,-1.400000
14.248901,-0.305488,0.033184,0.954528,-0.980000,4.480000,-0.840000
14.252967,-0.369904,-0.046360,0.832528,-0.420000,6.300000,-1.400000
14.257033,-0.212768,0.150792,0.977952,1.120000,-2.520000,-1.680000
14.261098,-0.205936,0.127368,1.017480,0.280000,-4.760000,-1.400000
14.265164,-0.455792,-0.039040,0.870592,-1.120000,7.420000,-2.100000
14.269230,-0.213744,0.021472,0.944768,0.000000,2.660000,-1.400000
14.273296,-0.170800,0.141032,1.048224,-0.840000,-2.100000,-0.700000
14.277362,-0.458232,-0.015616,0.844728,-0.840000,0.420000,-2.100000
14.281428,-0.267424,0.005856,1.098976,0.420000,2.380000,-2.940000
14.285494,-0.185440,0.053192,1.035048,0.280000,-1.540000,-0.420000
14.289560,-0.340624,0.025864,0.858392,-1.260000,-1.960000,-1.400000
14.293626,-0.332816,0.008296,0.931104,0.280000,1.120000,-2.380000
14.297692,-0.205936,0.107360,1.051152,-0.840000,2.380000,-1.680000
14.301758,-0.313784,0.101016,0.961360,0.420000,0.700000,-0.140000
14.305824,-0.359656,-0.075152,0.734928,-1.260000,1.260000,-2.100000
14.309890,-0.232776,0.134200,1.033584,-0.700000,-1.120000,-2.520000
14.313955,-0.211304,0.076128,1.089216,0.420000,0.000000,0.420000
14.318021,-0.464088,-0.042456,0.863272,-0.700000,4.060000,-0.980000
14.322087,-0.192760,0.004880,0.908656,0.000000,-3.640000,-2.240000
14.326153,-0.222040,0.196176,1.133136,-0.140000,-0.700000,-0.840000
14.330219,-0.379664,-0.048312,0.893528,0.560000,3.500000,-0.280000
14.334285,-0.302560,-0.025376,0.943304,-0.700000,2.240000,-1.820000
14.338351,-0.097112,0.116632,1.056032,-1.540000,-5.040000,-0.560000
14.342417,-0.418216,0.049288,0.955504,-0.700000,4.060000,-1.260000
14.346483,-0.346480,-0.053192,0.909144,1.260000,3.640000,-0.700000
14.350549,-0.182024,0.093696,0.955992,-1.680000,0.000000,-0.980000
14.354615,-0.295240,0.172752,0.949648,-0.840000,-2.940000,-0.560000
14.358681,-0.402600,-0.087352,0.913048,-0.420000,5.320000,-1.260000
14.362747,-0.211304,0.081496,1.026752,-0.280000,2.660000,-0.840000
14.366813,-0.207888,0.115656,0.968192,0.560000,-4.340000,-0.700000
14.370878,-0.379176,0.001464,0.879376,-0.840000,1.960000,-1.960000
14.374944,-0.268888,0.008784,1.031632,-0.280000,3.920000,-1.960000
14.379010,-0.203496,0.092720,1.056032,-0.980000,0.420000,0.280000
14.383076,-0.394304,-0.071248,0.789096,-1.400000,0.140000,-0.140000
14.387142,-0.333304,0.089792,1.014064,-0.980000,1.540000,-2.800000
14.391208,-0.134200,0.162992,1.065304,1.120000,-0.840000,-0.280000
14.395274,-0.364048,-0.009272,0.947696,-0.420000,4.760000,-0.420000
14.399340,-0.326472,-0.017568,0.777872,0.000000,-1.120000,-1.260000
14.403406,-0.234240,0.115656,1.094096,-0.840000,-1.540000,-2.100000
14.407472,-0.233752,0.068320,0.945256,-0.420000,2.800000,0.560000
14.411538,-0.407968,-0.048800,0.902800,-0.560000,2.800000,-1.260000
14.415604,-0.187880,0.094184,0.969168,-0.140000,-1.820000,-1.820000
14.419670,-0.292800,0.069296,0.996496,0.000000,-1.400000,-1.540000
14.423735,-0.413336,-0.032696,0.898896,-0.280000,5.740000,-0.560000
14.427801,-0.301096,0.004392,0.880840,-1.260000,0.980000,-0.840000
14.431867,-0.242536,0.181048,1.019920,-1.540000,-6.300000,-0.420000
14.435933,-0.300608,-0.088816,0.997472,-0.700000,1.820000,-0.560000
14.439999,-0.330864,0.054168,0.901824,-0.980000,3.500000,-0.980000
14.444065,-0.178120,0.144448,1.029680,1.260000,-7.000000,-1.120000
14.448131,-0.299144,0.006832,0.913536,-0.280000,-1.400000,-1.400000
14.452197,-0.381128,0.052704,0.930616,-0.840000,5.180000,-2.520000
14.456263,-0.156648,0.112240,1.087264,-0.700000,-0.420000,0.560000
14.460329,-0.305488,0.033184,0.844728,-0.280000,-3.640000,0.700000
14.464395,-0.382592,-0.040016,0.946720,-0.420000,-0.280000,-2.380000
14.468461,-0.173240,0.089792,1.078480,0.280000,2.380000,-0.840000
14.472527,-0.263520,0.045384,0.998936,0.560000,0.140000,0.280000
14.476592,-0.376248,-0.045872,0.793976,-0.840000,-0.980000,-1.400000
14.480658,-0.297192,0.035624,1.046272,-0.560000,-1.120000,-2.800000
14.484724,-0.222040,0.106384,1.096536,0.000000,1.820000,0.280000
14.488790,-0.381128,-0.038552,0.764696,-0.980000,2.240000,-0.280000
14.492856,-0.301096,0.109800,0.865224,-1.260000,-3.920000,-2.240000
14.496922,-0.186416,0.198616,1.098976,-0.140000,-1.960000,-1.820000
14.500988,-0.339160,0.020008,0.976000,-1.260000,5.460000,0.140000
14.505054,-0.309392,0.024888,0.834968,0.280000,1.400000,-0.980000
14.509120,-0.185928,0.133712,1.029680,0.700000,-7.560000,-2.100000
14.513186,-0.266448,0.016104,1.082872,0.140000,1.680000,-1.260000
14.517252,-0.423584,-0.057584,0.960384,0.000000,6.860000,-0.700000
14.521318,-0.162016,-0.013176,0.938912,0.700000,-4.060000,-1.540000
14.525384,-0.313784,0.073200,0.962824,-1.400000,-3.640000,-1.680000
14.529449,-0.335256,-0.016104,0.935984,-1.120000,4.200000,-2.240000
14.533515,-0.303048,0.006832,0.996008,-0.140000,0.980000,-0.980000
14.537581,-0.232288,0.091744,0.853024,-0.140000,-4.480000,-1.260000
14.541647,-0.345992,0.107848,0.951600,-0.280000,-0.700000,-2.660000
14.545713,-0.276208,0.078080,0.952576,-0.140000,4.340000,-2.100000
14.549779,-0.234240,0.156160,1.006256,1.120000,1.540000,-1.680000
14.553845,-0.251320,0.071736,0.961360,2.100000,-2.100000,-0.980000
14.557911,-0.318664,0.010248,0.961360,-0.700000,-0.140000,-3.360000
14.561977,-0.287920,0.022936,1.085800,-0.280000,2.660000,-2.520000
14.566043,-0.221552,0.006344,0.951600,0.420000,0.980000,-0.280000
14.570109,-0.345016,-0.112728,0.913536,-0.840000,0.000000,-2.240000
14.574175,-0.348432,0.090768,0.992592,-0.280000,-0.560000,-3.080000
14.578241,-0.244976,0.057096,1.033584,1.260000,-0.140000,-1.540000
14.582307,-0.292312,-0.069784,0.799344,-0.700000,2.100000,-1.400000
14.586372,-0.342088,0.119072,0.899872,-1.400000,-0.980000,-2.660000
14.590438,-0.269376,0.194712,1.033584,0.980000,-1.540000,-2.800000
14.594504,-0.261568,0.017080,0.958920,-0.560000,1.820000,-1.120000
14.598570,-0.309392,0.070272,0.825696,0.140000,2.800000,-1.820000
14.602636,-0.247416,0.148352,1.048712,1.540000,-4.340000,-3.080000
14.606702,-0.249856,0.008784,1.000400,-0.420000,-0.280000,-1.680000
14.610768,-0.383568,-0.081984,0.912072,-1.120000,5.460000,-2.240000
14.614834,-0.263032,0.077104,1.060424,0.980000,-1.540000,-2.240000
14.618900,-0.255224,-0.016104,0.986736,-0.280000,-2.940000,-0.980000
14.622966,-0.391864,0.000000,0.823256,-1.960000,1.820000,-1.960000
14.627032,-0.231312,0.078568,1.026264,0.840000,-0.560000,-2.240000
14.631098,-0.226920,0.095648,1.028704,-0.420000,0.280000,-0.980000
14.635164,-0.398696,-0.048312,0.821304,-0.840000,1.960000,-0.980000
14.639229,-0.309392,0.093208,0.964288,0.140000,0.000000,-2.240000
14.643295,-0.158600,0.096624,1.088728,0.700000,-2.520000,-1.260000
14.647361,-0.384544,0.017568,0.942328,-0.560000,3.360000,-0.140000
14.651427,-0.360144,-0.034648,0.830088,-0.700000,1.400000,-1.960000
14.655493,-0.201544,0.156648,1.039440,-1.120000,-4.060000,-1.120000
14.659559,-0.262056,0.070760,0.948672,-0.280000,-0.420000,-0.560000
14.663625,-0.441640,-0.098088,0.876936,-0.420000,5.180000,-1.260000
14.667691,-0.171288,0.130296,0.952088,0.700000,-3.500000,-1.960000
14.671757,-0.248880,0.113216,1.003328,0.280000,-5.600000,-0.700000
14.675823,-0.417240,-0.024400,0.834480,-0.840000,5.320000,-2.240000
14.679889,-0.251808,0.075152,1.014064,-0.840000,0.560000,-0.980000
14.683955,-0.235216,0.133224,0.962336,-0.140000,-6.860000,-0.140000
14.688021,-0.377224,-0.057096,0.959408,-0.420000,-0.420000,-2.800000
14.692086,-0.276696,0.011224,1.007232,0.560000,0.980000,-1.820000
14.696152,-0.138104,0.099064,0.995032,-1.260000,-3.080000,-0.280000
14.700218,-0.406504,-0.003416,0.857416,-2.100000,-3.920000,-0.700000
14.704284,-0.366976,-0.052216,1.003816,-0.980000,-1.400000,-3.220000
14.708350,-0.122000,0.126880,1.173152,0.980000,-1.820000,-2.100000
14.712416,-0.349896,0.042944,0.815448,1.680000,-1.960000,-0.560000
14.716482,-0.335256,-0.012688,0.772992,-0.980000,-1.680000,-2.800000
14.720548,-0.198616,0.192272,1.085800,0.000000,-2.520000,-2.800000
14.724614,-0.272304,0.140056,1.050176,-0.140000,2.940000,-0.980000
14.728680,-0.411872,-0.102480,0.816912,-1.400000,0.980000,-0.700000
14.732746,-0.236192,0.131760,0.973560,-1.260000,-4.200000,-3.080000
14.736812,-0.195688,0.073200,1.057008,0.280000,-5.320000,-1.540000
14.740878,-0.427000,-0.094672,0.959896,-1.540000,5.180000,-1.120000
14.744944,-0.243512,-0.048800,0.961848,0.000000,1.540000,-2.100000
14.749009,-0.192760,0.116632,1.012600,1.120000,-7.560000,-1.680000
14.753075,-0.389912,0.002928,0.916952,0.560000,-2.660000,-2.520000
14.757141,-0.358192,-0.009272,0.903288,1.120000,2.660000,-3.360000
14.761207,-0.134200,0.196664,0.975512,0.420000,-3.640000,-1.400000
14.765273,-0.346968,0.079056,0.818376,-2.940000,-2.100000,-1.120000
14.769339,-0.397232,0.065880,0.914512,-1.120000,2.380000,-3.220000
14.773405,-0.156648,0.130296,1.178520,1.260000,-1.400000,-1.680000
14.777471,-0.254248,0.061976,0.958432,-0.140000,-2.380000,-0.980000
14.781537,-0.352336,-0.075640,0.789584,0.420000,-3.500000,-2.800000
14.785603,-0.245952,0.079056,1.093120,1.400000,0.000000,-3.500000
14.789669,-0.234728,0.055632,1.127768,0.560000,0.840000,-0.840000
14.793735,-0.398208,-0.111752,0.793976,-0.840000,0.420000,-1.260000
14.797801,-0.297680,-0.037088,0.894504,-0.840000,-5.180000,-3.220000
14.801866,-0.200080,0.202520,1.135088,0.560000,-4.340000,-3.220000
14.805932,-0.342088,-0.003904,0.863272,-0.840000,2.380000,-0.700000
14.809998,-0.436760,0.022448,0.797880,-1.400000,2.240000,-1.960000
14.814064,-0.095160,0.136640,1.025776,0.420000,-7.840000,-1.960000
14.818130,-0.344040,0.079544,1.051152,-1.960000,0.280000,-1.540000
14.822196,-0.430904,-0.060024,0.900848,1.120000,2.940000,-1.400000
14.826262,-0.143472,0.100040,1.016504,1.400000,-3.920000,-1.820000
14.830328,-0.214232,0.119072,0.923784,-1.540000,-8.540000,-0.280000
14.834394,-0.473848,-0.029280,0.926712,-1.680000,3.920000,-2.520000
14.838460,-0.205936,0.014152,1.113616,1.960000,2.520000,-0.700000
14.842526,-0.191296,0.039528,0.793488,-1.260000,-3.500000,-0.140000
14.846592,-0.471896,0.039040,0.842288,-1.120000,-5.460000,-2.100000
14.850658,-0.229360,0.027328,1.099464,0.840000,-1.680000,-2.380000
14.854723,-0.219112,0.060512,1.046760,-0.420000,1.400000,0.420000
14.858789,-0.345504,0.005856,0.833504,-1.540000,-1.680000,-0.700000
14.862855,-0.346968,0.045384,0.932568,-0.140000,-5.880000,-2.660000
14.866921,-0.158600,0.116144,1.131184,-0.140000,-2.100000,-0.560000
14.870987,-0.303048,0.064416,0.949160,-2.240000,1.680000,0.000000
14.875053,-0.455304,-0.057584,0.746152,-0.560000,-1.540000,-1.540000
14.879119,-0.112240,0.138592,1.138504,0.420000,-5.740000,-1.400000
14.883185,-0.257664,0.055632,1.004792,-1.400000,0.000000,-0.560000
14.887251,-0.449936,-0.039528,0.918904,-0.280000,3.220000,-1.540000
14.891317,-0.212768,0.008296,0.874496,1.820000,-5.040000,-0.700000
14.895383,-0.205448,0.150792,0.983320,-1.680000,-5.320000,-0.700000
14.899449,-0.426512,0.028792,0.933056,-1.680000,2.800000,-0.840000
14.903515,-0.286456,-0.029768,0.957944,0.560000,0.420000,-0.560000
14.907580,-0.141032,0.120536,0.997472,-0.280000,-6.020000,-0.420000
14.911646,-0.374784,0.027816,0.930128,-1.400000,-4.340000,-1.120000
14.915712,-0.398696,0.005856,0.970144,0.980000,1.820000,-2.520000
14.919778,-0.103456,0.117608,1.105808,0.840000,-1.960000,-0.980000
14.923844,-0.301096,0.050752,0.855952,-1.820000,-3.920000,0.280000
14.927910,-0.473848,0.000000,0.884256,-1.400000,-0.560000,-2.100000
14.931976,-0.124928,0.073200,1.071648,-0.140000,-1.400000,-0.700000
14.936042,-0.161040,0.050752,0.955992,-2.240000,-1.820000,1.120000
14.940108,-0.533872,0.008296,0.791536,-0.280000,-1.120000,-1.960000
14.944174,-0.191296,0.060024,1.048224,1.260000,-4.900000,-1.960000
14.948240,-0.167872,0.077104,1.086288,-0.280000,-1.540000,0.140000
14.952306,-0.448472,-0.065880,0.793000,-1.120000,-0.280000,-0.700000
14.956372,-0.290848,0.055144,0.949160,0.700000,-3.920000,-1.960000
14.960438,-0.166896,0.100528,1.076040,-0.280000,-3.640000,-0.280000
14.964503,-0.358192,0.081984,0.938912,-2.660000,1.260000,-1.120000
14.968569,-0.328424,-0.024400,0.875960,0.280000,-2.800000,-1.260000
14.972635,-0.187392,0.149328,1.049200,0.000000,-3.500000,-1.540000
14.976701,-0.231312,0.109800,1.001376,-1.120000,-3.080000,-0.140000
14.980767,-0.460184,-0.099064,0.863272,-0.420000,1.400000,-1.540000
14.984833,-0.200568,0.022448,1.040904,0.980000,-3.220000,-0.700000
14.988899,-0.201056,0.108336,1.038952,-1.120000,-4.900000,0.420000
14.992965,-0.438712,-0.010736,0.832528,-1.540000,0.280000,-1.120000
14.997031,-0.291824,-0.063928,0.980880,0.420000,-0.140000,-0.980000
15.001097,-0.146400,0.139568,1.058472,-0.700000,-3.500000,0.140000
15.005163,-0.380640,0.046848,0.831064,-1.400000,-3.360000,-0.420000
15.009229,-0.359656,0.052704,0.871568,-0.700000,-0.700000,-1.540000
15.013295,-0.124440,0.134200,1.082872,0.000000,-2.660000,-0.840000
15.017360,-0.249368,0.096624,0.916952,-2.100000,-1.820000,-0.560000
15.021426,-0.421144,-0.019032,0.846192,0.560000,-3.080000,-1.260000
15.025492,-0.154696,0.081984,1.155584,0.420000,-1.540000,-2.660000
15.029558,-0.218624,0.056608,1.029192,-0.280000,-3.500000,0.420000
15.033624,-0.454816,0.001464,0.873032,-1.400000,0.840000,-1.680000
15.037690,-0.253760,-0.070760,0.961848,-0.280000,-5.180000,-1.540000
15.041756,-0.222528,0.069784,1.063352,-0.840000,-3.500000,-1.960000
15.045822,-0.352336,0.037576,0.888160,-0.280000,-0.280000,-0.980000
15.049888,-0.325496,-0.014640,0.794952,0.420000,-4.340000,-1.120000
15.053954,-0.180072,0.159576,1.046760,-1.260000,-5.600000,-2.240000
15.058020,-0.280112,0.166408,0.967216,-2.240000,-1.260000,-0.560000
15.062086,-0.427488,-0.047336,0.874008,0.000000,0.700000,-1.400000
15.066152,-0.115656,0.083448,0.982832,0.420000,-7.700000,-1.680000
15.070217,-0.245952,0.187392,1.065792,0.560000,-5.040000,-2.660000
15.074283,-0.391376,-0.054656,0.902800,0.700000,1.260000,-1.260000
15.078349,-0.266936,-0.017080,0.992592,-0.980000,-0.700000,-2.100000
15.082415,-0.105408,0.092232,1.068720,-2.240000,-8.260000,-0.140000
15.086481,-0.426024,-0.050264,0.967704,-1.540000,-1.120000,-1.960000
15.090547,-0.357704,-0.098576,0.928176,0.560000,-0.980000,-3.500000
15.094613,-0.081008,0.108336,1.051152,0.700000,-7.980000,-1.400000
15.098679,-0.366488,0.111264,0.845216,-1.960000,-0.140000,-2.100000
15.102745,-0.403088,0.058560,0.849120,0.000000,0.700000,-3.780000
15.106811,-0.174216,0.082472,1.011136,-1.120000,-3.500000,-0.560000
15.110877,-0.244488,0.157624,0.986248,-3.080000,-1.960000,-1.540000
15.114943,-0.344040,0.095160,0.934520,2.940000,-3.780000,-3.640000
15.119009,-0.190808,-0.005856,0.964288,0.700000,-1.960000,-2.800000
15.123074,-0.231800,0.094672,1.054568,-2.240000,-0.840000,-1.400000
15.127140,-0.336232,0.050752,0.927688,0.840000,-1.960000,-2.520000
15.131206,-0.298656,-0.092720,1.046272,0.000000,-1.540000,-3.920000
15.135272,-0.206912,0.027816,1.009672,-3.220000,-1.260000,-1.540000
15.139338,-0.349896,0.033184,0.912072,0.420000,-4.340000,-2.660000
15.143404,-0.275232,-0.032696,0.956480,1.960000,-2.800000,-3.640000
15.147470,-0.251808,0.035624,0.961848,-1.820000,0.140000,-2.240000
15.151536,-0.289872,0.064904,0.905728,-0.840000,-2.800000,-1.400000
15.155602,-0.337208,0.098088,0.922808,1.540000,-3.640000,-3.500000
15.159668,-0.267424,0.063928,1.004792,-1.820000,-2.100000,-2.520000
15.163734,-0.270840,0.056120,0.992592,-3.780000,0.140000,-1.120000
15.167800,-0.306464,0.028304,0.973072,2.380000,-3.360000,-1.960000
15.171866,-0.207888,0.028792,0.991616,1.260000,-0.140000,-2.800000
15.175932,-0.254248,0.040992,0.918416,-1.960000,-1.400000,-0.840000
15.179997,-0.385520,0.081496,0.988200,0.840000,-0.280000,-1.960000
15.184063,-0.264496,-0.017568,0.964288,1.120000,-2.240000,-1.820000
15.188129,-0.231312,0.059048,0.989664,-5.040000,-0.700000,-0.980000
15.192195,-0.353312,0.042456,0.971608,0.280000,-3.220000,-1.120000
15.196261,-0.231312,-0.021472,0.904264,2.520000,-0.280000,-2.240000
15.200327,-0.196176,0.080032,0.978928,-1.820000,-1.400000,-1.400000
15.204393,-0.382592,0.083448,0.943792,-0.980000,0.840000,-0.280000
15.208459,-0.323056,0.061976,0.933544,1.820000,-1.400000,-2.100000
15.212525,-0.119560,0.066856,1.012112,-2.520000,-3.220000,-1.120000
15.216591,-0.401136,0.099064,1.007232,-2.800000,1.540000,-1.540000
15.220657,-0.238632,-0.045384,0.941352,2.940000,-1.400000,-1.120000
15.224723,-0.180560,-0.003416,0.977952,-0.700000,-0.560000,-1.820000
15.228789,-0.327448,0.056608,0.958432,-2.380000,2.520000,-1.120000
15.232854,-0.398208,0.078568,0.977952,2.240000,-1.400000,-1.540000
15.236920,-0.159576,0.021472,0.911584,-0.560000,-2.660000,-0.840000
15.240986,-0.281088,0.025376,1.008696,-4.900000,-0.560000,-0.280000
15.245052,-0.397720,0.028304,0.989176,0.980000,0.700000,-0.840000
15.249118,-0.202520,0.052704,0.954528,2.380000,-1.820000,-1.540000
15.253184,-0.236192,0.061000,0.950136,-2.240000,-0.280000,0.140000
15.257250,-0.408944,0.042456,0.909144,-0.420000,1.680000,-1.820000
15.261316,-0.211304,0.055144,1.004304,1.960000,-4.340000,-0.980000
15.265382,-0.201544,0.023424,0.979904,-3.360000,-1.400000,0.140000
15.269448,-0.366976,0.065392,0.953064,-1.120000,1.820000,-1.540000
15.273514,-0.233264,0.068808,0.921832,3.360000,-3.220000,-1.260000
15.277580,-0.186416,0.023424,1.013576,-1.120000,0.420000,-1.260000
15.281646,-0.371368,0.074176,0.926224,-2.380000,1.540000,-1.260000
15.285711,-0.318664,0.046848,0.979904,2.660000,-1.680000,-2.520000
15.289777,-0.160064,-0.022448,0.979416,-1.540000,-1.260000,-0.840000
15.293843,-0.294264,0.086376,0.996496,-3.220000,0.560000,-2.380000
15.297909,-0.337696,0.012688,0.890112,2.520000,-2.100000,-1.960000
15.301975,-0.201056,0.044408,0.961848,0.140000,-1.120000,-2.380000
15.306041,-0.279136,0.060512,0.972584,-2.520000,-0.280000,-1.960000
15.310107,-0.398208,0.088328,0.947696,0.140000,-1.120000,-2.660000
15.314173,-0.162016,0.046360,0.952576,-0.140000,-4.060000,-2.800000
15.318239,-0.223992,0.046360,1.018456,-4.060000,-1.960000,-1.260000
15.322305,-0.385520,0.070760,0.931104,0.280000,0.280000,-2.800000
15.326371,-0.231800,0.032696,0.983808,3.500000,-2.520000,-3.780000
15.330437,-0.197152,0.041480,0.915000,-2.520000,-1.260000,-1.680000
15.334503,-0.422608,0.113704,0.917440,-1.260000,-0.700000,-3.360000
15.338569,-0.244488,0.032208,0.996496,1.960000,-4.200000,-3.500000
15.342634,-0.153720,-0.041968,0.979416,-4.340000,-0.840000,-1.540000
15.346700,-0.388448,0.080032,0.946720,-2.380000,0.560000,-2.520000
15.350766,-0.300608,0.094184,1.031632,5.040000,-2.940000,-3.220000
15.354832,-0.126880,-0.062952,0.920368,-1.120000,-2.800000,-1.680000
15.358898,-0.398696,0.124928,0.936960,-3.360000,0.420000,-2.800000
15.362964,-0.283040,0.106872,1.006744,3.080000,-2.240000,-2.940000
15.367030,-0.156160,-0.038552,1.009672,-2.100000,-1.400000,-2.240000
15.371096,-0.279136,0.006832,0.991616,-3.080000,-0.700000,-3.080000
15.375162,-0.333304,0.057584,1.037000,4.060000,-3.220000,-3.780000
15.379228,-0.173728,-0.048800,0.945744,0.420000,0.280000,-2.800000
15.383294,-0.301096,0.070760,0.932080,-5.180000,-0.280000,-2.380000
15.387360,-0.394792,0.068808,1.005280,0.840000,0.140000,-3.360000
15.391426,-0.203496,-0.071736,0.988200,1.400000,-1.820000,-2.800000
15.395491,-0.309880,0.052216,0.888648,-2.660000,2.240000,-2.940000
15.399557,-0.380152,0.081008,0.925248,2.240000,-2.940000,-2.940000
15.403623,-0.213256,0.044408,0.963312,2.240000,-2.660000,-3.080000
15.407689,-0.239608,0.044896,0.894992,-2.800000,0.280000,-2.380000
15.411755,-0.436272,0.071248,0.988200,-0.560000,0.700000,-1.400000
15.415821,-0.255712,0.089304,0.998936,1.820000,-2.240000,-1.820000
15.419887,-0.179096,-0.029280,0.946232,-1.400000,-1.120000,-0.700000
15.423953,-0.379664,0.084424,0.923784,-1.680000,1.960000,-0.420000
15.428019,-0.227408,0.098576,1.088240,3.780000,-3.360000,-1.540000
15.432085,-0.198616,-0.031720,0.870592,-1.120000,-0.420000,0.000000
15.436151,-0.364536,0.104920,1.017968,-2.940000,4.620000,-1.120000
15.440217,-0.286944,0.069296,0.962336,2.380000,-3.220000,0.140000
15.444283,-0.219600,-0.054168,0.969168,-0.700000,0.560000,-0.560000
15.448348,-0.278648,0.040504,0.978440,-2.380000,2.100000,-0.560000
15.452414,-0.318664,0.098576,0.944280,0.840000,0.840000,-0.560000
15.456480,-0.227408,0.012688,0.970144,1.540000,-0.560000,-0.280000
15.460546,-0.276208,0.015128,0.956968,-2.660000,0.840000,-0.280000
15.464612,-0.402112,0.063440,0.954040,-0.560000,-0.840000,-0.980000
15.468678,-0.152744,0.013176,0.969656,1.120000,-2.240000,0.420000
15.472744,-0.261080,-0.030256,0.994544,-2.380000,2.100000,-0.560000
15.476810,-0.400160,0.094184,0.957456,-0.840000,1.960000,-0.560000
15.480876,-0.258640,0.057096,0.934520,2.800000,-2.940000,-0.560000
15.484942,-0.179096,-0.068808,0.884744,-2.800000,-0.420000,0.280000
15.489008,-0.399184,0.112240,1.028216,-2.520000,2.240000,-0.980000
15.493074,-0.248880,0.133712,0.969168,3.360000,-1.960000,0.140000
15.497140,-0.183488,0.060024,0.879376,-1.960000,-1.260000,0.000000
15.501206,-0.386008,0.063440,0.996984,-2.100000,0.980000,-1.260000
15.505271,-0.270840,0.104432,0.967704,2.240000,-0.560000,-0.420000
15.509337,-0.122488,0.002440,0.995032,-0.560000,-1.540000,-0.420000
15.513403,-0.372832,0.035624,0.936472,-1.960000,2.100000,0.280000
15.517469,-0.363072,0.044408,1.004304,2.240000,0.840000,-1.540000
15.521535,-0.121512,0.014640,0.988688,0.140000,-4.340000,0.700000
15.525601,-0.325984,0.035624,0.959896,-3.220000,1.540000,-0.700000
15.529667,-0.333792,-0.010248,1.004304,0.280000,0.000000,-0.700000
15.533733,-0.186904,0.007320,0.990640,-0.420000,-0.700000,-0.420000
15.537799,-0.236680,0.035136,0.937936,-2.240000,-0.140000,0.140000
15.541865,-0.421632,0.065392,0.934032,1.400000,0.980000,-1.680000
15.545931,-0.224968,0.053192,0.944280,1.400000,-0.840000,-1.260000
15.549997,-0.223016,0.090280,0.937936,-3.220000,-1.400000,0.280000
15.554063,-0.351848,0.036600,0.907680,-0.700000,-0.700000,-0.560000
15.558128,-0.284016,0.058072,1.026752,1.960000,0.140000,-1.400000
15.562194,-0.161040,0.054656,0.997960,-2.240000,-0.420000,0.840000
15.566260,-0.416264,0.037088,0.899384,-1.820000,1.820000,-0.420000
15.570326,-0.301096,0.016592,0.943792,2.380000,-1.680000,-1.400000
15.574392,-0.174216,-0.007320,0.990640,-1.960000,-1.960000,0.420000
15.578458,-0.335256,0.073688,0.997960,-3.220000,0.560000,-0.140000
15.582524,-0.333792,0.019032,0.945256,2.800000,-1.400000,-0.980000
15.586590,-0.197640,0.046360,0.954040,-0.840000,-0.420000,-1.120000
15.590656,-0.228384,0.068808,0.953064,-2.940000,-1.400000,0.840000
15.594722,-0.405040,0.078080,0.936960,0.700000,1.960000,-0.980000
15.598788,-0.206424,0.080032,0.914512,0.560000,-1.960000,-1.400000
15.602854,-0.206424,0.056120,0.960872,-4.060000,-1.120000,0.280000
15.606920,-0.386496,0.105896,0.907192,0.700000,-2.100000,-0.420000
15.610985,-0.181048,0.069784,1.052128,2.660000,-1.400000,-2.660000
15.615051,-0.182512,0.011712,1.030656,-3.080000,-0.420000,-0.140000
15.619117,-0.365024,0.054656,0.976976,0.280000,0.420000,-0.700000
15.623183,-0.273768,-0.044408,0.994544,1.540000,-2.100000,-1.960000
15.627249,-0.245464,0.008784,1.043344,-2.800000,-0.560000,-1.680000
15.631315,-0.280600,-0.010736,0.908656,-1.400000,-1.260000,-0.280000
15.635381,-0.341600,0.040016,0.875960,0.840000,-1.400000,-2.520000
15.639447,-0.209840,0.110288,1.024312,0.560000,-1.680000,-2.940000
15.643513,-0.314272,0.078568,0.941352,-2.520000,0.840000,0.000000
15.647579,-0.341600,0.025376,0.860344,0.280000,-0.140000,-1.400000
15.651645,-0.209352,0.043920,0.975512,0.000000,-2.940000,-1.680000
15.655711,-0.269864,0.059536,1.058960,-2.380000,-0.140000,-0.140000
15.659777,-0.353800,0.034160,0.872056,0.980000,1.120000,-0.280000
15.663843,-0.229848,0.020984,0.948672,0.700000,-2.240000,-1.400000
15.667908,-0.264984,0.084424,1.052616,-1.540000,0.420000,-1.260000
15.671974,-0.296704,0.001464,0.938912,-0.560000,-1.120000,0.560000
15.676040,-0.312320,0.009272,0.930128,0.560000,-2.800000,-1.260000
15.680106,-0.139568,0.089304,1.089216,-2.660000,-0.700000,-0.280000
15.684172,-0.337208,0.070760,1.007232,-0.560000,1.960000,0.700000
15.688238,-0.319152,0.007808,0.860344,0.840000,3.080000,-0.980000
15.692304,-0.242536,0.070760,0.952088,-0.700000,-3.500000,-0.980000
15.696370,-0.272792,0.042456,1.043832,-2.100000,1.680000,-0.140000
15.700436,-0.321104,0.039528,0.882792,0.840000,0.840000,-0.700000
15.704502,-0.166408,0.060024,0.945256,0.000000,-3.640000,-1.120000
15.708568,-0.280112,0.060512,1.031632,-1.260000,-0.280000,-0.700000
15.712634,-0.366000,0.000488,0.896944,-0.560000,2.660000,-1.400000
15.716700,-0.236680,0.014152,0.967216,-0.280000,-4.760000,-1.540000
15.720765,-0.277672,0.005856,1.018456,-1.540000,-2.800000,-1.120000
15.724831,-0.352824,0.035136,0.935984,-0.840000,1.260000,-1.120000
15.728897,-0.226920,-0.007808,0.914512,0.280000,-1.820000,-1.120000
15.732963,-0.250344,0.155184,0.977464,-0.700000,-2.520000,-1.260000
15.737029,-0.236192,0.080520,0.939888,-0.140000,0.840000,-1.540000
15.741095,-0.313784,0.048312,0.907192,-0.420000,1.120000,-1.540000
15.745161,-0.259128,0.130296,0.975024,0.420000,-2.800000,-1.540000
15.749227,-0.247416,0.083936,1.027240,0.700000,-1.960000,-1.260000
15.753293,-0.267912,-0.039528,0.956480,-1.400000,1.540000,-2.380000
15.757359,-0.296704,0.067832,1.038464,-0.980000,-0.840000,-1.820000
15.761425,-0.258640,-0.026840,1.057496,1.120000,-2.100000,-1.400000
15.765491,-0.218136,-0.090280,0.976000,-0.980000,-0.280000,-1.960000
15.769557,-0.400648,0.033672,0.912560,-0.560000,-1.540000,-2.940000
15.773622,-0.221552,0.120536,0.974536,0.700000,-2.240000,-2.100000
15.777688,-0.229360,-0.015128,0.926712,-1.260000,-0.840000,-1.680000
15.781754,-0.332816,0.059536,0.890112,-2.660000,1.540000,-2.380000
15.785820,-0.321104,0.190320,0.960872,0.700000,-1.540000,-2.800000
15.789886,-0.161040,0.034160,0.922808,1.680000,-2.100000,-2.100000
15.793952,-0.282552,0.000488,0.881328,-2.800000,-0.140000,-2.520000
15.798018,-0.311832,0.170800,1.041880,0.560000,-2.240000,-3.080000
15.802084,-0.214720,0.061000,1.036024,1.400000,-1.120000,-0.980000
15.806150,-0.331352,-0.074664,0.888648,-1.680000,2.800000,-2.520000
15.810216,-0.318664,0.114192,1.008208,-1.120000,-1.680000,-2.240000
15.814282,-0.209352,0.008784,1.099464,0.420000,-2.240000,-1.120000
15.818348,-0.241560,-0.081496,0.933056,-1.680000,1.400000,-0.980000
15.822414,-0.406016,0.066368,0.938912,0.280000,-0.560000,-3.500000
15.826480,-0.199592,0.033184,1.022360,2.100000,-3.080000,-1.260000
15.830545,-0.249856,-0.044408,0.911584,-2.380000,1.960000,-1.120000
15.834611,-0.391864,0.118584,0.939888,-1.820000,0.560000,-2.100000
15.838677,-0.289384,0.111752,0.982344,1.540000,-2.940000,-1.400000
15.842743,-0.189832,-0.051728,0.905728,-0.560000,-0.140000,-1.540000
15.846809,-0.248392,0.045872,0.894504,-1.120000,-1.400000,-2.240000
15.850875,-0.369904,0.205448,1.019432,1.120000,0.560000,-1.680000
15.854941,-0.189832,0.037088,0.985760,0.140000,-0.840000,-0.700000
15.859007,-0.307440,-0.036600,0.852536,-2.380000,0.280000,-1.400000
15.863073,-0.337696,0.092232,1.047248,-0.560000,-2.100000,-2.100000
15.867139,-0.198616,0.046360,1.059936,1.400000,-1.680000,-0.980000
15.871205,-0.222528,-0.101016,0.903288,-1.400000,-0.280000,-0.840000
15.875271,-0.377712,0.119560,1.035536,0.000000,1.680000,-2.800000
15.879337,-0.210816,0.054168,0.969168,1.820000,-2.380000,0.420000
15.883402,-0.291336,-0.035136,0.949648,-3.080000,3.780000,-1.120000
15.887468,-0.297192,0.060024,0.939400,-1.960000,-1.120000,-0.140000
15.891534,-0.302560,0.068320,1.017968,1.540000,-0.840000,-0.980000
15.895600,-0.185440,0.015616,0.982344,0.140000,0.980000,-0.420000
15.899666,-0.344528,0.061976,0.923784,-1.400000,2.240000,-1.540000
15.903732,-0.343552,0.098576,0.956480,1.540000,-0.840000,-0.700000
15.907798,-0.188368,-0.012688,0.988200,-0.700000,2.100000,-0.560000
15.911864,-0.248392,0.038064,0.948672,-2.800000,0.560000,-0.140000
15.915930,-0.331840,0.104432,1.021384,1.400000,1.400000,-0.980000
15.919996,-0.179584,-0.034160,0.959896,1.820000,0.840000,0.000000
15.924062,-0.340624,0.012200,0.865712,-2.520000,3.080000,-0.700000
15.928128,-0.297192,0.126880,0.997472,0.140000,-0.700000,-0.840000
15.932194,-0.240096,0.009760,1.045784,1.540000,0.420000,-0.840000
15.936260,-0.241560,-0.052704,0.870104,-3.080000,1.260000,-0.140000
15.940325,-0.386496,0.114680,0.996984,-0.840000,0.700000,-1.820000
15.944391,-0.190320,0.046360,0.958432,2.660000,-1.680000,-0.840000
15.948457,-0.272304,-0.011224,0.943792,-3.500000,2.100000,-1.260000
15.952523,-0.337208,0.094184,0.958920,-0.840000,-0.840000,-1.540000
15.956589,-0.301584,0.069784,0.994056,2.940000,-0.980000,-1.820000
15.960655,-0.183000,0.025376,0.934032,-2.940000,1.400000,-0.700000
15.964721,-0.393816,0.068320,0.959408,-1.400000,1.120000,-1.120000
15.968787,-0.256200,0.084912,0.881328,2.380000,-1.120000,-0.840000
15.972853,-0.164456,0.068320,0.990152,-0.420000,0.980000,-1.260000
15.976919,-0.329888,0.086376,0.954528,-1.680000,2.240000,-0.140000
15.980985,-0.346480,0.075640,0.976976,2.800000,0.420000,-2.380000
15.985051,-0.129320,0.021960,0.982832,-0.560000,-0.700000,-0.420000
15.989117,-0.343552,0.046360,0.967216,-2.940000,2.380000,-1.260000
15.993182,-0.265472,0.026352,1.039928,2.240000,0.280000,-1.400000
15.997248,-0.183000,0.017568,0.979416,0.000000,0.840000,-1.260000
16.001314,-0.340624,0.023424,0.883768,-1.960000,1.820000,-1.260000
16.005380,-0.409920,0.015616,0.968192,2.660000,-0.560000,-2.520000
16.009446,-0.123464,0.015616,1.016016,0.420000,-1.400000,-1.260000
16.013512,-0.344528,0.003416,0.921832,-4.060000,0.280000,-0.700000
16.017578,-0.392352,0.089792,1.006744,1.120000,0.420000,-1.260000
16.021644,-0.142008,0.022936,0.943304,0.980000,-1.120000,-0.840000
16.025710,-0.260104,0.038064,0.952088,-4.340000,2.940000,-0.560000
16.029776,-0.427000,0.089792,0.914024,0.420000,0.140000,-0.420000
16.033842,-0.279624,0.003416,0.950136,2.100000,-1.540000,-1.120000
16.037908,-0.157136,0.043432,0.983320,-3.780000,0.420000,0.280000
16.041974,-0.332328,0.070760,1.007720,-0.280000,-0.140000,0.140000
16.046039,-0.313784,0.012200,0.976488,2.660000,-0.420000,-1.400000
16.050105,-0.205936,-0.008784,0.954040,-0.980000,0.280000,-0.140000
16.054171,-0.296704,0.026352,0.979416,-4.060000,2.800000,0.000000
16.058237,-0.375272,0.098088,0.941840,1.820000,-1.400000,-0.560000
16.062303,-0.175192,0.014152,1.006256,-0.420000,0.980000,-0.420000
16.066369,-0.283040,0.029280,0.923296,-3.220000,1.960000,0.140000
16.070435,-0.380152,0.114680,0.904752,2.660000,0.560000,-1.540000
16.074501,-0.162504,0.057096,0.938424,0.140000,-1.120000,0.140000
16.078567,-0.266936,0.061488,1.000888,-4.340000,3.220000,0.280000
16.082633,-0.401136,0.078080,0.911096,0.980000,1.120000,-0.700000
16.086699,-0.222528,0.053680,0.934032,2.240000,-1.540000,-1.120000
16.090765,-0.179096,0.052704,1.058472,-3.220000,-1.820000,-0.140000
16.094831,-0.386984,0.039040,0.985760,-0.280000,1.540000,0.280000
16.098897,-0.253272,-0.043920,0.909144,1.120000,-0.140000,-0.980000
16.102962,-0.212768,0.029280,1.042856,-2.100000,0.700000,-0.700000
16.107028,-0.326960,0.028304,1.019920,0.000000,0.280000,0.280000
16.111094,-0.341600,0.031720,0.848144,0.700000,-0.280000,-1.680000
16.115160,-0.163480,0.100040,0.996496,-1.400000,-2.520000,-0.420000
16.119226,-0.324032,0.111752,0.985760,-2.100000,3.500000,-0.140000
16.123292,-0.342088,-0.026352,0.875472,0.980000,1.820000,-0.840000
16.127358,-0.212768,0.055632,0.978440,-0.980000,-1.540000,-0.840000
16.131424,-0.232776,0.045384,1.062864,-0.420000,-0.840000,0.700000
16.135490,-0.355752,-0.015128,0.854488,1.260000,1.540000,-0.840000
16.139556,-0.216184,0.063928,0.982832,0.000000,-1.260000,-0.980000
16.143622,-0.285480,0.069784,1.051640,-1.680000,0.980000,0.140000
16.147688,-0.314272,-0.048800,0.884744,-0.980000,1.120000,-0.840000
16.151754,-0.322568,0.022448,0.926224,-0.980000,-1.960000,-1.400000
16.155819,-0.280600,0.117608,1.053104,-0.420000,-1.960000,-1.540000
16.159885,-0.283528,0.060512,0.876936,0.420000,-0.700000,-0.280000
16.163951,-0.275720,0.018544,0.836432,-1.540000,0.280000,-1.260000
16.168017,-0.259128,0.182024,1.049688,-1.260000,-1.260000,-0.700000
16.172083,-0.267912,0.076128,1.014064,-0.420000,-0.560000,0.140000
16.176149,-0.295728,-0.040504,0.894016,-0.700000,0.560000,-0.700000
16.180215,-0.258152,0.053192,0.989176,0.280000,-2.240000,-1.680000
16.184281,-0.272792,0.073688,1.059448,0.840000,-0.560000,-0.280000
16.188347,-0.249368,-0.071736,0.855952,-2.100000,1.260000,-0.560000
16.192413,-0.347944,0.071736,0.952088,-2.520000,-1.680000,-1.120000
16.196479,-0.249856,0.078080,1.079944,0.560000,-3.220000,-0.560000
16.200545,-0.250344,-0.011712,1.014064,-1.540000,2.520000,-0.280000
16.204611,-0.304512,0.011712,0.800320,-1.400000,-0.420000,-0.560000
16.208676,-0.311344,0.154696,1.016992,3.360000,-0.980000,-1.540000
16.212742,-0.139080,-0.026352,1.029192,-0.420000,1.540000,0.280000
16.216808,-0.420168,0.004880,0.846680,-2.940000,1.680000,-0.280000
16.220874,-0.288896,0.131760,1.022848,0.840000,-2.240000,-0.980000
16.224940,-0.232776,-0.041968,1.005280,0.140000,-1.120000,-0.280000
16.229006,-0.260592,-0.005856,0.920856,-3.780000,1.120000,0.280000
16.233072,-0.420656,0.156648,0.933544,0.560000,0.280000,-1.120000
16.237138,-0.216184,0.031232,0.907680,1.960000,-2.380000,-0.420000
16.241204,-0.182024,0.064416,0.945256,-3.640000,1.540000,0.000000
16.245270,-0.346968,0.126392,0.964288,-1.260000,1.540000,0.280000
16.249336,-0.326472,0.069296,0.967216,2.800000,-4.060000,-0.980000
16.253402,-0.123464,-0.032208,1.083360,-1.260000,0.000000,-0.560000
16.257468,-0.320128,0.028792,0.973072,-3.360000,0.840000,0.000000
16.261534,-0.401136,-0.044896,0.934520,1.680000,-1.540000,-0.700000
16.265599,-0.152256,0.049776,0.995520,0.140000,-0.840000,-0.700000
16.269665,-0.300120,0.075152,0.960384,-4.060000,1.960000,0.000000
16.273731,-0.362584,0.088816,0.913536,0.560000,-0.420000,-0.280000
16.277797,-0.197152,0.024888,0.950136,2.100000,-0.700000,-1.120000
16.281863,-0.202032,0.049288,1.003816,-2.380000,0.980000,0.280000
16.285929,-0.436272,0.035624,0.960872,-0.840000,0.700000,-0.560000
16.289995,-0.285480,-0.031720,0.858392,1.820000,-2.800000,-0.420000
16.294061,-0.219600,0.000488,1.031632,-1.960000,-1.960000,-0.420000
16.298127,-0.322568,0.103944,1.000888,-3.080000,0.700000,0.140000
16.302193,-0.360144,0.013176,0.836920,1.680000,-3.360000,-0.980000
16.306259,-0.173728,0.079544,0.964776,-0.980000,-2.940000,-0.280000
16.310325,-0.214720,0.154696,1.011624,-3.780000,2.380000,-0.140000
16.314391,-0.464088,0.071736,0.870592,1.260000,-0.420000,0.000000
16.318456,-0.152744,0.001464,0.957456,0.560000,-3.220000,-1.120000
16.322522,-0.233264,0.031720,1.133624,-2.940000,-1.680000,0.560000
16.326588,-0.366488,-0.012688,0.928176,-0.700000,-0.140000,-0.420000
16.330654,-0.265960,0.010248,0.906216,1.400000,-2.100000,-0.560000
16.334720,-0.178120,0.047336,1.031632,-2.940000,-2.380000,-0.420000
16.338786,-0.392352,0.078568,1.026264,-0.980000,0.140000,0.140000
16.342852,-0.278648,0.004880,0.852048,0.840000,0.700000,-0.700000
16.346918,-0.205448,0.054168,0.955016,-0.700000,-3.080000,-0.700000
16.350984,-0.283040,0.112240,1.036024,-1.540000,0.700000,0.700000
16.355050,-0.338672,0.027328,0.887184,-0.560000,1.400000,-0.420000
16.359116,-0.247416,-0.009272,0.936960,-0.280000,-2.100000,-1.120000
16.363182,-0.253760,0.062464,1.044808,-1.540000,-1.120000,-0.140000
16.367248,-0.350384,0.023912,0.970632,0.280000,0.980000,-0.280000
16.371313,-0.293776,0.016104,0.846680,-0.280000,-1.120000,-0.700000
16.375379,-0.212768,0.125904,0.985272,-1.400000,-2.240000,0.420000
16.379445,-0.231312,0.138104,1.047248,-0.840000,0.420000,0.280000
16.383511,-0.323056,0.016104,0.910608,0.420000,2.520000,-0.840000
16.387577,-0.228384,0.008784,0.950624,-0.840000,-2.660000,-0.280000
16.391643,-0.338184,0.021472,1.085312,0.560000,-0.980000,-0.700000
16.395709,-0.218624,-0.015616,0.955016,-1.120000,0.420000,-0.280000
16.399775,-0.269864,0.008296,0.953064,-3.220000,-0.560000,-0.280000
16.403841,-0.326960,0.094184,0.955992,0.980000,-0.700000,-0.280000
16.407907,-0.240584,-0.004392,0.986736,0.000000,1.120000,-0.420000
16.411973,-0.328424,0.046848,0.885232,-2.520000,-0.140000,-0.140000
16.416039,-0.312808,0.143472,0.962336,1.540000,-2.100000,-0.420000
16.420105,-0.209352,-0.003904,1.004792,0.560000,-1.260000,-0.700000
16.424171,-0.270352,-0.022448,0.936472,-3.640000,2.240000,0.140000
16.428236,-0.417240,0.103456,0.928176,-0.140000,-1.120000,-0.980000
16.432302,-0.146888,-0.006832,1.063840,2.240000,-2.380000,-0.560000
16.436368,-0.246440,-0.009760,0.908656,-3.080000,0.700000,0.420000
16.440434,-0.459696,0.135176,0.885232,-1.540000,2.800000,-1.260000
16.444500,-0.188368,0.124928,0.947696,2.940000,-5.040000,0.420000
16.448566,-0.204960,-0.003416,0.984784,-3.220000,0.840000,-0.140000
16.452632,-0.367952,0.108336,0.988688,-3.080000,1.960000,-0.280000
16.456698,-0.261568,0.064416,0.974048,3.220000,-3.360000,-0.700000
16.460764,-0.172752,-0.052216,0.974048,-1.120000,-1.540000,0.000000
16.464830,-0.294752,0.083936,1.016504,-3.920000,3.780000,-0.700000
16.468896,-0.386984,0.011712,0.961848,1.120000,0.140000,0.000000
16.472962,-0.172264,0.007320,0.964288,0.700000,-2.800000,-0.980000
16.477028,-0.295728,0.079544,0.996008,-2.520000,1.260000,-0.280000
16.481093,-0.361120,0.034160,0.904752,-0.280000,0.980000,-0.840000
16.485159,-0.237656,0.041480,0.948672,1.400000,-2.800000,-0.280000
16.489225,-0.149328,0.047824,1.068232,-2.380000,1.120000,0.000000
16.493291,-0.444080,0.000000,0.899384,-1.680000,3.640000,-0.560000
16.497357,-0.319640,0.002440,0.894504,1.540000,-1.540000,-0.840000
16.501423,-0.162504,0.061000,1.001376,-0.700000,-2.240000,0.280000
16.505489,-0.341112,0.067344,0.979416,-2.240000,2.520000,0.280000
16.509555,-0.346968,0.090768,0.845216,1.400000,0.000000,-1.120000
16.513621,-0.189832,0.090280,0.911096,0.000000,-2.800000,-0.140000
16.517687,-0.246928,0.081008,1.076528,-2.100000,-0.700000,-0.420000
16.521753,-0.335256,0.040504,0.953552,-0.420000,1.120000,-0.420000
16.525819,-0.269376,-0.026352,0.919880,0.140000,-1.540000,-0.700000
16.529885,-0.209840,0.104432,1.108248,-1.960000,-0.700000,0.000000
16.533951,-0.276696,-0.020008,0.963800,-0.980000,1.400000,0.420000
16.538016,-0.351360,0.038064,0.825208,0.560000,2.660000,-0.980000
16.542082,-0.230824,0.110288,0.996984,-0.560000,-3.640000,-0.840000
16.546148,-0.260592,0.063928,1.048224,-0.560000,-0.140000,0.420000
16.550214,-0.361120,-0.037576,0.837408,-0.280000,1.260000,-1.120000
16.554280,-0.227408,0.061488,1.022848,-0.840000,-2.380000,-0.980000
16.558346,-0.211792,0.000488,1.092632,-0.420000,-1.820000,1.540000
16.562412,-0.406016,-0.055144,0.908656,-0.280000,4.060000,-1.260000
16.566478,-0.295240,0.061488,0.911584,-0.280000,-1.540000,-0.840000
16.570544,-0.210816,0.137616,1.027240,-0.840000,-2.660000,0.280000
16.574610,-0.260104,-0.019520,0.917440,-0.700000,0.840000,-0.280000
16.578676,-0.334280,0.077592,0.883280,-1.820000,1.820000,-1.540000
16.582742,-0.280600,0.131272,1.015528,-0.560000,-1.680000,0.980000
16.586808,-0.225944,0.014152,0.930128,-0.140000,1.260000,-0.280000
16.590873,-0.223992,0.022448,0.937936,-2.660000,2.100000,-0.560000
16.594939,-0.396256,0.076616,1.006744,0.000000,0.420000,-0.700000
16.599005,-0.241560,0.051728,0.951600,1.820000,-1.820000,-0.420000
16.603071,-0.224480,-0.028304,0.953064,-2.380000,-0.560000,-0.700000
16.607137,-0.391864,0.046848,0.961848,-2.240000,1.680000,0.000000
16.611203,-0.246440,0.168848,0.985272,1.400000,-1.540000,-0.420000
16.615269,-0.154696,-0.007808,0.961360,-0.140000,-2.380000,0.420000
16.619335,-0.405528,0.020008,0.912072,-2.100000,2.520000,-1.120000
16.623401,-0.281576,0.135176,1.041880,1.400000,-1.120000,-1.260000
16.627467,-0.130296,-0.007808,0.985272,-1.260000,-0.980000,0.980000
16.631533,-0.323544,-0.032696,0.985272,-3.360000,1.960000,-0.700000
16.635599,-0.406016,0.021960,0.958920,1.120000,0.000000,-0.980000
16.639665,-0.191296,0.002440,1.003328,0.700000,-1.680000,0.000000
16.643731,-0.255712,0.059536,0.921832,-2.660000,-0.980000,0.280000
16.647796,-0.435296,0.074176,0.884256,0.560000,1.960000,-1.540000
16.651862,-0.249856,0.026352,0.938912,0.700000,-0.560000,-0.560000
16.655928,-0.115656,0.062952,1.009184,-3.080000,-3.920000,1.120000
16.659994,-0.422608,0.048800,0.928664,-0.280000,0.280000,-0.420000
16.664060,-0.330376,0.000976,0.959896,2.100000,1.260000,-1.540000
16.668126,-0.109312,0.060024,0.983320,-2.660000,-2.520000,0.700000
16.672192,-0.340624,0.035136,0.887184,-2.380000,-0.840000,0.560000
16.676258,-0.402600,0.063440,1.042368,1.960000,1.820000,-2.380000
16.680324,-0.118096,0.096136,0.958920,-0.420000,-1.820000,0.420000
16.684390,-0.307440,0.128832,0.922808,-2.520000,-0.420000,0.420000
16.688456,-0.348920,0.020496,0.928664,1.540000,0.000000,-0.980000
16.692522,-0.212280,0.018056,0.949648,-1.120000,0.420000,-0.840000
16.696588,-0.281088,0.079544,1.066280,-3.360000,0.000000,0.840000
16.700653,-0.276208,-0.026352,0.996984,1.680000,-3.080000,-0.140000
16.704719,-0.322080,-0.037576,0.896456,1.680000,0.420000,-1.960000
16.708785,-0.238144,0.153720,1.036512,-1.260000,0.700000,-0.560000
16.712851,-0.261080,0.038064,0.913536,-1.120000,-2.240000,1.400000
16.716917,-0.358192,-0.052704,0.901824,-0.560000,0.840000,-1.400000
16.720983,-0.218624,0.042456,1.095072,-0.980000,-0.700000,-0.980000
16.725049,-0.274256,0.067344,1.003816,-1.120000,-2.380000,0.840000
16.729115,-0.311832,-0.053680,0.853024,0.560000,0.000000,-0.280000
16.733181,-0.298656,0.089792,0.901336,-0.280000,0.000000,-2.100000
16.737247,-0.255712,0.142984,1.073600,-1.960000,0.980000,0.000000
16.741313,-0.229848,0.041968,0.870592,-1.120000,-1.260000,1.120000
16.745379,-0.343064,0.058560,0.928664,-1.120000,1.680000,-2.520000
16.749445,-0.265960,0.104432,1.032120,-0.420000,-0.700000,-0.700000
16.753510,-0.203984,-0.005856,1.002840,0.700000,-1.680000,0.840000
16.757576,-0.274256,0.025376,0.884744,-0.840000,1.120000,-0.560000
16.761642,-0.391376,0.088328,0.998448,-0.420000,2.100000,-1.960000
16.765708,-0.242048,0.054168,0.966728,0.140000,-0.980000,0.420000
16.769774,-0.206912,0.019032,0.927688,-2.100000,-2.380000,0.140000
16.773840,-0.359168,0.067344,1.013576,-0.980000,0.560000,-1.680000
16.777906,-0.281576,-0.025864,1.001376,0.980000,-0.140000,-0.420000
16.781972,-0.213256,-0.002440,0.969656,-0.700000,-0.980000,0.560000
16.786038,-0.247416,0.076128,0.982832,-1.820000,-1.120000,-1.120000
16.790104,-0.437248,-0.009272,0.974536,0.280000,1.540000,-1.540000
16.794170,-0.183488,0.036112,0.947208,-0.140000,-0.280000,-0.140000
16.798236,-0.203496,0.094184,0.980880,-1.960000,-2.660000,-0.280000
16.802302,-0.408944,0.026840,0.838384,0.280000,1.540000,-1.400000
16.806368,-0.309880,0.029280,0.965752,0.840000,2.800000,-0.840000
16.810433,-0.167384,0.087840,0.977464,-1.540000,-1.400000,0.980000
16.814499,-0.418704,0.043432,0.898896,-1.400000,-0.700000,0.140000
16.818565,-0.310368,0.001952,0.948672,1.260000,-0.560000,-1.540000
16.822631,-0.133712,0.135664,1.080920,-0.700000,-2.240000,-0.420000
16.826697,-0.244976,0.043432,0.935008,-2.240000,-0.560000,0.840000
16.830763,-0.421144,0.041968,0.893528,1.120000,3.080000,-2.240000
16.834829,-0.194224,0.081984,0.979416,0.420000,-0.700000,-0.840000
16.838895,-0.205936,0.076128,1.076040,-3.640000,0.280000,0.840000
16.842961,-0.379664,-0.025376,0.927688,1.260000,-0.840000,-0.700000
16.847027,-0.291824,-0.023912,0.905240,1.120000,-0.140000,-2.380000
16.851093,-0.188856,0.112728,1.066768,-3.360000,-1.260000,0.700000
16.855159,-0.316712,0.033184,0.918904,-0.140000,-0.700000,0.140000
16.859225,-0.358192,-0.012200,0.898408,1.260000,0.560000,-1.820000
16.863290,-0.184952,0.073688,1.020896,-1.680000,-0.560000,-0.280000
16.867356,-0.239120,0.082960,1.017480,-0.700000,-2.380000,1.260000
16.871422,-0.376248,-0.042456,0.828136,0.980000,1.400000,-1.260000
16.875488,-0.234240,0.032208,1.036024,-0.560000,-0.840000,-1.120000
16.879554,-0.244976,0.063928,1.053592,-1.960000,-0.700000,0.840000
16.883620,-0.373320,-0.007808,0.811544,-0.140000,-0.140000,-0.560000
16.887686,-0.280112,0.043432,0.948672,0.140000,-2.380000,-2.240000
16.891752,-0.252296,0.169336,0.999912,-1.400000,-0.980000,-0.420000
16.895818,-0.243512,0.045384,0.923784,0.140000,-0.840000,0.140000
16.899884,-0.301584,0.049288,0.925736,-0.840000,0.420000,-1.680000
16.903950,-0.263032,0.073200,1.061400,-1.260000,0.000000,-1.120000
16.908016,-0.311344,0.036112,0.986248,0.560000,0.560000,-0.420000
16.912082,-0.216672,-0.003904,0.925736,-0.560000,-1.680000,-1.120000
16.916148,-0.367952,0.065880,0.921344,-0.980000,-1.400000,-2.100000
16.920213,-0.282064,0.110776,0.997960,1.260000,0.000000,-0.280000
16.924279,-0.152744,0.064416,0.950624,-1.260000,0.140000,-0.700000
16.928345,-0.284504,-0.041968,1.002352,-1.820000,-0.980000,-0.840000
16.932411,-0.378688,0.034648,1.028216,1.120000,1.540000,-1.960000
16.936477,-0.157136,-0.008784,0.992592,1.120000,-1.820000,0.000000
16.940543,-0.296704,0.034648,0.875960,-3.220000,-0.280000,-0.840000
16.944609,-0.426512,0.087840,0.956480,0.420000,1.260000,-2.240000
16.948675,-0.191784,-0.004392,0.948184,0.840000,-1.120000,-0.560000
16.952741,-0.232776,0.083936,0.946720,-3.640000,-1.400000,-0.560000
16.956807,-0.388936,0.122976,0.896944,0.280000,-0.140000,-1.820000
16.960873,-0.240096,0.006832,1.010648,2.520000,-1.540000,-2.100000
16.964939,-0.107360,0.003416,1.014064,-1.540000,0.700000,-0.140000
16.969005,-0.459208,0.096624,0.894016,-1.960000,1.680000,-1.680000
16.973070,-0.356728,0.045872,0.981856,2.240000,-1.960000,-1.960000
16.977136,-0.148840,0.014640,1.016992,-2.380000,-1.260000,-0.560000
16.981202,-0.299632,0.065880,0.918904,-2.660000,-1.120000,-0.840000
16.985268,-0.341112,0.069784,0.977464,2.240000,-0.280000,-1.960000
16.989334,-0.176168,0.005856,0.980880,0.980000,-1.260000,-0.560000
16.993400,-0.293776,0.062952,1.020896,-2.380000,0.840000,-0.280000
16.997466,-0.351360,-0.000488,0.865712,-0.980000,0.140000,-0.980000
17.001532,-0.283040,-0.007808,0.958920,0.980000,-2.800000,-1.540000
17.005598,-0.186416,0.024400,1.030168,-1.820000,-2.380000,-0.700000
17.009664,-0.351848,0.060024,0.959896,-1.820000,0.700000,-1.120000
17.013730,-0.326472,0.039528,0.852048,2.240000,-1.820000,-1.960000
17.017796,-0.173240,0.082960,0.980880,-0.560000,-1.260000,-1.680000
17.021862,-0.283528,0.135664,0.969168,-2.660000,1.540000,0.140000
17.025927,-0.366976,0.052216,0.902312,0.700000,-0.280000,-1.680000
17.029993,-0.224968,0.061488,1.009672,1.960000,-3.220000,-1.680000
17.034059,-0.206424,0.041480,1.049200,-3.220000,-0.140000,-0.700000
17.038125,-0.381616,-0.001464,0.946720,-0.700000,0.280000,-0.980000
17.042191,-0.300120,-0.042944,0.881328,1.680000,-2.380000,-2.240000
17.046257,-0.188368,0.085400,1.057984,-2.520000,-0.560000,-0.980000
17.050323,-0.324520,0.094672,0.942816,-0.700000,-1.260000,-0.140000
17.054389,-0.332816,-0.012200,0.882792,1.400000,-2.380000,-1.680000
17.058455,-0.189832,0.040992,1.028216,-2.100000,-0.280000,-1.120000
17.062521,-0.285480,0.040016,1.037488,-1.260000,-1.260000,0.000000
17.066587,-0.386496,-0.057096,0.868152,0.840000,-0.700000,-0.980000
17.070653,-0.256200,0.039528,0.935496,-0.140000,-1.680000,-2.380000
17.074719,-0.210816,0.125416,1.016016,-1.540000,-2.520000,0.000000
17.078785,-0.350872,0.123464,0.910608,-0.420000,0.700000,-1.120000
17.082850,-0.200080,0.046360,0.848632,0.000000,-2.380000,-1.120000
17.086916,-0.286944,0.087840,1.075552,-1.540000,-0.280000,-1.400000
17.090982,-0.244000,0.060512,1.003816,0.700000,-1.260000,-0.700000
17.095048,-0.284016,-0.017568,0.884744,-0.140000,-1.120000,-2.100000
17.099114,-0.295240,0.081496,1.031144,-2.100000,-1.120000,-2.240000
17.103180,-0.243024,0.013664,1.049200,-0.560000,-1.960000,-0.560000
17.107246,-0.287432,-0.112728,0.914512,-1.260000,-0.420000,-0.840000
17.111312,-0.375272,0.089792,0.953552,-0.700000,0.420000,-2.940000
17.115378,-0.224480,0.120536,1.017968,2.520000,-3.920000,-1.120000
17.119444,-0.251320,-0.019032,0.915976,-0.700000,0.840000,0.280000
17.123510,-0.391376,0.060024,0.853512,-1.400000,1.540000,-2.240000
17.127576,-0.270352,0.057096,1.040904,0.280000,-3.080000,-0.560000
17.131642,-0.241072,0.018544,0.949648,-0.980000,0.560000,0.420000
17.135707,-0.276696,0.005856,0.958432,-0.560000,-1.820000,-0.700000
17.139773,-0.326472,0.081496,0.973072,-0.420000,-0.980000,-1.260000
17.143839,-0.257664,0.117120,0.928664,0.280000,-1.540000,0.140000
17.147905,-0.216184,0.069296,0.939888,-1.120000,-0.840000,-1.120000
17.151971,-0.254736,0.076616,0.955504,-2.660000,-0.560000,-0.840000
17.156037,-0.313296,0.093208,0.983320,1.260000,-0.560000,-1.820000
17.160103,-0.168360,-0.001952,1.075064,1.400000,-3.080000,-0.980000
17.164169,-0.296704,-0.071248,0.931104,-2.800000,0.140000,-1.680000
17.168235,-0.444080,0.036600,0.955992,0.000000,-0.560000,-2.520000
17.172301,-0.166896,0.030744,1.009672,1.540000,-2.660000,-1.960000
17.176367,-0.212768,0.014152,0.928176,-4.200000,-1.120000,-0.700000
17.180433,-0.421144,0.109800,0.871568,-0.700000,0.980000,-2.940000
17.184499,-0.230336,0.105408,1.023824,3.220000,-2.100000,-1.960000
17.188565,-0.123952,-0.001952,0.974048,-2.380000,-1.400000,-0.280000
17.192630,-0.439688,0.064904,0.929152,-1.820000,1.120000,-2.240000
17.196696,-0.325496,0.039528,1.005280,3.080000,-0.560000,-2.100000
17.200762,-0.160552,-0.002440,0.973560,-1.120000,-2.100000,-0.700000
17.204828,-0.333792,0.059048,0.927688,-3.500000,-0.140000,-0.840000
17.208894,-0.372832,0.090768,0.976488,1.820000,0.420000,-2.660000
17.212960,-0.129808,0.036600,0.993080,0.280000,-3.220000,-0.140000
17.217026,-0.272792,0.029280,0.980392,-3.500000,0.840000,-0.700000
17.221092,-0.391376,0.034160,0.941840,0.420000,1.260000,-1.540000
17.225158,-0.255712,-0.032696,0.943304,2.660000,-1.680000,-1.540000
17.229224,-0.213256,0.027328,1.016992,-2.100000,-1.120000,0.000000
17.233290,-0.315736,0.048312,0.950136,-2.380000,0.420000,-0.560000
17.237356,-0.346968,0.042944,0.914512,1.540000,-2.240000,-0.840000
17.241422,-0.138592,0.016592,1.021872,-1.400000,0.280000,-1.260000
17.245487,-0.292800,0.082472,0.996984,-2.800000,0.280000,-0.280000
17.249553,-0.403088,0.077592,0.855952,3.360000,0.560000,-2.660000
17.253619,-0.170800,0.109312,0.986248,1.820000,-1.540000,-1.960000
17.257685,-0.225456,0.055632,0.938424,-3.500000,0.280000,-0.140000
17.261751,-0.424560,0.087840,0.946720,-1.120000,2.240000,-1.820000
17.265817,-0.217648,0.016592,0.939400,1.120000,-1.540000,-1.960000
17.269883,-0.194712,0.018544,1.081408,-1.260000,-2.240000,-1.120000
17.273949,-0.345016,0.009272,0.940376,-0.140000,0.420000,-1.540000
17.278015,-0.329400,0.059048,0.865712,2.240000,-0.980000,-2.520000
17.282081,-0.194224,0.082960,1.037000,-1.820000,-2.100000,-1.680000
17.286147,-0.284504,0.049776,0.992592,-3.500000,1.260000,0.000000
17.290213,-0.355752,-0.046360,0.905240,1.260000,-0.420000,-1.400000
17.294279,-0.189344,0.011224,1.071648,0.700000,-1.540000,-2.240000
17.298344,-0.244488,0.068320,1.012600,-0.840000,-0.840000,0.000000
17.302410,-0.425536,0.006832,0.815936,0.000000,2.380000,-1.120000
17.306476,-0.308416,0.029280,0.900360,0.000000,-1.120000,-1.540000
17.310542,-0.157624,0.086376,1.060424,-2.660000,-2.100000,0.000000
17.314608,-0.379176,0.102480,1.001864,-0.140000,2.380000,-1.120000
17.318674,-0.186416,-0.014152,0.846680,0.980000,-1.680000,-0.980000
17.322740,-0.279136,0.078568,0.954528,-1.400000,-2.660000,-0.980000
17.326806,-0.305976,0.144448,1.064816,0.700000,1.540000,-1.120000
17.330872,-0.244000,-0.001464,0.861808,0.000000,0.980000,-1.120000
17.334938,-0.305976,-0.014152,0.909632,-2.380000,-3.080000,-0.560000
17.339004,-0.289384,0.099064,1.105808,-0.560000,-2.100000,-0.700000
17.343070,-0.249856,-0.078080,0.934032,-0.980000,0.700000,-0.420000
17.347136,-0.337208,0.038552,0.939888,-1.680000,-0.840000,-0.840000
17.351202,-0.219112,0.103944,1.055056,1.820000,-2.380000,-0.280000
17.355267,-0.207888,0.005856,0.963800,0.000000,0.420000,0.420000
17.359333,-0.420656,0.032696,0.888160,-1.960000,1.260000,-0.980000
17.363399,-0.227408,0.083936,0.957944,0.140000,-3.080000,-0.980000
17.367465,-0.219600,0.003416,0.990152,-0.280000,-0.560000,-0.140000
17.371531,-0.325984,-0.009272,0.972096,-2.380000,1.960000,-0.980000
17.375597,-0.369416,0.055144,0.931592,0.420000,-2.520000,-0.980000
17.379663,-0.202520,0.084912,0.927200,1.680000,-1.680000,-0.700000
17.383729,-0.240584,0.082960,0.990152,-1.680000,0.420000,0.000000
17.387795,-0.363560,0.049288,0.872544,-2.240000,0.980000,-0.560000
17.391861,-0.315248,0.095160,0.987224,1.540000,-2.660000,-0.980000
17.395927,-0.111264,-0.007320,1.057008,-0.980000,-2.800000,-0.140000
17.399993,-0.356728,-0.005368,0.955504,-3.780000,1.400000,0.000000
17.404059,-0.367952,0.078568,0.910608,2.100000,-1.400000,-0.280000
17.408124,-0.135176,0.057096,1.019920,1.120000,-2.100000,-0.700000
17.412190,-0.225456,0.070760,0.894992,-4.760000,1.960000,0.980000
17.416256,-0.468480,0.147376,1.008696,0.280000,1.120000,-1.680000
17.420322,-0.131760,-0.020496,0.935496,2.380000,-4.900000,-0.560000
17.424388,-0.209352,0.017568,1.095560,-3.780000,0.980000,-1.400000
17.428454,-0.373808,0.046360,0.959896,0.140000,0.980000,-0.980000
17.432520,-0.305000,-0.072224,0.898408,1.960000,-1.400000,-1.680000
17.436586,-0.183488,0.086376,1.003816,-2.660000,-1.820000,-0.840000
17.440652,-0.345504,0.083936,1.018456,-2.940000,3.500000,0.280000
17.444718,-0.379176,-0.053680,0.826184,1.260000,-1.400000,-0.420000
17.448784,-0.166896,0.042456,0.998936,-0.280000,-3.780000,-1.820000
17.452850,-0.225944,0.101992,1.097024,-0.980000,0.420000,0.000000
17.456916,-0.355752,-0.026840,0.869128,0.140000,1.680000,-0.980000
17.460982,-0.286456,0.044896,0.878888,-0.700000,-1.680000,-0.980000
17.465047,-0.196176,0.071736,1.058960,-2.100000,-0.840000,-0.280000
17.469113,-0.337696,0.063440,0.963312,-1.260000,2.800000,0.280000
17.473179,-0.322080,0.022936,0.907680,0.980000,-0.280000,-1.120000
17.477245,-0.242536,0.108824,0.972096,-0.140000,-2.660000,-1.120000
17.481311,-0.263032,0.025376,0.990152,0.140000,0.980000,-0.840000
17.485377,-0.293776,0.018056,0.837408,-2.100000,2.240000,0.140000
17.489443,-0.342088,0.097600,0.959408,-1.260000,-2.100000,-0.420000
17.493509,-0.207400,0.042944,1.104832,0.700000,-1.260000,-0.700000
17.497575,-0.272792,-0.029768,0.901336,-1.400000,0.560000,-0.280000
17.501641,-0.334768,0.065392,0.909632,-0.980000,0.280000,-0.840000
17.505707,-0.219600,0.149328,1.022360,2.660000,-2.100000,-0.280000
17.509773,-0.231800,0.036600,0.955016,-2.100000,2.520000,0.000000
17.513839,-0.383568,0.030256,0.869616,-2.520000,1.260000,-0.280000
17.517904,-0.248880,0.069784,1.015040,1.540000,-4.620000,-1.540000
17.521970,-0.195688,0.002440,1.020896,-0.700000,-1.260000,-0.420000
17.526036,-0.319152,-0.039528,0.944280,-2.800000,0.840000,0.000000
17.530102,-0.407480,0.048800,0.939400,1.540000,-0.840000,-0.980000
17.534168,-0.131272,0.063928,1.058472,2.240000,-3.220000,0.280000
17.538234,-0.216672,0.103456,0.979416,-4.200000,2.240000,0.560000
17.542300,-0.386008,0.089792,0.884256,-0.140000,0.280000,-1.120000
17.546366,-0.207888,-0.023912,0.977952,2.800000,-3.080000,-1.260000
17.550432,-0.236192,0.008296,1.027728,-3.500000,1.680000,-0.840000
17.554498,-0.356728,0.066368,0.941352,-1.820000,0.560000,-0.980000
17.558564,-0.327936,-0.042944,0.879376,2.100000,-3.780000,-0.840000
17.562630,-0.213744,0.052216,0.983808,-1.960000,-1.540000,-1.400000
17.566696,-0.259128,0.133224,1.027240,-2.940000,0.560000,0.560000
17.570762,-0.366976,-0.025376,0.859856,1.540000,0.000000,-1.120000
17.574827,-0.244000,0.040504,0.940376,1.120000,-2.940000,-1.960000
17.578893,-0.208864,0.111752,1.138016,-2.380000,0.980000,-0.280000
17.582959,-0.345016,0.008296,0.884744,-1.400000,1.260000,0.560000
17.587025,-0.300608,0.010736,0.838384,0.280000,-1.960000,-1.120000
17.591091,-0.223992,0.107360,1.072624,-0.840000,-1.540000,-0.980000
17.595157,-0.257664,0.095648,1.029680,-1.400000,0.980000,0.280000
17.599223,-0.283040,0.044896,0.814960,0.560000,0.420000,-1.120000
17.603289,-0.290848,0.101016,1.033096,1.120000,-1.120000,-1.820000
17.607355,-0.220576,0.000488,1.078480,-0.280000,-0.140000,-0.560000
17.611421,-0.327936,-0.014152,0.839360,-2.100000,1.820000,-0.420000
17.615487,-0.275720,0.075152,0.972584,-1.400000,-1.260000,-2.380000
17.619553,-0.231800,0.013176,1.062376,0.280000,-1.960000,-0.140000
17.623619,-0.300608,-0.009272,0.907680,-1.120000,1.680000,-0.280000
17.627684,-0.304024,0.071248,0.910120,-0.980000,-1.680000,-1.260000
17.631750,-0.305000,0.070760,0.999912,1.400000,-1.680000,-0.980000
17.635816,-0.250344,0.011224,0.944768,-1.260000,1.400000,-0.140000
17.639882,-0.278648,0.010736,0.918904,-1.820000,-2.520000,-0.280000
17.643948,-0.352336,0.058560,1.038464,1.260000,-2.240000,-1.960000
17.648014,-0.150304,0.000976,1.017480,0.560000,-2.100000,-0.840000
17.652080,-0.257664,0.059048,0.935008,-2.660000,0.140000,0.140000
17.656146,-0.385032,0.069296,0.877912,-0.700000,0.560000,-1.680000
17.660212,-0.262056,0.084912,1.022360,0.980000,0.560000,-1.680000
17.664278,-0.199592,0.027816,0.935008,-2.240000,-0.700000,0.420000
17.668344,-0.401136,0.069296,0.931104,-1.680000,0.840000,-1.260000
17.672410,-0.231800,0.072712,1.006256,1.960000,-2.800000,-2.100000
17.676476,-0.192272,-0.050264,0.986248,-1.120000,0.140000,0.000000
17.680542,-0.339160,0.061000,0.897432,-3.500000,2.660000,0.140000
17.684607,-0.349408,0.109312,1.046760,2.380000,0.280000,-1.960000
17.688673,-0.218624,0.024400,0.892064,1.260000,-1.820000,-0.140000
17.692739,-0.181048,0.098088,1.012112,-3.920000,0.420000,-0.560000
17.696805,-0.352824,0.071736,0.935984,0.280000,-0.140000,-0.980000
17.700871,-0.262056,0.021960,1.018456,3.080000,-0.280000,-2.380000
17.704937,-0.185440,0.015616,1.031144,-3.080000,2.380000,-0.560000
17.709003,-0.333792,0.034160,0.879376,-1.260000,-0.280000,-0.980000
17.713069,-0.392840,0.006344,0.971120,3.080000,-1.120000,-2.520000
17.717135,-0.119072,0.034648,1.008696,-2.660000,-1.260000,-0.840000
17.721201,-0.330376,0.092232,0.979416,-2.240000,0.840000,-1.260000
17.725267,-0.335256,0.039528,0.862296,3.500000,0.560000,-2.380000
17.729333,-0.224480,0.004392,0.979904,-0.420000,0.000000,-2.100000
17.733399,-0.240584,0.067832,1.008696,-1.960000,-0.840000,0.420000
17.737464,-0.365512,0.001464,0.927200,0.700000,2.100000,-1.260000
17.741530,-0.235704,-0.012688,0.968192,0.980000,-0.700000,-1.680000
17.745596,-0.266936,0.069296,1.000400,-0.700000,-1.400000,-0.280000
17.749662,-0.330864,0.085400,0.962336,0.560000,1.400000,-1.260000
17.753728,-0.271328,-0.009272,0.847168,0.140000,-0.280000,-1.540000
17.757794,-0.277672,0.124440,1.027728,-1.680000,-0.140000,-1.400000
17.761860,-0.213256,0.114680,0.978440,0.420000,0.140000,0.000000
17.765926,-0.304024,-0.017080,0.832040,-0.840000,0.280000,-1.540000
17.769992,-0.307928,0.140544,1.116544,-0.560000,-0.560000,-2.520000
17.774058,-0.180072,0.012688,0.985760,1.540000,-1.120000,-0.140000
17.778124,-0.348432,-0.073688,0.909632,-0.980000,2.520000,-1.960000
17.782190,-0.255224,0.085400,0.950136,-0.560000,-0.980000,-2.100000
17.786256,-0.304512,0.095160,1.074088,0.840000,0.560000,-0.980000
17.790321,-0.256688,-0.010248,0.818864,-1.260000,1.540000,-0.840000
17.794387,-0.278160,0.076616,1.020408,-1.820000,-0.840000,-2.380000
17.798453,-0.326960,0.065392,0.952576,1.260000,-1.260000,-1.120000
17.802519,-0.201544,0.069784,1.024312,0.420000,2.100000,-1.820000
17.806585,-0.251320,-0.043920,0.902800,-0.980000,-0.980000,-0.560000
17.810651,-0.442128,0.081008,0.972584,1.260000,0.980000,-2.940000
17.814717,-0.121512,0.026840,1.061888,1.400000,-1.540000,-0.840000
17.818783,-0.234240,-0.053192,0.915488,-4.480000,0.280000,-0.420000
17.822849,-0.439688,0.072224,0.932568,0.420000,0.140000,-2.800000
17.826915,-0.155672,0.076128,1.048712,3.220000,-1.120000,-2.100000
17.830981,-0.256688,-0.005368,0.872056,-3.780000,0.280000,0.140000
17.835047,-0.453352,0.180072,0.918904,-0.280000,3.500000,-2.940000
17.839113,-0.195688,0.054168,0.955992,2.800000,-1.540000,-1.260000
17.843179,-0.235216,-0.009272,0.989176,-3.360000,1.120000,-1.820000
17.847244,-0.312808,0.118584,0.947208,0.000000,-0.700000,-1.260000
17.851310,-0.275720,-0.027328,0.955992,3.360000,-1.540000,-3.500000
17.855376,-0.203496,-0.029768,1.008208,-1.680000,1.120000,-0.700000
17.859442,-0.357216,0.136640,0.966728,-2.660000,2.660000,-1.400000
17.863508,-0.385520,0.001952,0.914512,1.820000,-3.080000,-1.960000
17.867574,-0.171776,0.070272,0.999912,-0.140000,0.140000,-2.240000
17.871640,-0.193736,0.061488,0.971120,-2.660000,-0.840000,-0.140000
17.875706,-0.470432,0.026840,0.875960,2.100000,1.680000,-2.380000
17.879772,-0.148840,0.051240,0.972584,2.940000,-2.940000,-2.240000
17.883838,-0.192272,0.063928,1.101904,-4.200000,1.260000,0.140000
17.887904,-0.402600,0.057096,0.915488,-1.540000,1.680000,-1.120000
17.891970,-0.263520,-0.063928,0.968680,2.520000,-3.780000,-2.940000
17.896036,-0.209352,0.000000,0.983808,-1.680000,0.700000,-1.680000
17.900101,-0.313296,0.136152,1.004792,-0.980000,1.960000,-1.820000
17.904167,-0.325496,-0.006832,0.756400,2.520000,-2.240000,-1.120000
17.908233,-0.297680,0.113704,0.979904,-0.560000,1.540000,-3.920000
17.912299,-0.171776,0.129808,1.129720,-1.400000,0.280000,-0.280000
17.916365,-0.428952,-0.023424,0.817400,0.280000,0.980000,-1.120000
17.920431,-0.243512,-0.023424,0.910608,0.840000,-4.060000,-3.360000
17.924497,-0.180072,0.111264,1.171688,-1.960000,-0.420000,-0.980000
17.928563,-0.325984,-0.000488,0.903776,-0.140000,3.080000,-0.420000
17.932629,-0.372344,0.037576,0.868152,1.120000,1.120000,-2.660000
17.936695,-0.169336,0.112728,1.021384,-1.120000,-4.200000,-1.540000
17.940761,-0.304512,0.039040,1.046272,-0.840000,1.400000,-0.280000
17.944827,-0.267912,-0.014152,0.854000,1.120000,0.980000,-2.240000
17.948893,-0.232776,0.082960,0.984784,0.420000,-1.820000,-1.820000
17.952959,-0.295240,0.041968,1.045784,-0.140000,0.420000,-0.840000
17.957024,-0.343064,-0.018544,0.950624,-0.560000,3.220000,-1.400000
17.961090,-0.241560,-0.011712,0.910608,-1.960000,-3.920000,-1.540000
17.965156,-0.362584,0.078080,1.036512,0.280000,-1.120000,-1.960000
17.969222,-0.141520,0.030256,0.893040,0.560000,1.400000,-1.400000
17.973288,-0.368440,0.065880,0.944768,-0.560000,0.000000,-1.400000
17.977354,-0.312320,0.154696,0.937936,1.680000,0.420000,-2.240000
17.981420,-0.168360,0.023912,0.978928,-0.560000,-0.140000,-1.400000
17.985486,-0.329400,-0.010736,0.910608,-3.360000,0.840000,-0.840000
17.989552,-0.406504,0.026352,0.993080,0.840000,-2.520000,-2.240000
17.993618,-0.153232,0.036600,1.056520,1.400000,-2.240000,-1.820000
