Time [s],lsm6dsv16x_acc_x [g],lsm6dsv16x_acc_y [g],lsm6dsv16x_acc_z [g],lsm6dsv16x_gyro_x [dps],lsm6dsv16x_gyro_y [dps],lsm6dsv16x_gyro_z [dps]
5.513277,-0.111264,0.000976,0.983320,0.420000,0.280000,-0.700000
5.521364,-0.046360,-0.008784,1.025288,0.140000,1.960000,-1.400000
5.529452,0.028304,0.031720,0.995520,1.680000,0.700000,-0.840000
5.537539,-0.009272,0.013176,1.035536,1.400000,-1.820000,-0.140000
5.545626,-0.115656,-0.021472,0.979904,0.420000,1.540000,-0.840000
5.553713,-0.020984,0.013664,1.018456,0.420000,1.680000,-1.400000
5.561800,0.047824,0.027328,1.026264,1.400000,-0.700000,-0.700000
5.569887,-0.078080,0.007320,1.003328,1.680000,0.000000,-0.420000
5.577974,-0.080032,-0.024400,0.996496,0.280000,1.820000,-0.980000
5.586062,-0.005856,0.017568,1.015040,0.560000,1.120000,-0.980000
5.594149,0.007320,0.038064,1.017480,1.680000,-0.420000,-0.840000
5.602236,-0.056120,-0.012200,1.006256,1.260000,-0.280000,-0.420000
5.610323,-0.082960,-0.012200,1.003816,0.420000,2.100000,-0.840000
5.618410,-0.004880,0.013664,1.010648,0.140000,0.840000,-1.260000
5.626497,0.018056,0.025864,1.022848,1.680000,-0.560000,-0.560000
5.634584,-0.077592,-0.002440,0.990640,1.540000,0.560000,-0.560000
5.642671,-0.067344,-0.005856,1.007232,-0.140000,1.540000,-0.840000
5.650759,0.000000,0.012200,1.023824,0.280000,0.560000,-1.120000
5.658846,0.007808,0.032696,1.019920,1.820000,-0.280000,-0.840000
5.666933,-0.052216,-0.005368,0.992592,1.260000,-0.280000,-0.560000
5.675020,-0.091256,-0.012688,1.007232,0.000000,2.100000,-0.840000
5.683107,-0.005368,0.007808,1.014552,0.420000,0.980000,-1.120000
5.691194,0.021960,0.038064,1.010648,1.680000,-0.420000,-0.840000
5.699281,-0.069784,0.001952,0.998936,1.540000,-0.420000,-0.560000
5.707369,-0.076128,-0.023424,1.015040,0.280000,1.960000,-0.700000
5.715456,-0.003416,0.015616,1.018944,0.280000,0.980000,-0.980000
5.723543,0.001464,0.032696,0.994544,1.260000,0.280000,-1.120000
5.731630,-0.032208,0.005856,1.027728,1.820000,-0.700000,-0.560000
5.739717,-0.090768,-0.025864,0.986248,0.280000,1.960000,-0.280000
5.747804,-0.031232,0.016592,1.009672,0.140000,1.260000,-1.260000
5.755891,0.034648,0.037576,1.022848,1.120000,-0.140000,-1.120000
5.763979,-0.055632,-0.013664,0.998448,1.680000,-0.840000,-0.280000
5.772066,-0.078568,0.006344,1.009672,0.560000,1.820000,-0.840000
5.780153,-0.010248,-0.005368,1.025288,0.000000,0.980000,-0.840000
5.788240,-0.000976,0.029280,1.008208,1.400000,0.560000,-1.120000
5.796327,-0.028304,0.014640,0.998936,1.960000,-0.980000,-0.700000
5.804414,-0.100040,-0.010248,1.004792,0.420000,1.400000,-0.560000
5.812501,-0.025864,-0.002928,1.010648,0.140000,1.260000,-0.980000
5.820588,0.036112,0.038064,1.030168,1.120000,-0.280000,-0.840000
5.828676,-0.055632,0.000488,0.998448,1.540000,0.140000,-0.700000
5.836763,-0.079544,-0.009760,0.995520,0.840000,1.400000,-0.700000
5.844850,-0.019520,0.001464,1.007232,0.280000,0.980000,-0.700000
5.852937,0.005368,0.029768,1.029192,1.120000,0.280000,-1.120000
5.861024,-0.029280,0.000000,1.003816,1.820000,-0.140000,-0.700000
5.869111,-0.089792,-0.005856,0.989176,0.700000,0.980000,-0.560000
5.877198,-0.022448,0.006832,1.016016,0.280000,1.120000,-0.980000
5.885286,0.018056,0.010736,1.043344,1.260000,0.840000,-0.980000
5.893373,-0.029768,0.021960,0.999424,2.240000,0.140000,-0.700000
5.901460,-0.074664,-0.000488,0.980880,1.120000,0.280000,-0.700000
5.909547,-0.052704,0.004880,1.016016,0.000000,1.120000,-0.980000
5.917634,-0.037576,0.006832,1.009672,0.140000,1.260000,-0.420000
5.925721,-0.011712,0.010736,1.023824,1.120000,0.560000,-1.120000
5.933808,-0.000488,0.016592,1.008696,1.540000,0.000000,-0.980000
5.941896,-0.032696,0.014152,0.991128,1.680000,-0.560000,-0.280000
5.949983,-0.051240,-0.005368,1.015040,1.260000,0.840000,-0.980000
5.958070,-0.059536,-0.002440,1.008696,-0.280000,0.700000,-0.840000
5.966157,-0.047336,0.002440,1.009672,0.280000,2.100000,-0.700000
5.974244,-0.018056,0.007808,1.017968,0.840000,0.700000,-1.120000
5.982331,-0.003904,0.025376,0.999912,1.260000,0.280000,-0.700000
5.990418,-0.020008,0.019520,1.017968,1.680000,-0.700000,-0.840000
5.998505,-0.030256,0.005368,0.999912,1.260000,0.420000,-0.560000
6.006593,-0.069784,-0.019032,1.016016,0.420000,0.140000,-0.700000
6.014680,-0.056120,0.008784,1.013088,-0.140000,2.240000,-0.980000
6.022767,-0.020984,0.000976,1.000888,0.560000,0.980000,-0.980000
6.030854,-0.000488,0.033672,1.011136,1.540000,-0.140000,-0.840000
6.038941,-0.025376,0.011712,1.015528,1.400000,0.280000,-0.840000
6.047028,-0.012688,0.003904,1.002352,1.960000,-0.420000,-0.560000
6.055115,-0.080520,-0.003904,1.020896,0.700000,0.420000,-0.560000
6.063203,-0.053680,-0.005856,0.995032,-0.420000,1.680000,-0.980000
6.071290,-0.044408,-0.005368,1.006744,0.000000,1.820000,-0.840000
6.079377,-0.022936,0.030744,1.016992,0.980000,0.560000,-1.120000
6.087464,0.012688,0.023424,1.011136,1.820000,0.140000,-0.980000
6.095551,-0.027328,0.011712,1.004304,1.960000,-1.120000,-0.420000
6.103638,-0.033672,0.001464,1.008208,1.820000,0.700000,-0.840000
6.111725,-0.055632,-0.007808,1.014064,0.700000,0.420000,-0.700000
6.119813,-0.073688,-0.004392,1.002352,-0.140000,1.820000,-0.700000
6.127900,-0.020984,0.006344,1.018944,-0.560000,1.960000,-1.260000
6.135987,-0.018544,0.015616,1.016016,0.560000,0.140000,-0.560000
6.144074,-0.016104,0.028792,0.993568,1.820000,0.280000,-0.840000
6.152161,0.001464,0.017080,1.018456,2.240000,-0.560000,-1.120000
6.160248,-0.051240,0.013176,0.999912,1.680000,0.000000,-0.280000
6.168335,-0.058072,-0.022448,1.001376,1.120000,0.700000,-0.840000
6.176422,-0.057584,-0.006344,1.028216,0.280000,0.840000,-0.840000
6.184510,-0.043920,0.017568,0.998448,-0.420000,1.960000,-0.700000
6.192597,-0.020984,-0.007320,1.018456,-0.420000,1.120000,-0.840000
6.200684,-0.014640,0.010736,1.023336,0.980000,0.700000,-1.120000
6.208771,-0.002928,0.036600,0.999424,2.100000,0.280000,-0.700000
6.216858,-0.041968,0.024888,0.983320,1.820000,-0.560000,-0.560000
6.224945,-0.028304,-0.008296,1.014552,1.400000,0.000000,-0.980000
6.233032,-0.035136,-0.013664,1.016504,1.540000,0.700000,-0.840000
6.241120,-0.079056,0.018544,1.000400,0.700000,0.840000,-0.700000
6.249207,-0.046848,-0.007320,0.999424,-0.560000,1.120000,-0.840000
6.257294,-0.011224,-0.007320,1.043832,-0.140000,1.120000,-0.840000
6.265381,-0.022936,0.021960,1.008208,0.700000,0.840000,-0.840000
6.273468,-0.014152,0.021472,1.020896,1.540000,0.700000,-0.980000
6.281555,-0.027328,0.013176,0.986736,1.820000,-0.700000,-0.420000
6.289642,-0.038064,0.028792,0.996984,1.260000,-0.140000,-1.120000
6.297730,-0.026352,-0.007808,1.021872,0.980000,0.700000,-1.120000
6.305817,-0.056120,-0.022448,1.001376,1.260000,0.420000,-0.700000
6.313904,-0.047336,0.021472,1.010160,0.420000,0.280000,-0.840000
6.321991,-0.036600,-0.008296,1.017968,-0.140000,1.260000,-0.700000
6.330078,-0.047824,0.014640,1.016992,0.700000,1.820000,-0.980000
6.338165,-0.012688,0.011712,0.992592,0.700000,0.420000,-0.980000
6.346252,-0.026352,0.019520,1.019920,1.260000,0.420000,-0.560000
6.354340,-0.022936,0.012688,1.015528,1.540000,0.280000,-0.700000
6.362427,-0.016592,0.015128,1.004792,1.540000,-0.140000,-0.840000
6.370514,-0.027816,0.004880,1.014552,1.260000,-0.280000,-0.560000
6.378601,-0.032696,-0.009760,1.013576,0.980000,1.120000,-0.980000
6.386688,-0.043920,0.021960,1.021384,1.120000,0.560000,-0.840000
6.394775,-0.038064,-0.017568,0.977952,0.280000,1.260000,-0.700000
6.402862,-0.045872,-0.000976,1.015040,0.700000,0.840000,-1.120000
6.410950,-0.046848,0.014640,1.003816,0.140000,0.560000,-0.700000
6.419037,-0.048800,0.013176,1.015040,0.700000,1.260000,-0.700000
6.427124,-0.023424,0.013176,1.000888,0.840000,0.980000,-0.980000
6.435211,-0.033184,0.010736,1.016016,0.840000,0.700000,-0.840000
6.443298,-0.042944,0.006344,0.992592,1.260000,0.140000,-0.700000
6.451385,-0.009760,0.013664,1.022848,1.120000,0.560000,-0.980000
6.459472,-0.014152,0.005856,1.028704,1.820000,0.140000,-0.700000
6.467559,-0.062952,0.010736,0.994056,1.260000,0.980000,-0.700000
6.475647,-0.006832,0.018544,1.000888,0.840000,0.560000,-1.120000
6.483734,-0.018544,-0.007808,1.024800,0.840000,-0.700000,-0.560000
6.491821,-0.059536,0.002440,1.015040,1.260000,1.400000,-0.840000
6.499908,-0.016592,0.020984,1.008696,1.260000,0.700000,-0.980000
6.507995,-0.041968,0.008296,0.992592,0.700000,0.420000,-0.560000
6.516082,-0.039040,-0.002928,1.029192,0.700000,0.980000,-0.980000
6.524169,-0.017080,0.002440,1.012112,1.400000,0.700000,-0.840000
6.532257,-0.038552,0.009272,0.989664,0.560000,0.280000,-0.980000
6.540344,-0.038552,0.003904,1.019432,0.140000,0.280000,-0.700000
6.548431,-0.035624,-0.012688,1.005280,0.840000,1.260000,-0.700000
6.556518,-0.026840,0.022448,1.012112,1.260000,0.560000,-0.840000
6.564605,-0.039528,-0.001464,1.008696,0.560000,0.420000,-0.840000
6.572692,-0.044896,0.003904,1.015528,1.120000,1.260000,-0.840000
6.580779,-0.010736,0.014152,1.002352,0.980000,0.140000,-0.840000
6.588867,-0.045384,0.007320,1.010648,0.700000,0.560000,-0.840000
6.596954,-0.046360,0.003416,1.016504,0.980000,1.120000,-0.840000
6.605041,-0.020008,0.021472,1.009184,0.980000,0.420000,-0.700000
6.613128,-0.052216,-0.006344,0.991616,0.980000,0.840000,-0.700000
6.621215,-0.027816,0.020496,1.005280,0.840000,0.560000,-1.120000
6.629302,-0.011712,-0.002928,1.025776,0.700000,-0.140000,-0.560000
6.637389,-0.049776,0.002928,0.999424,1.260000,0.980000,-0.840000
6.645477,-0.033672,0.023912,1.017480,1.260000,0.840000,-0.980000
6.653564,-0.020008,0.001464,0.998936,0.980000,0.140000,-0.700000
6.661651,-0.049288,0.012200,1.016992,0.980000,0.560000,-0.980000
6.669738,0.000488,-0.005368,1.025776,1.120000,0.700000,-0.840000
6.677825,-0.051728,0.011712,0.996496,1.820000,1.540000,-0.700000
6.685912,-0.051240,0.025376,0.973072,0.700000,0.280000,-0.980000
6.693999,-0.003904,0.001464,1.032608,0.560000,-0.140000,-0.840000
6.702087,-0.061488,0.004880,1.014064,1.540000,0.980000,-0.700000
6.710174,-0.031720,0.020496,1.003816,0.980000,0.560000,-0.700000
6.718261,-0.022936,0.017080,1.000400,0.700000,0.560000,-0.840000
6.726348,-0.048800,0.005368,1.036512,0.980000,0.560000,-0.840000
6.734435,-0.036600,0.004880,0.980880,0.420000,1.120000,-0.980000
6.742522,-0.031232,0.003416,0.999912,0.700000,0.840000,-0.840000
6.750609,-0.049288,0.017568,1.036512,0.840000,0.840000,-0.980000
6.758697,-0.039040,0.003416,0.997960,0.840000,0.840000,-0.560000
6.766784,-0.023912,0.018056,0.997472,0.700000,-0.280000,-0.840000
6.774871,-0.027328,-0.007808,0.997472,0.560000,0.140000,-0.700000
6.782958,-0.045872,0.007808,1.040416,1.120000,0.700000,-0.560000
6.791045,0.003904,0.002440,1.016016,1.680000,0.140000,-0.840000
6.799132,-0.035624,0.013176,1.020896,0.980000,0.140000,-0.980000
6.807219,-0.013664,-0.021960,0.989664,1.120000,0.000000,-0.980000
6.815307,-0.020496,0.015128,1.041880,1.540000,0.840000,-0.700000
6.823394,-0.026840,0.014152,1.026264,1.680000,0.700000,-0.980000
6.831481,-0.030744,0.012200,1.001864,1.260000,1.400000,-0.840000
6.839568,-0.053192,0.016592,0.981368,1.120000,0.840000,-0.980000
6.847655,-0.048800,0.025376,1.019432,0.420000,1.540000,-0.840000
6.855742,-0.063928,-0.004880,0.981856,1.260000,1.540000,-0.840000
6.863829,-0.067832,0.019032,0.959408,0.560000,0.560000,-0.420000
6.871916,-0.042456,0.028304,1.017968,-0.420000,-0.420000,-0.980000
6.880004,-0.014152,-0.021960,1.055544,0.280000,-0.140000,-0.700000
6.888091,0.003416,-0.009272,1.001376,1.540000,0.420000,-0.700000
6.896178,0.006832,0.022936,1.038464,1.120000,-0.420000,-0.700000
6.904265,-0.015128,-0.007808,1.000400,1.260000,0.280000,-1.120000
6.912352,-0.061000,-0.001952,1.031144,1.680000,2.100000,-0.840000
6.920439,-0.037088,0.025376,1.026752,0.560000,1.400000,-0.840000
6.928526,-0.049776,0.007320,0.950136,1.120000,1.540000,-1.400000
6.936614,-0.076616,0.013176,0.995032,0.840000,0.560000,-0.420000
6.944701,-0.041480,0.014640,1.018944,1.400000,-0.420000,-0.420000
6.952788,-0.018544,0.007808,0.973560,0.280000,0.700000,-1.120000
6.960875,-0.035136,0.028792,1.017480,0.700000,-0.700000,-0.700000
6.968962,0.006832,-0.017080,1.052128,-0.140000,-1.680000,-0.280000
6.977049,-0.001464,-0.016104,1.054080,1.540000,2.240000,-1.400000
6.985136,-0.024888,0.009272,1.018944,0.980000,0.980000,-0.420000
6.993224,-0.063928,0.018056,0.956480,1.820000,2.100000,-1.120000
7.001311,-0.084912,0.039528,1.015528,0.700000,1.540000,-1.260000
7.009398,-0.028792,-0.024888,0.951112,1.120000,-0.420000,-0.420000
7.017485,-0.058072,0.050752,1.033096,0.980000,0.560000,-0.840000
7.025572,0.024888,-0.009272,1.002840,-0.280000,-1.540000,-0.560000
7.033659,-0.006344,-0.017080,1.068720,0.840000,0.280000,-0.840000
7.041746,-0.048312,0.008296,1.003816,1.120000,2.800000,-1.400000
7.049834,-0.038064,0.003416,0.996496,1.540000,0.840000,-0.420000
7.057921,-0.088328,0.033184,0.983808,1.260000,1.680000,-1.120000
7.066008,-0.035136,0.001464,0.980880,1.120000,0.420000,-0.980000
7.074095,-0.035624,0.013664,0.997960,-0.140000,-1.680000,0.280000
7.082182,0.054168,0.015128,1.072624,0.000000,-0.560000,-1.260000
7.090269,-0.037088,-0.021472,1.067744,2.240000,1.540000,-1.120000
7.098356,-0.077104,0.004880,0.945744,1.120000,1.260000,-0.560000
7.106444,-0.026352,0.031720,1.004792,1.120000,1.960000,-1.120000
7.114531,-0.079544,0.009760,0.968192,1.120000,0.560000,-1.400000
7.122618,-0.044408,-0.012200,0.977464,0.000000,-0.420000,0.280000
7.130705,0.023912,0.041968,1.073600,0.700000,-1.260000,-0.840000
7.138792,-0.016592,-0.004880,1.064816,0.840000,0.980000,-0.840000
7.146879,-0.060024,-0.012200,0.970632,0.840000,1.820000,-0.980000
7.154966,-0.008784,0.010248,0.995032,0.560000,0.980000,-0.980000
7.163054,-0.087352,0.031232,1.021384,2.520000,1.400000,-1.120000
7.171141,-0.032696,0.004392,0.925736,-0.280000,-0.840000,-0.280000
7.179228,-0.002928,0.006344,1.120448,0.700000,0.280000,-0.560000
7.187315,-0.015128,0.005856,0.977952,0.840000,0.700000,-0.980000
7.195402,-0.020984,-0.003904,1.066280,1.120000,0.980000,-0.700000
7.203489,-0.051240,0.004392,0.966728,2.660000,2.380000,-1.260000
7.211576,-0.066856,0.007320,0.992104,-0.280000,1.540000,-0.700000
7.219663,0.008784,0.000488,0.974048,2.240000,0.000000,-1.260000
7.227751,-0.033184,0.037088,0.979416,0.840000,-0.140000,-0.980000
7.235838,-0.057096,0.026840,1.015528,0.420000,0.000000,-0.420000
7.243925,-0.052216,0.014152,1.104344,1.540000,-0.140000,-1.260000
7.252012,0.000000,-0.025376,1.036512,1.260000,2.100000,-0.980000
7.260099,-0.055632,-0.007808,0.890600,0.840000,0.840000,-0.700000
7.268186,-0.027816,0.064904,1.032608,0.000000,-0.560000,-1.260000
7.276273,0.069296,-0.031232,1.043344,0.840000,1.400000,-1.120000
7.284361,-0.088816,0.009760,0.996008,1.680000,1.820000,-0.840000
7.292448,-0.118584,0.049288,1.089216,1.540000,0.700000,-0.560000
7.300535,-0.026352,0.021472,0.964776,1.400000,-0.140000,-0.840000
7.308622,0.003904,-0.018544,0.968680,-0.280000,-1.400000,-0.140000
7.316709,-0.012688,-0.004392,1.109224,2.240000,2.240000,-1.540000
7.324796,-0.042944,0.028304,0.875960,0.000000,2.380000,-0.840000
7.332883,0.021472,-0.016104,1.032608,0.420000,0.000000,-0.560000
7.340971,-0.045872,0.019520,1.008208,1.260000,1.680000,-1.540000
7.349058,-0.055144,0.031232,1.104344,0.700000,2.520000,-0.420000
7.357145,-0.065392,0.005368,0.960872,1.120000,1.540000,-0.700000
7.365232,-0.046360,-0.018056,0.960872,1.540000,0.000000,-1.120000
7.373319,-0.033672,0.016592,1.002840,0.140000,1.400000,-1.120000
7.381406,-0.036112,0.022448,0.984296,-0.420000,-0.140000,-0.840000
7.389493,0.006344,-0.034160,1.030168,2.520000,-0.700000,-1.120000
7.397581,-0.015616,0.023424,0.986248,-0.280000,1.400000,-0.140000
7.405668,-0.054168,0.024888,1.051152,2.800000,2.380000,-0.980000
7.413755,-0.038064,0.004880,0.968192,-1.540000,2.100000,-0.980000
7.421842,-0.033672,-0.001464,1.043344,1.820000,0.840000,-0.980000
7.429929,-0.082472,0.042456,1.057008,1.960000,0.840000,-1.260000
7.438016,-0.029768,0.017568,1.007720,-1.260000,0.420000,-0.700000
7.446103,-0.007320,-0.042944,0.989664,2.240000,0.980000,-1.540000
7.454191,-0.048800,0.030744,1.023824,0.840000,2.520000,-0.840000
7.462278,-0.037088,0.020984,1.006744,0.140000,3.080000,-0.420000
7.470365,-0.011712,-0.000976,0.941840,1.680000,0.420000,-1.120000
7.478452,-0.036600,-0.014640,1.016016,0.000000,0.560000,-0.560000
7.486539,-0.042456,0.001464,1.043344,1.680000,2.520000,-0.980000
7.494626,-0.035624,0.044408,1.030168,-0.140000,0.700000,-0.700000
7.502713,-0.047824,-0.004392,1.030656,2.100000,2.660000,-0.980000
7.510801,-0.066856,0.044896,1.022848,-0.560000,1.680000,-1.400000
7.518888,-0.036600,0.008784,0.957944,1.820000,0.420000,-1.400000
7.526975,-0.011224,-0.028792,0.915000,-0.140000,-1.260000,-1.260000
7.535062,-0.024400,0.001464,1.025776,1.120000,-0.280000,-0.840000
7.543149,-0.045872,0.022936,0.985760,1.260000,0.000000,-0.700000
7.551236,0.005368,0.010736,1.058960,0.000000,-0.560000,-0.700000
7.559323,-0.040016,0.003416,0.984296,2.520000,1.260000,-0.840000
7.567411,-0.098576,0.026352,1.057984,-0.420000,0.980000,-0.560000
7.575498,-0.049288,0.001952,0.985760,1.120000,-0.840000,-1.120000
7.583585,-0.041480,0.001464,1.009672,1.400000,-2.240000,-0.280000
7.591672,-0.030744,0.026840,1.031632,0.980000,-1.400000,-0.980000
7.599759,-0.022936,0.009760,0.981856,0.140000,-1.400000,-0.840000
7.607846,-0.008784,-0.057584,0.963800,1.820000,-1.260000,-1.120000
7.615933,-0.026352,0.042456,0.973072,-0.840000,0.000000,-0.700000
7.624021,-0.033184,0.009272,1.041392,2.240000,0.140000,-0.980000
7.632108,-0.094672,0.015616,0.983808,-0.700000,-1.820000,-0.840000
7.640195,-0.014640,-0.008296,1.043832,1.820000,-2.240000,-0.560000
7.648282,-0.021960,0.040504,1.079944,-1.120000,0.000000,-0.840000
7.656369,-0.026840,0.006832,1.066280,2.520000,2.520000,-1.260000
7.664456,-0.040504,-0.015616,0.850096,0.140000,-0.420000,-0.840000
7.672543,0.017568,0.019520,1.065304,0.560000,-0.420000,-1.260000
7.680631,-0.029768,0.028792,1.093608,1.260000,1.120000,-1.260000
7.688718,-0.077104,-0.028792,0.995520,0.840000,1.680000,-0.560000
7.696805,-0.043920,0.016104,0.915000,1.680000,-0.420000,-0.560000
7.704892,0.013664,0.023912,1.023336,0.280000,-0.840000,-0.980000
7.712979,-0.031720,-0.000976,1.040904,0.280000,1.540000,-1.260000
7.721066,-0.063440,-0.030256,1.021384,2.240000,2.100000,-0.700000
7.729153,-0.055632,0.053680,1.020408,0.700000,0.700000,-0.560000
7.737241,-0.010248,0.039528,1.057008,1.400000,0.980000,-0.840000
7.745328,-0.019032,0.007320,0.998936,-0.560000,0.840000,-0.980000
7.753415,-0.042944,-0.068320,0.983808,2.520000,2.240000,-1.120000
7.761502,-0.018056,0.037576,0.942816,0.140000,1.680000,-0.420000
7.769589,-0.034648,0.031720,1.056520,0.980000,2.100000,-1.120000
7.777676,-0.075640,0.013176,0.965264,0.700000,0.700000,-1.400000
7.785763,0.017080,-0.023912,1.075552,0.140000,0.560000,-0.280000
7.793850,-0.024400,0.022936,1.030656,2.240000,2.520000,-0.840000
7.801938,-0.096624,0.031720,0.996008,0.560000,2.940000,-0.980000
7.810025,-0.042944,-0.010736,0.946232,0.280000,0.840000,-0.980000
7.818112,-0.018056,0.001952,0.997960,1.260000,-0.140000,-0.980000
7.826199,-0.041480,0.031232,1.021384,1.260000,0.420000,-0.980000
7.834286,0.006832,-0.002928,1.057496,-0.280000,1.400000,-0.700000
7.842373,0.004880,0.002928,0.999424,1.540000,2.940000,-0.980000
7.850460,-0.087840,0.026352,1.059448,0.840000,3.360000,-0.700000
7.858548,-0.077592,-0.010736,0.955016,0.840000,2.240000,-1.260000
7.866635,-0.021960,-0.009760,0.994056,1.960000,0.140000,-0.420000
7.874722,-0.000488,0.026352,0.986248,-0.420000,1.260000,-0.700000
7.882809,-0.045384,0.013176,1.063840,1.680000,2.380000,-1.540000
7.890896,-0.033184,0.015616,0.931592,-0.140000,1.120000,-0.700000
7.898983,0.002928,0.007320,1.086288,1.820000,1.540000,-0.420000
7.907070,-0.051728,0.059048,1.013088,0.420000,2.800000,-1.540000
7.915158,-0.039528,-0.009760,1.026752,1.260000,2.100000,-0.420000
7.923245,-0.017080,-0.018544,0.981368,0.980000,2.100000,-1.680000
7.931332,-0.090280,0.023424,1.021872,1.680000,2.940000,-1.120000
7.939419,-0.024400,0.003904,1.013576,-2.380000,2.520000,-0.980000
7.947506,-0.000976,-0.047336,1.039440,3.780000,3.920000,-1.120000
7.955593,-0.095160,0.067344,1.009184,0.140000,4.620000,-0.560000
7.963680,-0.058072,0.001952,0.933056,0.000000,2.800000,-1.120000
7.971768,-0.014640,-0.023912,0.985272,2.100000,0.700000,-1.260000
7.979855,-0.019520,0.008296,1.021872,0.140000,2.660000,-0.420000
7.987942,-0.037088,0.055144,1.109224,0.840000,3.780000,-0.840000
7.996029,-0.009272,-0.005368,0.952088,1.680000,3.780000,-1.120000
8.004116,-0.041968,-0.001952,1.075552,0.840000,4.620000,-0.700000
8.012203,-0.064904,0.021960,1.009672,0.700000,6.020000,-1.260000
8.020290,-0.032208,-0.000976,0.997960,1.680000,4.060000,-0.140000
8.028378,0.002440,0.002440,1.049688,0.280000,5.180000,-1.260000
8.036465,-0.090768,0.019032,0.997960,1.960000,7.420000,-0.980000
8.044552,-0.049288,0.008296,0.999424,-1.120000,6.860000,-0.420000
8.052639,0.016104,-0.012200,0.987224,2.380000,5.460000,-1.680000
8.060726,-0.081984,0.023424,1.000888,1.260000,5.880000,-0.420000
8.068813,-0.094672,0.004392,0.973560,0.700000,6.160000,-1.120000
8.076900,-0.052216,0.008296,1.004304,0.420000,3.780000,-0.840000
8.084988,-0.002928,0.013664,1.061400,2.240000,3.640000,-1.260000
8.093075,-0.034648,0.031720,1.031144,-0.980000,5.880000,-0.840000
8.101162,-0.078080,-0.033672,1.028704,2.100000,7.420000,-1.120000
8.109249,-0.055632,0.015616,0.996984,1.120000,5.600000,-1.260000
8.117336,-0.042456,0.041480,0.976000,1.120000,4.480000,-0.420000
8.125423,-0.053680,0.007320,1.001864,0.840000,4.620000,-1.680000
8.133510,-0.060512,-0.024400,0.974536,0.980000,5.740000,-1.400000
8.141598,-0.027816,0.014152,1.055544,0.420000,5.880000,-0.280000
8.149685,-0.061976,0.033184,0.956480,0.560000,5.320000,-0.980000
8.157772,-0.081984,0.000000,1.003328,1.680000,3.640000,-1.260000
8.165859,-0.065392,-0.002440,1.022360,0.980000,3.500000,-1.400000
8.173946,-0.046848,0.025376,1.046760,-0.140000,3.080000,-0.560000
8.182033,-0.067832,0.003416,1.002352,3.360000,3.640000,-1.400000
8.190120,-0.059536,0.014152,1.019432,-0.560000,3.780000,-0.420000
8.198208,-0.027328,0.002928,1.025288,1.400000,5.880000,-0.840000
8.206295,-0.095648,0.018544,0.942816,0.420000,5.320000,-1.820000
8.214382,-0.032696,-0.017080,0.935984,0.840000,1.820000,-0.560000
8.222469,-0.041480,0.019520,1.087264,1.120000,3.360000,-0.420000
8.230556,-0.068808,0.024400,0.961360,1.120000,5.740000,-1.400000
8.238643,-0.044896,0.004880,1.049688,-0.140000,3.780000,-0.700000
8.246730,-0.019520,-0.015128,0.993568,2.380000,3.500000,-0.980000
8.254818,-0.110776,0.038552,1.044808,0.000000,5.040000,-0.980000
8.262905,-0.095648,-0.000488,0.968680,1.960000,4.200000,-1.540000
8.270992,-0.058072,0.011224,1.002352,0.420000,2.240000,-1.260000
8.279079,-0.036112,-0.008296,1.046272,1.260000,3.220000,-1.120000
8.287166,-0.082960,0.014152,0.961848,0.700000,4.760000,-1.260000
8.295253,-0.040504,-0.019520,0.955992,1.680000,3.220000,-1.400000
8.303340,-0.057096,0.030256,1.032608,-0.700000,3.780000,-0.840000
8.311428,-0.064904,0.008784,1.030168,1.960000,5.880000,-1.260000
8.319515,-0.079544,0.028792,0.999912,0.420000,4.060000,-0.980000
8.327602,-0.040016,-0.008296,1.049200,1.120000,2.660000,-0.560000
8.335689,-0.060512,0.025376,1.043832,0.560000,4.900000,-0.980000
8.343776,-0.055632,-0.001952,0.998936,2.100000,4.340000,-1.400000
8.351863,-0.044896,0.002928,0.958432,0.420000,4.480000,-0.420000
8.359951,-0.067344,0.014640,1.074088,1.820000,5.740000,-0.980000
8.368038,-0.100528,0.032208,0.951600,-0.280000,6.300000,-1.120000
8.376125,-0.038552,-0.015616,1.037976,1.400000,3.500000,-0.700000
8.384212,-0.077104,0.000488,0.966728,1.680000,4.340000,-0.980000
8.392299,-0.087352,0.046360,1.036024,0.000000,3.920000,-1.120000
8.400386,-0.092720,-0.026840,1.002840,1.820000,3.920000,-1.260000
8.408473,-0.033184,-0.001464,0.972096,0.140000,2.240000,-0.420000
8.416561,-0.071248,0.034648,1.093120,1.960000,5.040000,-1.120000
8.424648,-0.098088,0.013176,0.927200,-0.420000,5.740000,-1.260000
8.432735,-0.027328,-0.036600,1.005280,1.540000,3.080000,-1.120000
8.440822,-0.072712,0.040992,0.997472,0.700000,3.640000,-1.120000
8.448909,-0.079544,0.048800,1.052616,0.560000,5.180000,-1.260000
8.456996,-0.079544,-0.010736,0.959896,1.680000,3.220000,-1.540000
8.465083,-0.061000,-0.014640,1.026264,0.840000,2.380000,-1.260000
8.473171,-0.082472,0.016104,0.984784,1.260000,4.620000,-1.260000
8.481258,-0.081984,0.006832,1.004792,0.000000,3.780000,-1.540000
8.489345,-0.036112,-0.028792,0.983320,2.240000,2.660000,-1.540000
8.497432,-0.087840,0.065880,1.075064,-0.140000,5.320000,-0.840000
8.505519,-0.119072,-0.004880,1.005280,1.260000,6.720000,-1.820000
8.513606,-0.116632,0.017080,0.922320,0.280000,1.820000,-0.560000
8.521693,-0.067832,-0.015616,0.972096,2.240000,-1.260000,-0.980000
8.529781,-0.059048,0.022448,1.021384,0.280000,0.140000,-1.540000
8.537868,-0.060512,0.011712,1.070672,1.400000,1.680000,-1.120000
8.545955,-0.061976,-0.007808,0.921832,1.400000,1.820000,-1.120000
8.554042,-0.081984,0.058560,1.093608,0.840000,1.540000,-1.120000
8.562129,-0.106872,0.020984,1.003328,-0.140000,2.940000,-1.680000
8.570216,-0.056608,-0.022448,1.014552,1.540000,1.120000,-1.120000
8.578304,-0.059048,0.011712,1.012600,1.400000,1.120000,-1.120000
8.586391,-0.094184,0.009760,1.010648,1.120000,2.520000,-1.260000
8.594478,-0.075640,-0.001952,0.930128,1.120000,1.820000,-1.960000
8.602565,-0.063440,-0.005856,0.973560,-0.140000,-0.700000,-1.400000
8.610652,-0.073200,0.017080,1.063352,1.540000,0.980000,-1.400000
8.618739,-0.128832,0.031232,0.982832,0.280000,1.960000,-1.400000
8.626826,-0.089792,-0.017080,0.986736,0.840000,-1.260000,-1.120000
8.634914,-0.052704,0.003416,1.030168,1.260000,-0.840000,-0.140000
8.643001,-0.056608,0.026840,1.039928,1.120000,2.240000,-1.400000
8.651088,-0.124440,0.008784,0.920856,0.280000,0.560000,-1.120000
8.659175,-0.030256,-0.024888,1.067744,0.280000,-0.280000,-0.420000
8.667262,-0.072712,0.011224,1.005768,2.520000,1.260000,-1.400000
8.675349,-0.126880,0.057584,0.990640,-0.280000,1.680000,-0.560000
8.683436,-0.080032,-0.027816,0.965264,1.820000,-1.400000,-1.540000
8.691524,-0.072712,0.018056,1.024800,-0.280000,-0.840000,-0.700000
8.699611,-0.068808,0.020984,1.074576,1.960000,-0.280000,-0.980000
8.707698,-0.050752,0.003904,0.970144,0.000000,0.420000,-0.560000
8.715785,-0.041480,-0.012200,1.062864,2.660000,0.700000,-0.980000
8.723872,-0.105408,0.046360,0.999912,-0.420000,3.780000,-0.980000
8.731959,-0.071248,-0.016592,0.968192,1.540000,1.820000,-1.400000
8.740046,-0.116632,0.002928,0.912560,0.560000,-0.560000,-1.260000
8.748134,-0.083936,0.026840,1.054080,0.700000,-1.400000,-1.120000
8.756221,-0.095160,0.005856,1.037000,0.560000,0.000000,-1.120000
8.764308,-0.073200,0.003416,1.001376,1.120000,-0.140000,-0.560000
8.772395,-0.070760,0.002440,0.991128,1.120000,-1.680000,-0.700000
8.780482,-0.061000,0.022936,1.037000,0.980000,0.840000,-1.260000
8.788569,-0.081984,0.022448,0.960384,-0.420000,0.140000,-0.980000
8.796656,-0.113704,0.000488,0.974048,2.520000,-2.660000,-1.400000
8.804744,-0.115656,0.006832,0.906704,0.000000,-6.440000,-0.980000
8.812831,-0.055144,-0.020984,1.005768,0.840000,-6.860000,-1.400000
8.820918,-0.108336,0.027816,0.987224,1.120000,-7.280000,-1.120000
8.829005,-0.071736,0.018056,1.022848,-0.280000,-7.700000,-0.420000
8.837092,-0.019520,-0.005856,1.041392,2.100000,-7.420000,-0.280000
8.845179,-0.101992,0.038064,1.049200,0.140000,-4.760000,-0.700000
8.853267,-0.126392,-0.012200,0.876448,1.540000,-6.440000,-1.400000
8.861354,-0.081496,-0.004392,0.914024,-0.420000,-12.460000,-0.980000
8.869441,-0.043432,0.000488,1.042856,0.700000,-13.300000,-1.260000
8.877528,-0.087352,0.035136,1.033096,0.700000,-12.180000,-0.840000
8.885615,-0.040016,-0.022936,1.025776,1.120000,-11.760000,-0.560000
8.893702,-0.031720,0.018544,0.993568,1.400000,-12.040000,-0.420000
8.901789,-0.103944,0.027328,1.062376,0.560000,-10.220000,-0.140000
8.909877,-0.104920,-0.011712,0.934520,0.000000,-9.940000,-1.400000
8.917964,-0.013176,-0.017080,0.989664,0.840000,-13.440001,-0.140000
8.926051,-0.034648,0.029768,1.075064,0.000000,-10.220000,-0.560000
8.934138,-0.070272,0.033672,0.934520,1.680000,-11.060000,-1.260000
8.942225,-0.022936,-0.009760,1.039928,-0.420000,-12.600000,-0.140000
8.950312,-0.008784,-0.010736,1.035536,1.540000,-11.200000,-0.980000
8.958399,-0.105408,0.013664,1.017968,1.820000,-8.820000,-0.280000
8.966487,-0.086376,0.037576,0.971120,-0.980000,-11.200000,-1.260000
8.974574,0.001952,-0.000488,1.006744,1.120000,-12.600000,-0.980000
8.982661,-0.026352,0.015128,1.021872,0.140000,-11.620000,-0.700000
8.990748,-0.069296,0.005368,0.991128,0.560000,-10.640000,-0.700000
8.998835,-0.037088,0.008784,0.994056,2.100000,-12.600000,-0.980000
9.006922,-0.014152,0.012200,1.082872,-1.540000,-12.460000,-0.140000
9.015009,-0.076616,-0.010736,1.048224,2.520000,-8.820000,-0.560000
9.023097,0.021960,0.056120,0.958432,-1.120000,-11.200000,-1.260000
9.031184,0.174216,0.012688,1.347368,-3.920000,-2.940000,0.140000
9.039271,-0.012688,-0.060512,0.985272,6.020000,5.180000,-2.520000
9.047358,-0.140056,0.053192,0.840336,-0.280000,0.280000,-0.840000
9.055445,-0.046848,0.021960,1.128256,-0.840000,-0.280000,-0.420000
9.063532,-0.039040,-0.028304,0.940376,2.240000,1.680000,-1.260000
9.071619,-0.039528,0.040504,1.000888,-0.420000,-0.700000,0.140000
9.079707,-0.030256,-0.002928,1.041880,0.840000,-0.700000,-0.560000
9.087794,0.010248,0.019520,1.018944,0.840000,0.420000,-1.120000
9.095881,-0.003416,-0.028304,1.022360,0.420000,-0.140000,-0.700000
9.103968,-0.059048,0.011712,1.039928,2.100000,1.400000,-1.120000
9.112055,-0.032696,0.020008,0.985272,0.980000,1.540000,-0.840000
9.120142,-0.044408,-0.004392,1.001376,0.700000,0.840000,-1.120000
9.128230,-0.061976,-0.000488,0.982832,1.120000,0.980000,-0.980000
9.136317,-0.033672,0.006344,0.983808,0.840000,0.420000,-0.560000
9.144404,-0.036600,0.035624,1.033096,0.980000,0.560000,-1.120000
9.152491,-0.023424,-0.022448,0.995032,0.700000,0.560000,-0.980000
9.160578,-0.051728,0.033184,1.032608,0.980000,0.280000,-0.560000
9.168665,0.000000,0.021960,1.009672,0.560000,-0.420000,-0.700000
9.176752,-0.020496,-0.011712,1.008208,0.140000,0.700000,-0.840000
9.184840,-0.061488,0.014152,1.009672,1.260000,1.260000,-0.700000
9.192927,-0.014152,0.033672,1.045784,0.840000,0.140000,-0.840000
9.201014,-0.040992,-0.016104,0.983320,0.140000,0.560000,-0.980000
9.209101,-0.031232,-0.009272,1.013088,1.120000,0.560000,-0.980000
9.217188,-0.026352,-0.005368,0.990152,0.840000,0.280000,-0.420000
9.225275,-0.031720,0.019520,1.020896,1.400000,0.700000,-0.840000
9.233362,-0.029280,-0.003416,1.027728,1.400000,0.980000,-1.260000
9.241450,-0.027816,0.000976,0.995032,1.260000,0.280000,-0.840000
9.249537,-0.031720,0.018056,0.996496,0.840000,0.840000,-0.700000
9.257624,-0.055144,0.014640,1.019920,1.540000,1.540000,-1.120000
9.265711,-0.048800,0.022448,0.992104,0.840000,0.000000,-0.420000
9.273798,-0.021472,0.031232,1.035048,0.280000,0.840000,-0.840000
9.281885,-0.042944,-0.017080,0.965264,0.280000,0.560000,-0.840000
9.289972,-0.048312,0.024400,1.052128,0.980000,0.420000,-0.280000
9.298060,-0.024888,0.007320,0.991128,0.560000,0.560000,-0.840000
9.306147,-0.037088,-0.007808,0.990152,0.560000,0.140000,-1.120000
9.314234,-0.034648,-0.014152,1.046272,0.560000,0.000000,-0.700000
9.322321,0.001464,-0.025864,0.999424,1.400000,0.560000,-0.700000
9.330408,-0.031232,0.019520,1.037976,2.660000,1.820000,-0.980000
9.338495,-0.007320,0.016104,1.009672,1.540000,-0.140000,-0.980000
9.346583,-0.080032,0.020984,0.986736,1.400000,1.680000,-0.420000
9.354670,-0.037088,0.029768,0.985272,0.560000,1.540000,-1.260000
9.362757,-0.059048,0.017568,1.042856,0.420000,0.280000,-0.560000
9.370844,-0.020984,-0.036600,0.962824,1.680000,0.000000,-0.840000
9.378931,-0.012688,0.041968,1.036024,0.280000,-1.260000,-0.140000
9.387018,0.020984,-0.009760,1.058472,0.000000,0.560000,-1.400000
9.395105,-0.082472,-0.014152,1.023336,2.380000,3.360000,-1.400000
9.403193,-0.075640,0.040504,0.914512,1.400000,1.680000,-0.280000
9.411280,-0.052216,0.053680,1.012112,0.140000,-1.120000,-0.700000
9.419367,0.011712,-0.034648,0.991128,0.280000,-1.400000,-1.260000
9.427454,0.005368,-0.043432,1.090680,0.140000,-0.140000,-0.280000
9.435541,-0.013664,0.019032,1.051152,1.960000,2.940000,-1.120000
9.443628,-0.091256,0.038064,0.926224,2.520000,2.800000,-1.400000
9.451715,-0.086376,0.041968,0.991128,0.140000,-0.420000,-0.280000
9.459803,0.018056,0.000976,0.990152,0.560000,-0.840000,-1.260000
9.467890,0.004392,-0.021472,1.089216,0.560000,-0.280000,-0.840000
9.475977,-0.060024,-0.001952,1.020896,0.560000,3.220000,-1.400000
9.484064,-0.074664,0.024400,0.974048,1.820000,0.420000,-0.560000
9.492151,0.012688,0.013664,1.037000,1.400000,0.280000,-1.120000
9.500238,0.028304,-0.023424,0.978928,1.680000,0.840000,-0.840000
9.508325,-0.036600,0.016592,1.031144,0.560000,2.940000,-1.260000
9.516413,-0.081496,0.020496,0.934520,1.680000,3.360000,-1.540000
9.524500,-0.027328,0.035136,0.984784,-0.840000,-0.700000,-0.420000
9.532587,0.004392,-0.016104,1.108248,2.520000,-0.140000,-0.700000
9.540674,-0.087352,0.036600,1.047736,0.700000,3.360000,-1.260000
9.548761,-0.025864,-0.007808,0.974536,0.700000,1.960000,-1.120000
9.556848,-0.016104,-0.015128,0.984784,2.100000,-0.560000,-0.700000
9.564936,-0.039528,0.029768,1.049200,-0.280000,1.540000,-0.840000
9.573023,-0.028304,-0.001464,1.060912,2.800000,5.180000,-1.400000
9.581110,0.018544,-0.010248,1.048224,-0.700000,5.040000,-0.420000
9.589197,-0.020496,0.024400,1.035048,2.240000,8.960000,-1.260000
9.597284,-0.098088,0.035624,0.900360,-0.140000,7.840000,-1.400000
9.605371,0.031232,-0.011224,1.066280,-0.280000,5.740000,-0.980000
9.613458,-0.021472,-0.015616,0.971608,3.080000,6.020000,-1.260000
9.621546,-0.141520,0.054656,1.027728,-0.560000,6.160000,-0.840000
9.629633,-0.054168,0.004392,1.060912,2.240000,5.180000,-1.680000
9.637720,-0.005856,0.000976,0.984296,-0.420000,4.900000,-0.700000
9.645807,-0.045872,0.008784,1.101416,1.540000,7.140000,-1.400000
9.653894,-0.078080,0.021960,0.870592,1.820000,6.860000,-1.820000
9.661981,0.002928,-0.024400,1.020896,-0.560000,2.940000,-0.420000
9.670068,-0.025376,0.007320,0.991128,3.080000,6.580000,-1.680000
9.678156,-0.079056,0.042456,0.980392,-0.280000,5.600000,-1.400000
9.686243,0.003416,-0.022448,0.974048,1.260000,4.200000,-1.400000
9.694330,-0.057584,0.016104,1.060424,0.840000,5.600000,-1.400000
9.702417,-0.063440,0.033184,1.025288,0.280000,7.140000,-1.540000
9.710504,-0.028792,-0.031232,0.992104,2.240000,4.480000,-0.700000
9.718591,-0.024400,0.031720,1.071160,0.000000,6.300000,-0.980000
9.726678,-0.091256,0.011224,1.009672,2.240000,9.660000,-1.260000
9.734766,-0.082472,0.006344,0.984296,-0.420000,6.020000,-0.840000
9.742853,0.000976,-0.026352,1.069208,2.520000,5.600000,-0.700000
9.750940,-0.078568,0.047824,0.979416,1.260000,8.120000,-1.400000
9.759027,-0.043432,-0.001464,1.018456,0.560000,7.420000,-1.260000
9.767114,-0.032208,-0.003416,0.975024,0.560000,6.720000,-1.260000
9.775201,-0.070272,0.030256,1.052616,2.240000,7.280000,-1.260000
9.783289,-0.078568,0.016592,0.969168,-0.280000,8.400000,-0.980000
9.791376,-0.034160,-0.023912,1.043344,2.800000,6.720000,-1.260000
9.799463,-0.033672,0.014152,1.010648,-0.700000,8.960000,-0.560000
9.807550,-0.073688,0.000488,1.009184,1.960000,10.360000,-1.260000
9.815637,-0.097600,0.028792,0.914512,0.420000,7.000000,-0.700000
9.823724,-0.058072,-0.017568,1.029680,1.540000,4.760000,-1.120000
9.831811,-0.068320,0.031720,1.054080,1.120000,6.860000,-0.980000
9.839899,-0.081984,0.025864,0.989176,0.420000,7.140000,-0.980000
9.847986,-0.033672,-0.013664,1.009672,2.100000,5.600000,-1.120000
9.856073,-0.028304,0.014152,1.078968,-0.420000,8.820000,-0.700000
9.864160,-0.091744,0.008296,0.936960,2.240000,9.800000,-1.540000
9.872247,-0.088816,-0.007808,0.983320,0.280000,7.000000,-0.840000
9.880334,-0.002928,-0.021960,1.032608,0.280000,7.420000,-0.560000
9.888421,-0.083936,0.030744,0.997960,2.100000,9.660000,-1.540000
9.896509,-0.125904,0.022936,0.969168,0.280000,7.840000,-0.840000
9.904596,-0.030744,-0.010248,1.052616,1.260000,6.720000,-0.980000
9.912683,-0.070760,0.017568,0.975024,1.820000,6.860000,-0.560000
9.920770,-0.087352,0.041480,1.020408,0.140000,7.560000,-1.120000
9.928857,-0.045872,-0.024888,0.944280,2.380000,6.160000,-1.260000
9.936944,-0.057584,0.018056,1.094584,-1.540000,6.860000,-0.280000
9.945031,-0.110288,-0.002440,1.013088,3.360000,9.800000,-1.960000
9.953119,-0.121512,0.032208,0.955992,-0.140000,6.440000,-0.420000
9.961206,-0.043920,-0.034648,1.044808,1.260000,5.460000,-0.840000
9.969293,-0.070760,0.020008,0.939400,1.820000,7.140000,-0.700000
9.977380,-0.100040,0.048800,1.027240,-0.280000,6.860000,-1.540000
9.985467,-0.075152,-0.020984,1.048224,2.380000,5.600000,-1.260000
9.993554,-0.050264,0.021472,1.062864,-0.840000,7.700000,-0.280000
10.001642,-0.113216,-0.015616,1.002840,3.360000,10.500000,-1.820000
10.009729,-0.098576,0.035624,0.848632,-0.840000,7.700000,-0.700000
10.017816,-0.020008,-0.027816,1.042368,1.120000,5.040000,-1.260000
10.025903,-0.123464,0.037576,1.008696,1.960000,5.880000,-1.680000
10.033990,-0.135664,0.034648,0.991128,-0.420000,5.320000,-0.840000
10.042077,-0.040992,-0.035136,1.025776,2.380000,3.640000,-1.400000
10.050164,-0.046360,0.029768,1.025288,-0.140000,6.160000,0.000000
10.058252,-0.124440,0.003416,1.079944,1.260000,9.660000,-1.400000
10.066339,-0.115168,0.015128,0.859368,0.980000,5.320000,-0.980000
10.074426,-0.035136,0.012688,1.090192,0.560000,2.800000,-0.560000
10.082513,-0.129320,0.000000,0.967216,2.240000,5.600000,-1.960000
10.090600,-0.112728,0.028792,1.002352,0.000000,6.020000,-0.560000
10.098687,-0.088816,0.006344,1.032608,0.980000,3.920000,-0.840000
10.106774,-0.091744,0.000976,0.998448,1.540000,4.060000,-0.560000
10.114862,-0.102480,0.012688,0.971120,0.000000,5.320000,-1.260000
10.122949,-0.114680,-0.014152,0.995032,2.660000,3.220000,-1.540000
10.131036,-0.044896,-0.006832,1.001864,-0.980000,3.500000,0.140000
10.139123,-0.089304,0.003416,1.079456,2.100000,6.720000,-1.680000
10.147210,-0.155672,0.050264,0.897432,-0.420000,5.460000,-0.700000
10.155297,-0.067832,0.006832,1.083848,1.400000,2.660000,-0.700000
10.163385,-0.097112,0.000488,0.952088,0.980000,2.800000,-0.700000
10.171472,-0.070760,0.021472,1.052616,0.980000,4.060000,-1.120000
10.179559,-0.148840,0.005368,0.942328,2.240000,2.940000,-1.120000
10.187646,-0.036600,-0.001952,1.046760,-0.980000,1.960000,0.140000
10.195733,-0.146888,-0.005368,0.970632,2.940000,5.460000,-1.680000
10.203820,-0.118584,0.031720,0.954040,-0.840000,1.680000,-0.700000
10.211907,-0.035136,-0.038064,1.043344,1.120000,0.560000,-0.700000
10.219995,-0.100040,0.034648,1.040416,1.260000,4.480000,-0.840000
10.228082,-0.117120,0.038064,0.972584,1.260000,3.220000,-1.260000
10.236169,-0.074176,-0.020984,1.029192,1.400000,3.220000,-0.420000
10.244256,-0.083936,0.019032,1.052616,-0.140000,5.600000,-0.700000
10.252343,-0.135664,0.013664,0.916952,1.960000,6.020000,-1.260000
10.260430,-0.132248,0.017568,1.034072,-0.280000,2.800000,-0.420000
10.268518,-0.038064,-0.028304,1.052616,1.400000,4.480000,-0.840000
10.276605,-0.138592,0.032208,0.955504,1.120000,5.040000,-1.260000
10.284692,-0.126392,-0.000976,0.973560,0.280000,3.640000,-0.980000
10.292779,-0.055144,-0.001464,0.972096,1.120000,0.560000,-0.140000
10.300866,-0.109800,0.008784,1.068720,1.120000,2.800000,-0.980000
10.308953,-0.143472,0.046848,0.952088,0.840000,4.480000,-0.980000
10.317040,-0.044896,-0.018544,1.062376,0.980000,1.260000,-0.560000
10.325128,-0.087840,0.022448,1.080920,0.840000,5.040000,-1.400000
10.333215,-0.167872,0.013664,0.913048,1.400000,5.740000,-0.560000
10.341302,-0.113704,0.019032,1.041392,0.700000,2.380000,-0.560000
10.349389,-0.042456,-0.025376,0.972096,0.700000,3.640000,-0.840000
10.357476,-0.133224,0.013664,1.044320,0.980000,5.320000,-0.840000
10.365563,-0.170312,0.025864,0.927200,1.540000,3.500000,-0.700000
10.373651,-0.058560,0.006832,0.978928,0.420000,0.980000,-0.980000
10.381738,-0.061488,-0.022936,1.014552,0.980000,2.240000,-1.680000
10.389825,-0.130296,0.045872,1.003816,0.700000,4.060000,-0.560000
10.397912,-0.100528,-0.012200,1.045784,1.540000,3.500000,-0.840000
10.405999,-0.064416,0.010248,1.046760,-0.140000,4.200000,-0.700000
10.414086,-0.146400,0.021960,1.018456,2.660000,6.860000,-1.120000
10.422173,-0.185440,0.035136,0.933056,-0.140000,3.640000,-0.700000
10.430261,-0.070760,-0.042456,0.958432,0.560000,0.840000,-0.980000
10.438348,-0.089792,0.000000,0.988200,1.680000,1.260000,-0.840000
10.446435,-0.109312,0.057096,1.058960,0.560000,2.940000,-0.840000
10.454522,-0.102480,-0.021472,0.973560,2.240000,1.960000,-0.840000
10.462609,-0.096136,0.004880,1.077016,-0.700000,4.900000,-0.420000
10.470696,-0.138592,0.018056,0.954528,1.680000,5.040000,-1.260000
10.478783,-0.095648,0.021472,1.037976,1.260000,1.820000,-0.700000
10.486871,-0.081984,-0.010248,1.029192,0.280000,4.900000,-0.840000
10.494958,-0.137128,0.037088,1.035048,0.980000,5.740000,-0.840000
10.503045,-0.120536,0.020496,0.970632,2.240000,4.340000,-1.120000
10.511132,-0.093696,-0.000488,0.958432,-0.560000,3.080000,-0.560000
10.519219,-0.112728,-0.046360,1.022848,1.820000,4.620000,-1.120000
10.527306,-0.152256,0.040504,0.955992,0.280000,5.600000,-1.120000
10.535394,-0.112240,-0.005368,1.007720,1.400000,3.500000,-0.700000
10.543481,-0.052704,0.016592,1.037488,-0.840000,3.920000,-0.420000
10.551568,-0.154208,0.012200,1.023336,2.660000,7.560000,-1.400000
10.559655,-0.169824,0.047336,0.975512,-0.280000,4.200000,-0.700000
10.567742,-0.093208,-0.021960,1.040416,1.120000,3.500000,-1.120000
10.575829,-0.121024,-0.004880,0.943792,0.840000,4.480000,-0.840000
10.583916,-0.127856,0.020984,1.021872,1.260000,5.320000,-1.260000
10.592004,-0.077592,0.001952,0.968192,0.420000,2.800000,-0.560000
10.600091,-0.065880,-0.007808,1.046760,1.400000,4.900000,-1.260000
10.608178,-0.163480,0.045384,0.967704,1.260000,6.160000,-1.260000
10.616265,-0.102480,0.001952,1.022848,1.820000,4.200000,-0.560000
10.624352,-0.095648,-0.022448,1.038464,-0.280000,6.160000,-0.700000
10.632439,-0.145424,0.036112,1.010160,2.240000,8.260000,-1.120000
10.640527,-0.177632,0.042456,1.002352,-0.560000,6.020000,-0.560000
10.648614,-0.069784,-0.034160,1.024312,2.240000,4.760000,-1.120000
10.656701,-0.141032,0.030256,0.949160,0.980000,5.460000,-0.700000
10.664788,-0.154208,-0.005368,1.000400,1.540000,5.180000,-1.400000
10.672875,-0.098088,0.014152,0.948184,-0.140000,4.200000,-0.420000
10.680962,-0.102480,-0.010248,1.075064,1.260000,4.480000,-1.120000
10.689049,-0.156648,0.037576,0.964288,1.540000,6.160000,-0.980000
10.697137,-0.124440,0.009272,1.006744,0.560000,3.500000,-0.420000
10.705224,-0.099064,-0.020496,0.986736,0.840000,5.040000,-1.680000
10.713311,-0.137128,0.032208,1.001864,1.820000,5.460000,-0.980000
10.721398,-0.147376,0.024400,0.989664,-0.140000,4.340000,-0.700000
10.729485,-0.088328,-0.038064,1.052128,1.400000,4.620000,-0.700000
10.737572,-0.176168,0.046360,1.009672,0.840000,7.840000,-0.840000
10.745660,-0.146400,0.047336,0.989664,0.840000,5.600000,-1.120000
10.753747,-0.087352,-0.016592,1.057008,0.280000,4.340000,-0.560000
10.761834,-0.120048,-0.011712,0.982832,2.100000,7.980000,-1.120000
10.769921,-0.185440,0.034648,0.968192,0.840000,6.860000,-0.980000
10.778008,-0.097112,-0.003416,0.976000,0.280000,4.060000,-0.700000
10.786095,-0.098576,-0.020496,1.063840,2.240000,6.580000,-1.120000
10.794182,-0.173728,0.040992,0.956480,0.280000,8.820000,-1.260000
10.802270,-0.120048,-0.003416,1.012600,1.400000,6.160000,-0.420000
10.810357,-0.132248,0.005856,0.991616,0.140000,7.140000,-1.120000
10.818444,-0.171288,0.015128,1.009672,1.960000,6.860000,-0.980000
10.826531,-0.170312,0.057096,0.990640,0.280000,5.460000,-1.120000
10.834618,-0.114680,-0.039528,1.013088,1.400000,3.640000,-0.840000
10.842705,-0.144936,0.006832,0.988200,1.400000,5.320000,-0.700000
10.850793,-0.174704,0.039528,1.018456,1.540000,6.720000,-0.840000
10.858880,-0.129320,-0.007808,0.963312,0.420000,4.760000,-1.120000
10.866967,-0.111752,-0.037088,1.001376,1.680000,4.900000,-0.560000
10.875054,-0.176656,0.032208,0.985272,0.140000,7.420000,-1.120000
10.883141,-0.120048,0.022448,0.940864,0.980000,4.200000,-0.980000
10.891228,-0.103944,-0.022936,1.073112,0.560000,4.200000,-0.840000
10.899315,-0.163480,0.034160,0.930616,1.680000,6.020000,-0.980000
10.907403,-0.194712,0.044896,1.004304,1.680000,2.940000,-0.560000
10.915490,-0.126392,0.000000,1.021872,-0.700000,3.640000,-1.400000
10.923577,-0.139080,-0.041480,0.984784,2.240000,5.320000,-0.980000
10.931664,-0.175680,0.072224,1.051640,0.140000,5.320000,-0.700000
10.939751,-0.111264,-0.013176,0.991128,1.680000,4.900000,-1.120000
10.947838,-0.151280,0.000000,1.008208,1.120000,5.600000,-0.980000
10.955926,-0.132248,0.031720,0.994056,-0.280000,5.880000,-0.420000
10.964013,-0.144936,-0.020984,0.994056,3.080000,5.320000,-0.980000
10.972100,-0.150792,0.006344,0.993080,-0.700000,6.020000,-0.700000
10.980187,-0.162504,0.002928,1.032120,2.380000,6.860000,-0.980000
10.988274,-0.181536,0.057584,0.949648,0.140000,6.300000,-1.120000
10.996361,-0.117120,-0.023912,0.972096,0.420000,3.220000,-0.700000
11.004448,-0.161040,-0.005368,0.967704,1.820000,4.340000,-0.840000
11.012536,-0.155184,0.052704,1.049688,0.000000,5.040000,-0.700000
11.020623,-0.146888,0.004880,0.947208,2.100000,4.480000,-1.540000
11.028710,-0.176168,-0.004880,1.026264,0.420000,3.080000,-0.280000
11.036797,-0.162504,0.005368,1.045296,1.120000,6.160000,-1.540000
11.044884,-0.185928,0.013664,0.930128,1.120000,4.620000,-0.840000
11.052971,-0.093696,-0.011224,1.053104,0.000000,3.640000,-0.700000
11.061058,-0.185440,-0.010736,0.936960,2.940000,6.440000,-0.980000
11.069146,-0.193248,0.057584,1.034560,-0.840000,5.600000,-0.560000
11.077233,-0.128344,-0.019520,0.939888,1.260000,4.760000,-1.120000
11.085320,-0.154696,0.012200,1.000400,0.840000,4.760000,-0.700000
11.093407,-0.158112,0.023424,1.004792,0.000000,4.900000,-1.400000
11.101494,-0.188368,0.003416,1.025288,1.960000,5.320000,-1.120000
11.109581,-0.128832,-0.004880,0.976488,0.280000,3.640000,-0.280000
11.117669,-0.173240,0.025864,1.013576,2.240000,5.460000,-1.120000
11.125756,-0.181536,0.032208,1.024312,-0.420000,5.880000,-1.120000
11.133843,-0.135664,-0.032696,0.991128,1.540000,6.020000,-0.560000
11.141930,-0.203496,0.049288,0.974536,1.820000,5.320000,-0.980000
11.150017,-0.192272,0.046360,0.989176,-0.700000,2.940000,-0.560000
11.158104,-0.150792,-0.056120,1.046272,2.240000,2.800000,-0.840000
11.166191,-0.100528,0.039528,0.958432,0.700000,4.060000,-0.700000
11.174279,-0.180072,0.009760,1.003328,1.680000,5.740000,-1.120000
11.182366,-0.189832,-0.020984,0.892552,0.140000,4.900000,-1.820000
11.190453,-0.135664,0.003416,1.004792,0.840000,1.960000,-0.560000
11.198540,-0.153232,0.036112,1.070184,1.400000,5.180000,-0.840000
11.206627,-0.167872,0.009272,0.925736,0.420000,4.620000,-0.700000
11.214714,-0.166896,-0.004880,1.046272,1.540000,4.480000,-0.420000
11.222802,-0.177144,0.036112,1.018456,0.560000,5.740000,-1.680000
11.230889,-0.211792,0.020984,0.930128,1.260000,4.900000,-0.280000
11.238976,-0.174216,-0.004880,1.037976,0.560000,2.100000,-0.980000
11.247063,-0.169336,-0.001464,0.964288,1.260000,3.640000,-0.700000
11.255150,-0.172752,0.039528,1.077992,-0.420000,4.900000,-0.280000
11.263237,-0.149328,-0.013176,0.915000,2.100000,3.780000,-1.400000
11.271325,-0.178608,0.012688,0.970144,2.520000,1.960000,-1.120000
11.279412,-0.193736,-0.005856,0.968680,-1.680000,3.780000,-0.840000
11.287499,-0.152256,0.006832,0.996008,2.660000,2.380000,-1.120000
11.295586,-0.154208,0.009272,0.962824,0.280000,1.680000,-0.560000
11.303673,-0.157136,0.017568,1.092144,0.840000,3.640000,-0.700000
11.311760,-0.207888,0.028304,0.907192,1.960000,3.920000,-0.700000
11.319847,-0.142008,-0.007808,1.028704,-0.140000,0.560000,-0.980000
11.327935,-0.192760,0.010248,1.014064,1.960000,3.500000,-1.400000
11.336022,-0.191784,0.027816,0.979416,0.420000,2.800000,0.000000
11.344109,-0.152744,-0.013176,1.017480,0.980000,3.360000,-1.120000
11.352196,-0.144448,0.030256,0.968192,1.260000,3.500000,-1.260000
11.360283,-0.214232,0.023912,1.006744,0.280000,3.780000,-0.280000
11.368370,-0.212280,-0.033672,1.006256,2.100000,3.220000,-1.680000
11.376458,-0.140056,0.016592,0.957456,-0.700000,4.620000,0.140000
11.384545,-0.183976,0.028792,1.084336,2.380000,4.480000,-1.120000
11.392632,-0.219600,0.006344,0.855952,-0.700000,4.060000,-1.400000
11.400719,-0.140056,-0.021472,1.041392,2.660000,0.560000,-0.420000
11.408806,-0.163480,0.032208,0.984296,-0.840000,2.660000,-0.840000
11.416893,-0.175680,0.006832,0.994056,2.660000,3.080000,-1.260000
11.424980,-0.226432,0.013176,0.886696,0.700000,0.840000,-0.980000
11.433068,-0.162504,0.016592,1.034072,-0.140000,-0.980000,-0.420000
11.441155,-0.177632,0.004880,1.046760,1.960000,2.100000,-1.260000
11.449242,-0.135176,-0.001464,0.949160,0.420000,1.120000,-0.980000
11.457329,-0.153720,0.010248,1.026264,1.680000,1.120000,0.000000
11.465416,-0.233264,0.018544,0.991128,0.560000,5.460000,-1.400000
11.473503,-0.192760,0.020984,0.951112,0.560000,0.700000,-1.120000
11.481591,-0.132736,0.002440,1.051640,1.260000,0.280000,0.000000
11.489678,-0.213744,0.020984,1.031144,0.280000,2.520000,-0.840000
11.497765,-0.195688,0.011224,0.915488,1.680000,2.660000,-0.980000
11.505852,-0.149816,0.007808,1.072624,0.560000,0.140000,-0.560000
11.513939,-0.144448,0.004880,1.016504,0.700000,3.220000,-1.400000
11.522026,-0.245952,0.021960,0.918416,1.820000,3.780000,-0.280000
11.530113,-0.190320,0.013664,1.037976,0.980000,0.700000,-1.400000
11.538201,-0.148352,-0.010736,0.948672,0.140000,1.820000,-0.420000
11.546288,-0.164944,-0.010736,1.049200,1.400000,2.380000,-0.700000
11.554375,-0.202520,0.032208,0.872056,0.700000,3.220000,-1.260000
11.562462,-0.155184,-0.002928,1.030168,0.980000,-0.560000,-0.140000
11.570549,-0.184952,0.008296,0.996008,0.700000,1.960000,-1.540000
11.578636,-0.223016,0.036112,0.976976,1.540000,1.120000,-1.120000
11.586724,-0.150792,-0.001952,0.996984,0.420000,-0.840000,-0.420000
11.594811,-0.182024,0.004880,1.043344,1.400000,1.820000,-0.560000
11.602898,-0.230336,0.035624,0.971120,0.560000,3.920000,-1.260000
11.610985,-0.178120,0.009760,0.949160,0.840000,-0.420000,-0.560000
11.619072,-0.137128,-0.010736,1.076040,0.280000,0.280000,-0.700000
11.627159,-0.224968,0.017080,0.953064,2.940000,3.080000,-1.120000
11.635246,-0.175680,0.028792,0.947208,0.000000,-0.420000,-0.560000
11.643334,-0.134200,-0.021960,1.016504,1.540000,-1.260000,-0.840000
11.651421,-0.226432,-0.001464,1.021872,1.120000,3.080000,-0.980000
11.659508,-0.184952,0.015616,0.898896,0.000000,0.980000,-0.840000
11.667595,-0.143472,0.002928,1.010648,1.400000,-0.840000,-0.700000
11.675682,-0.159088,0.009272,1.030656,-0.140000,1.260000,-1.120000
11.683769,-0.233752,0.019032,0.953064,3.500000,2.240000,-0.980000
11.691857,-0.242536,0.046360,0.952576,-1.820000,-0.560000,-0.280000
11.699944,-0.104920,-0.020008,1.050664,1.820000,-2.520000,-0.840000
11.708031,-0.231800,0.039528,0.983320,1.820000,1.120000,-1.260000
11.716118,-0.161040,0.019032,1.012600,-0.980000,-1.680000,-0.840000
11.724205,-0.146888,-0.057584,1.013088,2.800000,-0.140000,-0.700000
11.732292,-0.232776,0.075152,0.992592,-0.700000,2.940000,-0.980000
11.740379,-0.184464,-0.008784,0.908168,2.380000,-2.100000,-0.700000
11.748467,-0.159088,-0.007808,1.077504,-0.140000,-2.100000,-0.700000
11.756554,-0.163968,-0.001464,0.967216,0.140000,2.380000,-0.980000
11.764641,-0.226920,0.024400,1.002352,3.080000,-0.420000,-0.140000
11.772728,-0.095648,0.004880,1.027240,-1.820000,-0.420000,-1.120000
11.780815,-0.202520,-0.022936,0.922808,3.220000,3.500000,-0.840000
11.788902,-0.264496,0.061000,0.987224,-0.280000,1.540000,-1.260000
11.796990,-0.117120,-0.006344,0.951600,0.000000,-1.820000,-0.420000
11.805077,-0.134688,0.000488,1.091168,1.820000,-1.260000,-0.280000
11.813164,-0.210816,0.021472,0.922320,1.820000,1.540000,-1.400000
11.821251,-0.214720,0.030744,1.017968,0.280000,-0.700000,-0.420000
11.829338,-0.167384,-0.024400,1.018944,1.400000,-0.140000,-1.260000
11.837425,-0.190808,0.009760,0.956968,-0.280000,0.280000,-0.840000
11.845513,-0.172264,0.033672,1.036512,2.380000,-0.840000,-0.420000
11.853600,-0.173240,0.013664,1.013576,0.420000,-0.140000,-1.120000
11.861687,-0.165920,-0.029768,0.903288,0.840000,0.280000,-0.700000
11.869774,-0.196664,0.022448,1.028704,1.120000,-0.140000,-1.120000
11.877861,-0.150792,0.033184,0.972584,0.420000,-0.140000,-0.560000
11.885948,-0.173728,-0.035136,1.013088,1.400000,0.700000,-1.120000
11.894035,-0.205936,0.030256,0.983320,0.280000,2.380000,-0.980000
11.902123,-0.155672,0.005856,0.981856,1.400000,0.280000,-0.560000
11.910210,-0.189344,0.015616,1.030656,0.840000,0.560000,-0.980000
11.918297,-0.193736,0.010248,0.966240,0.700000,2.660000,-0.560000
11.926384,-0.196664,0.030744,1.031632,0.560000,1.400000,-0.700000
11.934471,-0.152256,0.004880,1.001864,0.980000,-0.420000,-1.120000
11.942558,-0.168360,-0.010736,0.999424,1.820000,1.680000,-0.140000
11.950646,-0.203496,0.037088,0.962336,0.140000,1.680000,-1.540000
11.958733,-0.187880,-0.008296,1.011136,1.680000,0.420000,-0.700000
11.966820,-0.150304,-0.009272,0.959408,0.140000,0.980000,-0.840000
11.974907,-0.200568,0.015616,0.964776,1.540000,0.840000,-0.840000
11.982994,-0.214720,0.039040,0.954528,0.560000,0.000000,-0.840000
11.991081,-0.138592,-0.018544,1.062376,0.000000,-2.380000,-0.560000
11.999168,-0.154696,0.000976,0.958920,3.220000,1.120000,-0.700000
12.007256,-0.200568,0.078568,1.011624,-0.280000,0.420000,-1.400000
12.015343,-0.176168,-0.032696,0.989176,0.140000,-0.420000,-0.840000
12.023430,-0.171776,-0.008296,1.008696,2.800000,-0.420000,-0.280000
12.031517,-0.216672,0.052216,1.022848,-0.280000,2.240000,-0.700000
12.039604,-0.166896,0.014152,0.961848,1.120000,1.260000,-1.120000
12.047691,-0.178608,-0.043920,0.980880,0.700000,0.140000,-0.700000
12.055779,-0.190320,0.033184,0.999912,0.140000,1.540000,-0.980000
12.063866,-0.181048,0.022448,1.002840,2.660000,-1.400000,-0.560000
12.071953,-0.179096,-0.007808,1.040416,-0.700000,1.680000,-0.840000
12.080040,-0.160552,-0.003416,0.944768,1.820000,2.660000,-0.840000
12.088127,-0.218136,0.032208,0.932568,0.700000,1.820000,-0.840000
12.096214,-0.165920,0.002928,0.960384,-0.560000,-1.540000,-1.260000
12.104301,-0.135664,-0.030256,1.032120,1.540000,-0.420000,-0.560000
12.112389,-0.176656,0.047824,1.008208,1.960000,0.000000,-0.980000
12.120476,-0.183488,0.025376,1.018456,0.560000,1.400000,-1.120000
12.128563,-0.171776,-0.016592,0.953552,0.840000,0.140000,-0.420000
12.136650,-0.188368,0.011712,1.021872,2.100000,0.700000,-0.560000
12.144737,-0.223016,0.064416,1.037976,-0.420000,2.800000,-1.120000
12.152824,-0.165920,-0.034648,0.927200,2.100000,0.700000,-0.700000
12.160912,-0.211792,0.027816,1.066280,0.420000,-0.560000,-0.700000
12.168999,-0.163480,0.015128,0.985760,0.280000,2.100000,-0.980000
12.177086,-0.203008,-0.011712,0.958920,1.400000,0.840000,-0.700000
12.185173,-0.123952,-0.000976,1.021872,0.000000,0.560000,-1.260000
12.193260,-0.204960,0.020008,0.961848,1.820000,1.820000,-0.280000
12.201347,-0.232288,0.005368,0.955992,0.140000,1.540000,-0.980000
12.209435,-0.094184,-0.012200,0.980880,0.980000,-1.400000,-1.120000
12.217522,-0.159088,0.021472,1.056032,1.680000,1.960000,-0.420000
12.225609,-0.238144,0.023912,0.950624,-0.420000,2.800000,-1.540000
12.233696,-0.157624,-0.005368,0.912560,1.820000,-2.380000,-0.560000
12.241783,-0.157136,0.004392,1.105320,0.560000,0.000000,-0.560000
12.249870,-0.183488,0.039528,0.934520,0.420000,2.800000,-1.400000
12.257957,-0.196176,-0.002440,0.938424,1.820000,-0.840000,-0.140000
12.266045,-0.192272,0.014152,1.079456,0.420000,0.560000,-0.840000
12.274132,-0.185440,0.029768,0.961360,1.120000,1.260000,-1.260000
12.282219,-0.196176,0.012200,0.968680,0.700000,-1.120000,-0.140000
12.290306,-0.172264,-0.013176,1.044320,0.420000,-1.120000,-1.120000
12.298393,-0.156648,0.018056,0.982832,1.540000,0.980000,-0.700000
12.306480,-0.229360,0.013176,0.976000,0.840000,1.260000,-0.560000
12.314568,-0.144936,0.001952,1.012112,0.840000,-0.980000,-1.260000
12.322655,-0.151768,0.009272,0.994544,0.980000,0.980000,-0.280000
12.330742,-0.238632,0.006344,0.989176,1.260000,2.100000,-1.120000
12.338829,-0.179096,0.031232,0.979416,0.280000,0.000000,-0.980000
12.346916,-0.157136,-0.010248,1.048224,1.400000,-0.280000,-0.420000
12.355003,-0.205448,0.014152,0.996008,0.140000,1.680000,-0.980000
12.363091,-0.187392,0.020984,0.945744,1.260000,0.840000,-0.700000
12.371178,-0.183000,0.003904,0.996496,0.560000,-1.260000,-0.840000
12.379265,-0.146400,-0.018056,0.972096,0.420000,0.140000,-0.980000
12.387352,-0.227408,0.037088,1.012600,2.380000,0.700000,-0.700000
12.395439,-0.142984,0.000976,0.986248,-1.260000,-0.700000,-0.840000
12.403526,-0.150304,-0.006344,0.992592,2.100000,0.000000,-0.840000
12.411613,-0.220576,0.017080,0.926224,0.980000,1.540000,-0.980000
12.419701,-0.153232,0.020984,1.004792,-0.560000,-1.680000,-1.120000
12.427788,-0.140056,-0.026840,1.004792,2.380000,-0.280000,-0.420000
12.435875,-0.228384,0.028304,0.984784,-0.280000,1.960000,-0.560000
12.443962,-0.194712,0.054168,0.975024,1.400000,-1.120000,-1.120000
12.452049,-0.162504,-0.021472,1.013576,1.260000,-0.560000,-0.700000
12.460136,-0.177632,-0.000488,1.014552,0.560000,0.560000,-1.120000
12.468224,-0.209352,0.039528,0.983808,1.680000,0.560000,-0.420000
12.476311,-0.185928,0.004392,1.016016,-0.560000,-0.560000,-0.840000
12.484398,-0.138592,0.001464,0.988200,0.980000,0.420000,-1.120000
12.492485,-0.190320,0.028792,1.015528,1.820000,0.280000,-0.280000
12.500572,-0.185440,0.004880,1.026264,0.420000,0.980000,-1.260000
12.508659,-0.186416,-0.012200,0.926712,1.400000,0.980000,-0.420000
12.516746,-0.169336,0.026352,1.044808,0.700000,0.280000,-0.280000
12.524834,-0.183000,0.024400,0.960872,1.400000,0.700000,-1.400000
12.532921,-0.203984,-0.018544,0.931104,0.000000,-0.420000,-0.560000
12.541008,-0.159576,-0.003904,0.964776,1.120000,-2.520000,-0.840000
12.549095,-0.200080,0.037088,1.022848,1.540000,-1.400000,-0.700000
12.557182,-0.175680,0.012688,0.966240,0.560000,-2.380000,-0.700000
12.565269,-0.155184,-0.012688,1.013088,0.000000,-1.400000,-0.980000
12.573357,-0.183488,0.025864,0.987712,1.120000,-1.120000,-0.980000
12.581444,-0.207888,0.004392,0.983808,1.260000,-2.100000,-0.140000
12.589531,-0.155184,0.006344,1.034560,0.840000,-0.840000,-0.840000
12.597618,-0.191296,0.033672,0.977464,0.140000,-0.840000,-0.980000
12.605705,-0.194224,-0.007320,1.027240,1.120000,-1.820000,-0.700000
12.613792,-0.162992,-0.016104,0.958920,0.980000,-2.380000,-0.840000
12.621880,-0.163968,0.015616,0.981856,1.400000,-0.840000,-0.140000
12.629967,-0.208864,0.048800,1.033584,0.560000,-0.840000,-1.540000
12.638054,-0.186416,-0.006344,0.897920,0.840000,-2.240000,-0.700000
12.646141,-0.148352,-0.022448,1.071648,1.260000,-3.780000,-0.140000
12.654228,-0.156648,0.046360,0.978440,0.420000,-0.700000,-1.400000
12.662315,-0.166408,-0.005368,0.900848,1.400000,-3.080000,-0.280000
12.670402,-0.151280,0.003904,1.028704,0.560000,-3.080000,-1.120000
12.678490,-0.179584,0.035136,0.998448,1.400000,-1.260000,-0.980000
12.686577,-0.207400,-0.017568,0.992592,0.560000,-1.820000,-0.140000
12.694664,-0.147864,-0.000976,0.991128,0.420000,-3.360000,-1.120000
12.702751,-0.146888,0.045872,1.003328,1.540000,-2.800000,0.000000
12.710838,-0.217160,0.018056,1.029680,0.560000,-0.980000,-0.980000
12.718925,-0.158600,-0.024400,0.910120,0.840000,-3.220000,-1.120000
12.727013,-0.138104,0.025376,1.066280,1.120000,-2.520000,-0.420000
12.735100,-0.263032,0.010248,0.954040,1.400000,-1.120000,-0.980000
12.743187,-0.155672,0.008784,0.971120,-0.700000,-3.220000,-0.560000
12.751274,-0.097600,-0.005368,1.034560,1.400000,-3.640000,-1.120000
12.759361,-0.210816,0.008296,0.967216,0.700000,-1.260000,-0.560000
12.767448,-0.189344,0.002928,1.039928,1.540000,-0.700000,-0.700000
12.775536,-0.115656,0.038552,0.988688,0.140000,-2.240000,-0.840000
12.783623,-0.197152,0.028792,1.017968,1.120000,0.420000,-0.980000
12.791710,-0.214720,-0.020496,0.969168,1.120000,-2.520000,-1.260000
12.799797,-0.148352,0.016592,1.016992,-0.140000,-3.220000,0.000000
12.807884,-0.142496,-0.000976,1.049200,1.680000,-1.260000,-0.980000
12.815971,-0.211792,0.065392,0.927688,0.140000,-1.400000,-1.400000
12.824058,-0.128344,-0.031720,1.021384,1.120000,-4.340000,-0.140000
12.832146,-0.183488,-0.002440,1.028216,1.960000,-0.140000,-1.120000
12.840233,-0.177632,0.053192,0.992104,-1.400000,0.140000,-0.280000
12.848320,-0.089792,-0.017568,0.984784,2.660000,-1.960000,-0.840000
12.856407,-0.190320,0.007808,1.042368,0.280000,0.140000,-0.840000
12.864494,-0.194224,-0.009760,0.962336,0.700000,2.520000,-1.400000
12.872581,-0.169824,0.028304,0.926712,1.820000,-1.120000,-0.140000
12.880669,-0.108824,-0.004392,1.078968,-0.700000,-1.400000,-0.560000
12.888756,-0.187392,0.015128,0.946720,2.240000,1.820000,-1.260000
12.896843,-0.214720,0.023424,0.992592,-0.560000,-0.140000,-0.420000
12.904930,-0.103944,-0.025864,1.007720,1.120000,-1.680000,-1.260000
12.913017,-0.171776,0.015616,0.992592,1.400000,-0.140000,-0.420000
12.921104,-0.198616,0.032696,0.986736,-0.280000,0.700000,-0.840000
12.929192,-0.140544,0.016104,0.966728,2.520000,-1.680000,-0.980000
12.937279,-0.149328,-0.009272,1.040904,-1.400000,0.280000,-0.280000
12.945366,-0.212280,0.036112,0.967704,2.520000,1.400000,-1.400000
12.953453,-0.189832,0.014152,0.975512,0.840000,-3.640000,-0.280000
12.961540,-0.109312,-0.031720,1.076040,-0.840000,-0.140000,-1.120000
12.969627,-0.190808,0.004392,0.963312,2.660000,2.660000,-1.260000
12.977714,-0.164456,0.053680,0.968680,-1.120000,-0.280000,0.000000
12.985802,-0.112728,-0.031720,1.050664,2.520000,-0.560000,-0.980000
12.993889,-0.250832,0.040504,0.935008,0.840000,1.540000,-1.120000
13.001976,-0.174704,0.019032,0.911584,0.000000,-2.380000,-0.700000
13.010063,-0.138592,-0.036600,1.029192,1.820000,-5.180000,-0.980000
13.018150,-0.125904,-0.000976,0.988688,-0.420000,-0.980000,-0.280000
13.026237,-0.181536,0.026840,1.057008,1.540000,0.560000,-1.120000
13.034325,-0.104432,0.023912,0.983808,0.420000,-1.680000,-1.120000
13.042412,-0.139080,0.004880,0.977464,0.840000,0.280000,-0.840000
13.050499,-0.242536,0.013176,0.990640,2.240000,0.560000,-1.260000
13.058586,-0.150304,0.050752,0.997472,-0.700000,-2.100000,-0.280000
13.066673,-0.107848,-0.034648,1.028216,1.820000,-0.280000,-0.980000
13.074760,-0.242048,0.019520,0.966728,0.840000,1.400000,-1.260000
13.082848,-0.166408,0.038064,0.988200,-0.420000,-1.120000,-0.420000
13.090935,-0.097600,-0.030744,1.068232,2.380000,-1.260000,-0.980000
13.099022,-0.188368,0.028304,1.001864,-1.120000,2.380000,-0.700000
13.107109,-0.192272,0.029280,0.991616,2.240000,1.960000,-0.840000
13.115196,-0.180072,-0.002928,0.967216,0.560000,-1.680000,-0.840000
13.123283,-0.127856,-0.006344,0.996496,0.140000,-0.140000,-0.700000
13.131371,-0.184464,0.018056,1.004304,3.500000,0.560000,-0.700000
13.139458,-0.144936,0.017568,1.039928,-1.680000,0.560000,-0.840000
13.147545,-0.125416,-0.028304,0.956480,2.100000,1.680000,-1.400000
13.155632,-0.220088,0.043920,0.963800,1.540000,-0.280000,0.000000
13.163719,-0.140056,0.006344,1.042856,0.000000,-1.120000,-0.980000
13.171806,-0.137128,-0.007808,0.954528,1.960000,0.560000,-0.700000
13.179893,-0.179584,0.020008,1.026264,-0.280000,1.120000,-0.840000
13.187981,-0.182512,0.020008,1.005280,0.700000,1.960000,-1.680000
13.196068,-0.122488,-0.025376,0.946720,0.980000,-1.120000,0.140000
13.204155,-0.137616,0.014640,1.085800,0.980000,2.940000,-0.840000
13.212242,-0.184464,0.056608,0.904264,0.700000,2.800000,-1.260000
13.220329,-0.150304,-0.029280,0.992104,0.560000,-0.560000,-0.560000
13.228416,-0.168360,-0.008784,0.982344,1.540000,0.000000,-1.120000
13.236504,-0.157624,0.054656,1.005768,1.820000,1.120000,-0.420000
13.244591,-0.151768,0.001464,1.064328,0.140000,1.540000,-1.400000
13.252678,-0.157624,-0.018544,0.947208,0.560000,2.240000,-0.980000
13.260765,-0.187880,0.042456,1.022848,1.960000,0.560000,-0.140000
13.268852,-0.219112,0.025376,1.033096,-0.140000,1.960000,-0.980000
13.276939,-0.127856,-0.007320,0.952088,1.400000,0.140000,-0.700000
13.285027,-0.155184,0.012200,1.073112,0.840000,1.400000,-0.980000
13.293114,-0.166896,0.020984,0.946232,0.840000,1.540000,-1.260000
13.301201,-0.167872,-0.022936,0.946720,1.680000,-0.840000,-0.280000
13.309288,-0.145424,0.012200,1.001376,0.140000,0.000000,-1.120000
13.317375,-0.162016,0.029768,1.016992,0.980000,1.680000,-0.980000
13.325462,-0.205448,-0.002440,0.983320,-0.140000,0.840000,-0.980000
13.333550,-0.106872,-0.011224,0.974048,1.680000,-1.680000,-0.280000
13.341637,-0.156648,0.027816,1.027240,1.120000,2.100000,-0.700000
13.349724,-0.178608,-0.001464,0.942328,0.000000,1.820000,-1.820000
13.357811,-0.142984,-0.005368,0.975024,1.820000,-0.700000,-0.280000
13.365898,-0.197640,0.032696,1.056520,1.400000,1.540000,-0.420000
13.373985,-0.203496,0.022448,0.965264,-0.840000,1.400000,-1.260000
13.382072,-0.121024,-0.012200,0.962824,1.820000,-1.260000,-0.560000
13.390160,-0.153720,0.020008,1.049688,1.120000,-0.280000,-0.980000
13.398247,-0.178120,0.021472,0.995032,0.840000,0.840000,-0.700000
13.406334,-0.149816,-0.021960,0.992104,1.400000,0.280000,-0.700000
13.414421,-0.150304,0.007808,1.000400,-0.140000,2.240000,-0.840000
13.422508,-0.167872,0.050752,1.008208,1.540000,2.660000,-1.400000
13.430595,-0.208376,-0.000488,0.938424,0.980000,1.260000,-0.560000
13.438683,-0.145912,0.001464,1.038464,0.000000,-0.840000,-0.700000
13.446770,-0.126392,0.029280,0.987224,1.540000,1.540000,-1.120000
13.454857,-0.189832,0.029280,0.976000,1.400000,0.280000,-0.140000
13.462944,-0.162992,-0.021472,1.052616,1.680000,-0.560000,-0.980000
13.471031,-0.117120,0.029280,1.040904,0.560000,2.240000,-0.700000
13.479118,-0.207888,0.018056,0.926224,1.820000,2.940000,-0.980000
13.487206,-0.183976,-0.022448,1.030168,0.140000,0.980000,-0.840000
13.495293,-0.122976,0.009272,1.040904,0.420000,2.940000,-0.700000
13.503380,-0.177632,0.037576,0.932568,1.820000,3.080000,-0.700000
13.511467,-0.193736,-0.007808,1.011136,0.140000,0.700000,-0.840000
13.519554,-0.116144,-0.024400,1.001376,1.120000,1.120000,-0.980000
13.527641,-0.205936,0.022936,0.979416,1.540000,3.920000,-0.560000
13.535729,-0.169336,0.038552,0.973560,0.000000,1.400000,-1.120000
13.543816,-0.098576,-0.003904,1.032120,1.120000,0.280000,-0.560000
13.551903,-0.202032,-0.016592,1.022360,1.540000,5.880000,-0.980000
13.559990,-0.202032,0.032208,0.921344,0.140000,3.080000,-1.260000
13.568077,-0.112728,-0.006344,1.005280,0.700000,-0.980000,0.140000
13.576164,-0.179584,0.012688,1.052128,2.100000,3.780000,-1.120000
13.584252,-0.173728,0.034160,0.936960,0.140000,3.080000,-1.540000
13.592339,-0.143960,-0.025864,1.006256,1.960000,1.680000,0.000000
13.600426,-0.166896,0.014640,1.007720,0.140000,4.340000,-1.540000
13.608513,-0.191296,0.040016,0.916464,1.820000,3.500000,-0.980000
13.616600,-0.162992,0.005856,1.055544,0.280000,1.820000,-0.840000
13.624687,-0.130296,-0.015128,1.014552,0.560000,2.940000,-1.260000
13.632774,-0.214720,0.025376,0.967704,1.820000,3.920000,-0.420000
13.640862,-0.206424,0.040992,1.030168,0.980000,2.240000,-1.120000
13.648949,-0.100528,-0.022448,0.970632,0.700000,0.980000,-0.700000
13.657036,-0.191296,-0.002440,1.000888,2.100000,5.040000,-1.120000
13.665123,-0.206912,0.026352,0.975024,-0.420000,3.080000,-0.980000
13.673210,-0.119560,0.001952,1.016504,0.980000,1.260000,-0.280000
13.681297,-0.199592,0.020008,1.018944,2.380000,4.060000,-1.120000
13.689385,-0.193248,0.049776,0.991616,-0.140000,3.640000,-1.260000
13.697472,-0.123464,-0.023912,0.999912,1.120000,1.820000,-0.280000
13.705559,-0.194712,-0.020984,0.992104,1.680000,2.940000,-0.840000
13.713646,-0.170312,0.035624,1.015040,0.420000,5.180000,-1.120000
13.721733,-0.166896,0.013176,0.989176,1.540000,3.780000,-0.840000
13.729820,-0.191784,-0.020008,1.007232,-0.420000,4.060000,-0.980000
13.737908,-0.141520,0.003416,0.950136,2.380000,2.100000,-0.980000
13.745995,-0.179096,0.052216,1.016992,1.260000,3.640000,-0.140000
13.754082,-0.149816,-0.018544,0.947208,0.560000,3.500000,-1.680000
13.762169,-0.172752,0.008296,0.980880,1.960000,2.800000,-0.980000
13.770256,-0.214232,0.020008,1.036512,-0.420000,4.760000,-0.700000
13.778343,-0.117120,-0.007320,0.943792,1.120000,2.100000,-0.980000
13.786431,-0.176656,0.003416,1.009672,2.100000,4.200000,-0.420000
13.794518,-0.219600,0.041480,1.013576,-0.420000,5.600000,-1.400000
13.802605,-0.180072,0.010736,0.975512,1.820000,3.920000,-0.840000
13.810692,-0.185440,-0.009272,1.011136,0.140000,3.640000,-0.700000
13.818779,-0.175192,0.024400,0.989664,1.540000,3.360000,-0.700000
13.826866,-0.191296,0.023912,1.013576,0.560000,3.360000,-0.700000
13.834954,-0.174216,-0.009760,0.951112,0.700000,2.100000,-1.120000
13.843041,-0.178608,0.001952,1.035048,2.800000,1.820000,-0.980000
13.851128,-0.182512,0.051240,0.996984,-0.840000,3.920000,-0.560000
13.859215,-0.170800,-0.036600,0.967704,2.520000,3.780000,-1.120000
13.867302,-0.170800,0.010736,0.941840,0.700000,2.940000,-1.120000
13.875389,-0.175680,0.021960,0.940376,0.280000,3.220000,-0.840000
13.883476,-0.195688,-0.004392,0.997960,1.120000,0.140000,-0.980000
13.891564,-0.169336,-0.006344,0.984296,1.260000,1.260000,-0.980000
13.899651,-0.141520,0.042456,1.074576,0.000000,2.520000,-0.140000
13.907738,-0.181048,0.011224,0.970144,1.540000,3.080000,-1.540000
13.915825,-0.219112,0.004392,0.981856,1.400000,1.820000,-0.700000
13.923912,-0.182512,0.012688,1.066768,0.140000,4.340000,-0.840000
13.931999,-0.200080,0.026352,0.939888,1.540000,3.500000,-0.840000
13.940087,-0.222040,0.005856,0.989176,0.420000,1.960000,-0.980000
13.948174,-0.147864,0.001952,1.024312,0.560000,1.400000,-1.120000
13.956261,-0.163968,0.018056,1.009184,1.820000,2.940000,-0.420000
13.964348,-0.195200,-0.002440,0.994544,0.560000,3.640000,-1.540000
13.972435,-0.170312,0.008784,0.950624,1.820000,3.080000,-0.420000
13.980522,-0.200568,0.017568,1.036024,0.700000,4.200000,-0.560000
13.988610,-0.165920,0.018056,0.912072,0.140000,2.660000,-1.400000
13.996697,-0.170800,-0.027328,1.012112,1.960000,1.120000,-0.420000
14.004784,-0.202032,0.024400,0.996984,-0.420000,3.220000,-1.260000
14.012871,-0.212280,0.013176,0.988200,2.240000,2.800000,-0.840000
14.020958,-0.155672,0.002440,0.977952,0.280000,2.380000,-0.700000
14.029045,-0.184464,0.028304,0.983808,0.840000,2.380000,-0.840000
14.037133,-0.209840,0.000000,1.002840,0.560000,3.360000,-0.980000
14.045220,-0.147376,-0.008296,0.942816,0.840000,0.980000,-0.560000
14.053307,-0.177144,0.037576,1.048224,0.980000,2.240000,-0.420000
14.061394,-0.198616,0.015128,0.993080,0.840000,2.520000,-1.400000
14.069481,-0.216672,0.011224,1.010160,1.680000,2.240000,-0.840000
14.077568,-0.168360,0.005856,0.992592,0.700000,2.380000,-0.700000
14.085656,-0.184464,0.010248,0.997472,1.820000,2.100000,-1.120000
14.093743,-0.220576,-0.007808,0.910120,0.000000,3.360000,-1.120000
14.101830,-0.165920,-0.021472,0.987224,1.120000,1.400000,-0.420000
14.109917,-0.160552,0.061000,1.045296,1.400000,1.400000,-1.120000
14.118004,-0.231800,0.009272,0.954040,0.980000,3.080000,-0.840000
14.126091,-0.201544,-0.009760,0.991616,0.420000,0.980000,-0.980000
14.134178,-0.177632,-0.000488,0.980880,0.980000,2.380000,-0.560000
14.142266,-0.209840,0.036112,0.993080,1.120000,1.260000,-0.700000
14.150353,-0.159088,-0.003904,0.985272,-0.560000,0.980000,-1.540000
14.158440,-0.157136,-0.012200,0.997960,1.680000,1.820000,-0.140000
14.166527,-0.246440,0.031720,0.985272,1.820000,3.500000,-1.120000
14.174614,-0.213744,0.045384,0.964288,-0.420000,0.700000,-1.260000
14.182701,-0.119072,-0.044896,1.032120,2.240000,-0.420000,-0.280000
14.190789,-0.223016,0.034160,1.010160,0.700000,3.360000,-0.980000
14.198876,-0.232288,0.017568,0.925736,0.000000,1.960000,-0.980000
14.206963,-0.172264,0.004392,1.034560,2.800000,-1.260000,-0.560000
14.215050,-0.165432,0.019520,1.019432,-1.120000,1.680000,-0.840000
14.223137,-0.228384,0.012200,0.953064,2.520000,2.380000,-0.840000
14.231224,-0.198128,0.010736,0.990640,0.140000,-0.840000,-0.420000
14.239312,-0.125904,0.006344,1.042368,0.280000,0.700000,-0.700000
14.247399,-0.217648,0.019520,0.967216,3.220000,2.520000,-1.260000
14.255486,-0.205936,0.007320,0.921344,-1.260000,1.120000,-0.420000
14.263573,-0.141520,-0.051728,1.012112,2.800000,0.420000,-0.560000
14.271660,-0.253760,0.056608,0.958432,-0.420000,2.940000,-1.260000
14.279747,-0.213744,0.011712,0.966728,0.700000,-0.560000,-1.540000
14.287835,-0.161528,-0.002928,1.024800,1.400000,-2.800000,-0.700000
14.295922,-0.161040,0.004880,1.001864,0.280000,0.840000,-0.560000
14.304009,-0.227408,0.035136,1.013576,1.120000,1.960000,-0.980000
14.312096,-0.150792,0.007320,0.945744,0.840000,-1.960000,-0.700000
14.320183,-0.164456,-0.002440,1.059448,1.260000,0.000000,-0.700000
14.328270,-0.254736,0.028792,0.956968,1.540000,2.660000,-1.540000
14.336358,-0.200080,0.022448,0.931104,0.140000,-1.680000,0.140000
14.344445,-0.114192,-0.008296,1.139480,0.980000,-0.560000,-1.260000
14.352532,-0.205936,0.025376,0.899872,1.260000,1.960000,-1.260000
14.360619,-0.215696,0.017568,0.985272,1.680000,-0.560000,-0.420000
14.368706,-0.180072,-0.020008,1.042368,0.840000,-0.140000,-1.680000
14.376793,-0.193736,0.024888,0.924272,0.000000,0.700000,0.000000
14.384881,-0.174704,0.012688,1.047248,1.680000,0.140000,-0.980000
14.392968,-0.160552,-0.007320,0.987712,0.140000,-0.280000,-1.260000
14.401055,-0.212768,-0.006832,0.940864,1.960000,1.820000,-0.280000
14.409142,-0.244976,0.025376,0.943792,0.560000,-0.140000,-1.260000
14.417229,-0.153720,0.016104,0.965752,0.420000,-1.960000,-0.700000
14.425316,-0.167872,-0.037088,1.077992,0.700000,0.700000,-0.700000
14.433403,-0.172264,0.043432,0.962336,1.260000,1.120000,-1.260000
14.441491,-0.184952,0.022936,0.961848,0.700000,0.140000,-0.420000
14.449578,-0.216672,-0.004880,1.051152,0.700000,0.560000,-1.120000
14.457665,-0.180560,0.012200,0.937448,0.980000,1.120000,-0.700000
14.465752,-0.203984,0.036600,1.036024,1.400000,1.120000,-0.700000
14.473839,-0.183488,-0.015616,0.985760,-0.700000,0.420000,-0.840000
14.481926,-0.185928,0.009272,1.018944,2.240000,2.100000,-0.700000
14.490014,-0.252296,0.045872,0.968192,0.280000,1.820000,-1.260000
14.498101,-0.162016,-0.016592,0.975512,0.840000,-1.260000,-0.560000
14.506188,-0.154208,0.002440,1.008208,0.840000,0.560000,-0.420000
14.514275,-0.226920,0.027328,0.951600,1.540000,1.260000,-1.120000
14.522362,-0.193736,0.003904,1.008208,-0.140000,-0.140000,-0.980000
14.530449,-0.126392,-0.034160,0.976488,1.680000,-1.260000,-0.980000
14.538537,-0.229848,0.037576,0.980880,1.120000,1.540000,-0.280000
14.546624,-0.175192,0.030744,1.003328,0.280000,0.000000,-1.260000
14.554711,-0.176656,-0.024400,0.997960,1.960000,0.420000,-0.700000
14.562798,-0.205936,0.004392,1.007232,-0.560000,2.520000,-0.280000
14.570885,-0.156648,0.033672,0.955992,2.660000,0.280000,-1.120000
14.578972,-0.199104,0.023424,0.984296,0.560000,-1.120000,-0.280000
14.587060,-0.221064,-0.010736,1.016504,0.000000,1.400000,-1.540000
14.595147,-0.202032,0.036600,0.983808,2.380000,0.000000,-0.700000
14.603234,-0.157624,0.021472,1.046272,-1.120000,0.840000,-0.420000
14.611321,-0.177144,-0.017568,0.957944,2.240000,1.540000,-1.120000
14.619408,-0.271328,0.029280,0.951112,0.980000,1.540000,-0.700000
14.627495,-0.157624,0.003416,0.952088,-0.420000,-2.520000,-1.120000
14.635583,-0.167872,-0.031720,1.039440,2.240000,-0.840000,-0.700000
14.643670,-0.178608,0.059048,1.032120,0.280000,0.280000,-0.560000
14.651757,-0.218136,-0.007320,0.987712,1.260000,0.980000,-0.700000
14.659844,-0.180072,-0.013176,1.002840,0.000000,1.260000,-0.980000
14.667931,-0.140056,0.023912,0.963312,1.540000,0.000000,-0.980000
14.676018,-0.215696,0.033184,0.983808,1.820000,0.700000,-0.280000
14.684106,-0.189832,-0.001464,0.976976,-0.140000,0.000000,-1.400000
14.692193,-0.165920,-0.015616,0.913048,1.820000,-0.280000,-0.420000
14.700280,-0.191296,0.027328,1.069696,-0.280000,0.280000,-0.420000
14.708367,-0.173728,0.016592,0.887672,0.980000,-0.280000,-1.820000
14.716454,-0.207888,0.003416,1.013576,1.540000,-2.100000,-0.280000
14.724541,-0.207888,0.026840,1.084336,-0.280000,0.420000,-1.260000
14.732628,-0.199104,0.005856,0.922808,1.680000,0.140000,-0.420000
14.740716,-0.179584,-0.011224,1.028704,0.420000,-0.840000,-0.700000
14.748803,-0.171288,0.025376,1.019432,0.980000,0.000000,-1.400000
14.756890,-0.212768,0.031232,1.010648,1.400000,0.840000,-0.420000
14.764977,-0.171288,-0.006344,0.977464,0.140000,-1.400000,-0.980000
14.773064,-0.165920,0.007320,0.990152,2.520000,1.260000,-0.700000
14.781151,-0.246440,0.034160,0.989664,-0.700000,1.400000,-0.420000
14.789239,-0.192760,-0.008784,0.919880,1.260000,-1.400000,-0.980000
14.797326,-0.180072,-0.012200,1.007232,0.560000,-1.260000,-0.700000
14.805413,-0.165920,0.020984,0.984296,0.280000,-0.700000,-1.400000
14.813500,-0.179096,-0.006832,1.008208,1.400000,-0.700000,-0.280000
14.821587,-0.122488,0.010248,0.993568,0.140000,0.700000,-1.120000
14.829674,-0.228384,0.029768,0.953064,3.080000,-0.420000,-1.120000
14.837762,-0.227408,0.020496,1.035536,-1.120000,0.560000,-0.420000
14.845849,-0.134688,-0.023912,0.924760,1.820000,-1.400000,-0.980000
14.853936,-0.200568,0.038552,1.022360,2.100000,-2.240000,-0.420000
14.862023,-0.252296,0.036112,1.028216,-1.960000,1.400000,-1.400000
14.870110,-0.163480,-0.047336,0.936472,2.240000,-2.240000,-0.840000
14.878197,-0.136640,0.069296,1.045296,0.000000,-2.660000,-0.280000
14.886285,-0.189832,0.015616,1.011624,1.260000,-0.140000,-0.980000
14.894372,-0.234240,-0.016592,0.966240,1.260000,-0.980000,-0.840000
14.902459,-0.124440,0.011712,1.049200,-0.140000,-1.120000,-0.840000
14.910546,-0.189832,-0.001464,0.969656,2.520000,1.260000,-0.840000
14.918633,-0.228384,0.020496,0.967216,0.280000,0.840000,-1.260000
14.926720,-0.165920,-0.018544,0.925736,0.140000,-1.120000,-0.840000
14.934808,-0.179584,0.010736,1.048712,1.120000,-0.700000,-0.700000
14.942895,-0.182512,0.034648,0.945256,0.420000,-0.280000,-0.560000
14.950982,-0.199104,-0.015616,1.007232,1.260000,-1.680000,-0.280000
14.959069,-0.180072,0.013176,0.997960,0.000000,-0.700000,-1.680000
14.967156,-0.189832,0.024400,0.981856,1.260000,-0.560000,-0.280000
14.975243,-0.178608,0.018544,0.987224,0.840000,-2.100000,-0.980000
14.983331,-0.161040,0.002440,1.008208,1.400000,-0.840000,-0.700000
14.991418,-0.230336,0.013176,1.040416,0.280000,1.540000,-0.700000
14.999505,-0.134688,0.006832,0.950136,0.000000,-1.120000,-0.700000
15.007592,-0.178608,0.003416,1.037000,2.940000,-1.540000,-0.840000
15.015679,-0.220088,0.041968,0.970632,-0.280000,0.420000,-1.260000
15.023766,-0.188368,-0.038064,0.960384,1.960000,-0.140000,-0.560000
15.031854,-0.177144,0.040504,1.014064,0.560000,-0.840000,-0.560000
15.039941,-0.180072,0.020984,0.973072,0.420000,-0.560000,-0.700000
15.048028,-0.196664,-0.011712,1.005280,1.540000,-1.680000,-0.420000
15.056115,-0.135664,0.005368,0.956480,0.420000,-1.820000,-1.260000
15.064202,-0.203984,0.002928,1.025288,1.540000,-0.140000,-0.980000
15.072289,-0.235704,0.037088,0.946232,-0.420000,-0.280000,-0.980000
15.080377,-0.138104,-0.016592,0.986248,1.540000,-3.780000,-0.700000
15.088464,-0.165432,0.016104,1.028216,0.420000,-0.420000,-0.700000
15.096551,-0.186416,0.020496,0.966728,0.000000,-1.400000,-1.120000
15.104638,-0.163480,0.002928,0.993568,2.940000,-2.660000,-0.420000
15.112725,-0.180560,0.026352,1.031144,0.000000,-1.960000,-0.840000
15.120812,-0.219112,0.002928,0.970632,1.680000,-0.140000,-0.560000
15.128900,-0.241072,0.034160,0.937936,-0.140000,-1.820000,-1.120000
15.136987,-0.161528,-0.026352,0.981856,1.120000,-5.740000,-0.840000
15.145074,-0.145424,0.018056,1.069696,0.420000,-3.500000,-0.140000
15.153161,-0.160064,0.022448,0.954040,1.400000,-1.260000,-1.260000
15.161248,-0.161528,-0.009272,1.032608,0.420000,-2.940000,-0.560000
15.169335,-0.170312,0.008784,1.059448,0.980000,1.260000,-1.400000
15.177423,-0.224968,0.038064,0.864248,0.980000,-1.260000,0.000000
15.185510,-0.181048,-0.029280,1.044808,0.840000,-2.520000,-0.980000
15.193597,-0.148352,0.013176,0.944280,0.140000,-1.260000,-1.120000
15.201684,-0.178120,0.016592,1.015528,0.140000,-1.400000,-0.420000
15.209771,-0.219112,0.004392,0.886696,1.120000,-3.360000,-1.260000
15.217858,-0.130296,0.017080,1.031632,1.120000,-6.580000,-0.560000
15.225946,-0.158600,0.014640,1.046272,0.280000,-2.380000,-0.840000
15.234033,-0.191296,-0.014640,0.946720,1.820000,-2.800000,-1.260000
15.242120,-0.128832,0.017080,1.049200,0.420000,-2.380000,-0.280000
15.250207,-0.180072,0.017568,1.032120,1.120000,-0.280000,-0.980000
15.258294,-0.230824,0.027816,0.896456,0.700000,-1.260000,-0.700000
15.266381,-0.149328,0.000000,1.074576,0.560000,-4.340000,-0.700000
15.274469,-0.147376,0.001952,1.001864,0.700000,-2.240000,-0.420000
15.282556,-0.221064,0.022448,0.978928,1.960000,0.140000,-0.980000
15.290643,-0.189832,0.018544,0.960872,-0.420000,-2.660000,-1.540000
15.298730,-0.117608,-0.019032,1.023824,0.140000,-4.060000,0.280000
15.306817,-0.202520,0.020008,1.016992,2.660000,-1.400000,-1.260000
15.314904,-0.160552,0.039040,0.949648,-0.140000,-2.380000,-0.980000
15.322992,-0.134688,-0.033184,1.018456,1.260000,-2.380000,-0.140000
15.331079,-0.228384,0.025376,0.994056,1.120000,-1.120000,-1.260000
15.339166,-0.186416,0.009272,0.924272,-0.280000,-2.940000,-0.420000
15.347253,-0.136152,-0.017568,1.020408,1.960000,-4.760000,-0.140000
15.355340,-0.170800,0.037088,1.037000,-0.560000,0.140000,-1.400000
15.363427,-0.194224,0.007808,0.949160,1.540000,-2.100000,-1.400000
15.371515,-0.115168,-0.002928,1.016504,0.000000,-6.580000,0.560000
15.379602,-0.155184,-0.013176,1.043344,2.100000,-0.280000,-1.120000
15.387689,-0.216184,0.050264,0.918416,0.140000,-0.280000,-1.400000
15.395776,-0.123952,0.001952,1.023336,0.560000,-5.040000,-0.420000
15.403863,-0.178608,-0.027328,0.984296,2.940000,-1.960000,-0.420000
15.411950,-0.164944,0.055144,0.999424,-1.820000,-1.260000,-0.420000
15.420038,-0.125416,0.009272,0.984296,2.240000,-2.240000,-1.540000
15.428125,-0.169336,-0.015128,1.001376,0.560000,-2.380000,-0.700000
15.436212,-0.189344,0.004880,1.022360,0.700000,0.840000,-0.980000
15.444299,-0.168360,0.020984,0.888648,0.980000,-2.520000,-0.980000
15.452386,-0.131272,0.008296,1.047248,0.280000,-2.940000,-0.140000
15.460473,-0.196176,0.004392,0.988200,1.260000,-0.700000,-1.400000
15.468561,-0.207400,0.045872,1.049688,1.120000,-2.520000,-0.560000
15.476648,-0.110776,-0.003416,1.028704,-0.980000,-2.800000,-0.420000
15.484735,-0.135176,0.007320,0.967216,3.080000,0.280000,-1.540000
15.492822,-0.252296,0.045384,1.001376,-0.140000,-0.420000,-0.700000
15.500909,-0.125416,-0.026840,0.972096,0.000000,-3.220000,-0.280000
15.508996,-0.140544,-0.016592,1.006256,3.080000,-3.080000,-0.560000
15.517084,-0.180560,0.070760,1.018456,-0.700000,-1.120000,-1.120000
15.525171,-0.158600,-0.034160,0.978928,1.400000,-0.140000,-0.700000
15.533258,-0.188856,-0.003416,0.935008,0.280000,-2.940000,-0.560000
15.541345,-0.133224,0.010248,1.016016,1.120000,-3.920000,-1.120000
15.549432,-0.174704,0.037576,1.007232,1.400000,-2.660000,-0.840000
15.557519,-0.124928,-0.000976,1.034560,-0.840000,-4.340000,-0.420000
15.565607,-0.151768,-0.000976,0.985272,3.360000,-1.820000,-0.980000
15.573694,-0.162992,0.044408,0.977952,-0.420000,-1.820000,-0.280000
15.581781,-0.134688,-0.036112,1.019432,0.700000,-2.520000,-1.540000
15.589868,-0.166896,0.007320,0.960872,1.400000,-1.400000,-0.560000
15.597955,-0.170312,0.048800,1.035048,0.420000,-1.260000,-0.420000
15.606042,-0.162016,-0.016104,0.997472,1.540000,-0.140000,-1.400000
15.614130,-0.090280,0.000000,0.950136,-0.140000,-2.520000,-0.280000
15.622217,-0.162016,0.016104,1.041880,1.540000,0.700000,-0.980000
15.630304,-0.183000,0.026840,0.969656,0.420000,-0.700000,-1.120000
15.638391,-0.133224,-0.009760,0.991128,1.260000,-0.560000,-0.420000
15.646478,-0.211792,0.045872,1.019920,0.700000,-1.260000,-0.980000
15.654565,-0.163968,0.014152,0.999424,0.980000,-1.400000,-0.980000
15.662653,-0.133224,-0.023912,1.010160,0.560000,-0.840000,-0.560000
15.670740,-0.130784,0.017568,1.008208,0.840000,-0.140000,-0.840000
15.678827,-0.173240,0.030744,0.983320,0.980000,-0.420000,-0.560000
15.686914,-0.157136,-0.005856,1.003328,0.840000,-0.700000,-0.980000
15.695001,-0.121024,0.036112,1.031632,1.540000,-2.380000,-0.560000
15.703088,-0.180072,0.009272,1.023336,1.820000,0.980000,-0.840000
15.711176,-0.195688,-0.018544,0.939400,-0.420000,-0.280000,-0.980000
15.719263,-0.105408,0.009760,0.993568,2.240000,-2.660000,-0.560000
15.727350,-0.154208,0.024888,1.049200,0.700000,0.000000,-0.420000
15.735437,-0.156160,0.008784,0.947696,-0.560000,0.420000,-1.260000
15.743524,-0.119072,-0.007808,1.000400,2.100000,-1.540000,-0.560000
15.751611,-0.195688,0.002440,1.025288,0.700000,1.680000,-0.840000
15.759699,-0.213256,0.025376,0.968192,-0.140000,0.980000,-0.980000
15.767786,-0.110288,-0.018544,0.941840,1.120000,-1.680000,-0.280000
15.775873,-0.105896,0.020008,1.074576,0.560000,-0.420000,-1.120000
15.783960,-0.178120,0.024888,0.950624,0.140000,2.100000,-1.400000
15.792047,-0.146400,-0.030256,0.954528,1.400000,-0.980000,-0.140000
15.800134,-0.150792,0.036112,1.083360,1.260000,-0.420000,-0.840000
15.808222,-0.150304,0.036600,0.968680,0.700000,0.420000,-0.980000
15.816309,-0.148352,-0.019520,1.006256,2.100000,-0.420000,-0.420000
15.824396,-0.138104,0.002928,1.011136,0.000000,0.700000,-0.980000
15.832483,-0.146400,0.027816,0.957456,0.420000,2.800000,-0.980000
15.840570,-0.190320,0.015128,0.995032,1.960000,0.420000,-0.980000
15.848657,-0.117608,-0.001464,1.043832,-0.560000,-1.260000,-0.560000
15.856745,-0.141032,-0.010248,1.031144,2.800000,3.500000,-0.840000
15.864832,-0.236680,0.061976,0.985760,0.000000,2.380000,-0.700000
15.872919,-0.134688,0.003416,0.974536,1.260000,-0.280000,-0.980000
15.881006,-0.108824,-0.029280,1.032120,1.400000,0.700000,-0.700000
15.889093,-0.179584,0.030256,0.945256,-0.420000,2.380000,-0.700000
15.897180,-0.157624,-0.002928,1.010160,2.660000,0.840000,-0.980000
15.905268,-0.118096,0.007320,1.011136,-0.980000,0.560000,-0.700000
15.913355,-0.184464,0.011224,1.013576,1.960000,3.780000,-1.120000
15.921442,-0.240096,0.028792,0.881816,0.840000,0.000000,-0.840000
15.929529,-0.099064,-0.030256,1.014064,0.280000,-3.500000,-0.560000
15.937616,-0.106384,0.022936,1.029192,1.120000,-0.980000,-1.120000
15.945703,-0.195200,0.014640,0.956968,0.980000,1.540000,-1.260000
15.953791,-0.141520,-0.005856,1.001864,0.420000,-1.680000,-0.280000
15.961878,-0.103944,0.027816,1.061400,1.960000,0.280000,-0.980000
15.969965,-0.196176,0.026840,0.956968,0.140000,1.400000,-0.700000
15.978052,-0.137616,0.009760,1.037488,1.400000,0.140000,-1.120000
15.986139,-0.098576,-0.015616,0.967216,0.420000,-0.140000,-0.700000
15.994226,-0.196176,0.024400,1.012112,1.680000,2.660000,-0.280000
16.002314,-0.209840,0.052216,1.031144,0.700000,0.980000,-1.400000
16.010401,-0.119072,-0.023912,0.973072,0.560000,-0.280000,-0.420000
16.018488,-0.145424,-0.019032,1.046272,0.560000,2.240000,-0.700000
16.026575,-0.185440,0.056120,0.933056,1.540000,1.680000,-1.400000
16.034662,-0.138104,-0.013664,0.978440,1.400000,-1.400000,-0.280000
16.042749,-0.161040,-0.010248,1.062864,0.140000,1.960000,-1.120000
16.050837,-0.146400,0.048312,0.936472,1.120000,1.260000,-0.980000
16.058924,-0.153720,-0.013664,1.027240,1.260000,-0.700000,-0.420000
16.067011,-0.158112,-0.010248,1.006744,0.280000,0.420000,-0.980000
16.075098,-0.151768,0.023424,0.971608,2.660000,2.660000,-1.120000
16.083185,-0.160064,0.014152,0.993080,-1.120000,0.700000,-0.700000
16.091272,-0.111752,-0.029768,0.972096,1.820000,0.560000,-1.120000
16.099360,-0.190808,0.015128,0.954040,2.100000,0.700000,-0.560000
16.107447,-0.152744,0.046360,1.053592,-1.680000,-0.280000,-0.840000
16.115534,-0.118584,-0.018544,1.013576,3.500000,0.280000,-1.120000
16.123621,-0.162992,0.044896,0.993080,-0.700000,1.820000,-0.560000
16.131708,-0.222528,0.014152,0.952088,1.540000,0.420000,-0.560000
16.139795,-0.147376,0.017568,1.046760,0.980000,-2.100000,-0.560000
16.147883,-0.095648,-0.007808,1.008696,0.140000,0.980000,-0.980000
16.155970,-0.181536,0.014152,1.015040,2.240000,1.680000,-0.840000
16.164057,-0.123464,0.005368,0.989176,-0.980000,1.260000,-1.120000
16.172144,-0.142496,-0.026840,0.951600,2.380000,2.100000,-0.420000
16.180231,-0.198616,0.042944,1.032608,0.700000,1.400000,-0.560000
16.188318,-0.164456,0.021960,0.999424,0.560000,1.680000,-1.260000
16.196406,-0.163968,-0.029280,0.967216,0.700000,0.000000,-0.560000
16.204493,-0.099064,0.007320,1.023824,0.700000,0.280000,-0.840000
16.212580,-0.183000,0.033184,0.999424,1.540000,2.940000,-1.260000
16.220667,-0.148840,0.009272,0.950136,-0.280000,1.260000,-0.420000
16.228754,-0.137128,-0.021960,1.004792,2.520000,0.000000,-1.400000
16.236841,-0.140544,0.033184,1.011624,-0.420000,1.680000,-0.420000
16.244929,-0.145912,0.003416,1.031632,0.840000,3.220000,-0.840000
16.253016,-0.192760,0.027816,0.942328,1.960000,1.120000,-1.260000
16.261103,-0.155184,0.023424,1.024312,0.140000,-0.280000,-0.140000
16.269190,-0.200568,0.018544,0.967704,1.540000,-0.280000,-1.120000
16.277277,-0.141520,-0.019520,1.016504,0.840000,-1.540000,-0.560000
16.285364,-0.101992,0.007808,1.042856,0.840000,0.700000,-0.840000
16.293452,-0.185928,0.024888,0.984784,1.400000,2.940000,-1.120000
16.301539,-0.176656,-0.024400,0.974536,0.000000,1.820000,-0.700000
16.309626,-0.092232,0.007808,1.021872,1.120000,0.840000,-0.840000
16.317713,-0.155184,0.039528,0.952088,0.980000,2.100000,-0.840000
16.325800,-0.183976,0.004880,1.044808,0.980000,1.400000,-0.980000
16.333887,-0.126880,-0.022936,0.949648,0.980000,1.680000,-0.980000
16.341975,-0.158112,0.005856,1.021384,1.260000,2.240000,0.000000
16.350062,-0.160552,0.036600,0.986248,0.420000,3.640000,-1.260000
16.358149,-0.152744,0.005856,0.964288,1.260000,1.120000,-0.980000
16.366236,-0.180072,-0.007320,1.063352,-0.280000,2.940000,-0.700000
16.374323,-0.150792,0.024400,0.944768,2.240000,3.080000,-1.120000
16.382410,-0.162992,0.021472,0.968680,0.840000,0.560000,-0.420000
16.390498,-0.150304,0.012688,1.057984,0.700000,0.560000,-0.840000
16.398585,-0.178608,0.016104,0.979416,1.400000,3.220000,-1.120000
16.406672,-0.162992,0.004880,1.007232,-0.700000,1.960000,-0.560000
16.414759,-0.100528,0.007320,1.017968,2.520000,0.280000,-0.980000
16.422846,-0.199104,0.039528,1.001864,0.980000,2.520000,-0.700000
16.430933,-0.198616,-0.022448,0.988688,-0.420000,2.520000,-0.980000
16.439021,-0.114192,0.000976,1.007232,3.500000,0.980000,-0.980000
16.447108,-0.136640,0.040016,1.031144,-1.680000,3.500000,-0.560000
16.455195,-0.200080,-0.015128,0.921344,1.680000,3.500000,-0.980000
16.463282,-0.176656,0.012688,0.992104,1.960000,-0.420000,-0.560000
16.471369,-0.105896,-0.020008,1.019920,-0.840000,1.400000,-1.120000
16.479456,-0.157136,0.003416,1.007232,2.380000,4.060000,-0.980000
16.487544,-0.203984,0.023912,0.882304,-0.140000,2.520000,-1.120000
16.495631,-0.092720,0.009760,1.026752,1.540000,-0.700000,-0.560000
16.503718,-0.147864,0.050752,1.039440,0.140000,3.640000,-0.980000
16.511805,-0.159576,0.001464,0.941840,0.840000,1.260000,-1.120000
16.519892,-0.195200,-0.009272,1.073112,2.240000,0.140000,-0.140000
16.527979,-0.172264,0.040992,1.018944,0.000000,3.360000,-1.120000
16.536067,-0.174704,0.002440,0.990640,1.960000,3.080000,-1.120000
16.544154,-0.155184,0.031720,1.016992,0.000000,1.960000,-1.120000
16.552241,-0.147376,-0.003416,1.008208,1.680000,2.240000,-0.700000
16.560328,-0.207888,0.011224,0.978928,1.540000,3.500000,-0.700000
16.568415,-0.124928,0.016104,0.976488,0.000000,1.820000,-1.120000
16.576502,-0.127856,-0.040016,1.010160,1.820000,1.400000,-0.560000
16.584590,-0.163480,0.037088,0.925248,0.700000,2.940000,-0.840000
16.592677,-0.203984,0.007320,0.951112,2.240000,0.700000,-1.400000
16.600764,-0.133224,-0.010736,0.991616,0.000000,-0.840000,-0.420000
16.608851,-0.146400,0.009272,1.078480,0.840000,2.380000,-0.140000
16.616938,-0.213744,0.025864,0.938424,1.960000,2.240000,-1.680000
16.625025,-0.097112,-0.014152,1.025776,-0.560000,-1.120000,0.000000
16.633113,-0.167384,-0.000976,1.052128,2.240000,4.340000,-1.260000
16.641200,-0.189344,0.057584,0.928176,0.420000,2.660000,-0.840000
16.649287,-0.145424,0.006344,1.005280,1.260000,0.840000,-0.840000
16.657374,-0.207888,-0.001952,1.004792,0.280000,1.820000,-0.980000
16.665461,-0.170312,0.032696,0.959896,1.120000,0.700000,-0.840000
16.673548,-0.125416,0.007320,1.018456,0.980000,-0.140000,-0.980000
16.681636,-0.123464,-0.012200,1.039928,0.000000,1.960000,-0.280000
16.689723,-0.228872,0.027328,0.997960,3.080000,4.060000,-1.120000
16.697810,-0.196176,0.011712,0.953064,-1.400000,3.080000,-0.980000
16.705897,-0.129320,-0.024400,0.997960,0.840000,1.260000,-0.840000
16.713984,-0.210816,0.014152,1.002352,1.400000,2.520000,-0.840000
16.722071,-0.159088,0.044408,0.960384,0.420000,1.120000,-1.120000
16.730159,-0.140056,-0.033672,1.051152,0.840000,0.140000,-0.420000
16.738246,-0.154208,0.020984,0.973072,0.280000,2.660000,-1.120000
16.746333,-0.189344,0.022448,0.925736,2.520000,0.980000,-0.560000
16.754420,-0.150304,0.000000,1.004304,0.420000,-0.840000,-0.700000
16.762507,-0.130296,-0.010736,1.011624,0.420000,1.820000,-0.980000
16.770594,-0.228384,0.009760,0.971120,1.120000,2.520000,-1.260000
16.778682,-0.122976,0.027328,0.965264,-0.280000,-1.260000,0.140000
16.786769,-0.126392,0.017568,1.085312,2.100000,1.260000,-0.840000
16.794856,-0.204960,0.034160,0.980880,0.560000,3.080000,-1.680000
16.802943,-0.198616,-0.010736,0.984784,1.820000,0.140000,-0.560000
16.811030,-0.146888,-0.001464,0.995032,0.140000,0.000000,-0.140000
16.819117,-0.160552,0.021960,1.013088,2.380000,1.680000,-1.260000
16.827205,-0.209840,0.033184,0.982832,-0.280000,0.280000,-1.120000
16.835292,-0.153720,-0.016592,1.023824,1.260000,-0.280000,-0.420000
16.843379,-0.157624,-0.005368,0.981368,0.840000,0.420000,-0.840000
16.851466,-0.180072,0.022448,0.957944,1.400000,1.540000,-0.980000
16.859553,-0.164456,0.000488,1.002352,0.420000,-0.280000,-0.980000
16.867640,-0.142984,-0.000488,0.994056,0.140000,0.840000,-0.980000
16.875728,-0.183488,0.021472,0.958920,2.100000,0.420000,-0.280000
16.883815,-0.178608,0.027816,1.000400,0.560000,-0.700000,-0.980000
16.891902,-0.076128,-0.022448,1.039440,-0.980000,-0.420000,-0.980000
16.899989,-0.199104,0.008784,0.953064,3.920000,2.660000,-0.980000
16.908076,-0.190320,0.039528,0.950624,-0.700000,-0.700000,-0.420000
16.916163,-0.117608,-0.004880,1.063352,0.980000,0.280000,-1.120000
16.924251,-0.190808,-0.009272,0.968192,1.820000,1.540000,-0.700000
16.932338,-0.200080,0.050264,1.014552,-0.420000,1.120000,-0.840000
16.940425,-0.137128,-0.022448,0.936472,1.540000,-1.400000,-0.840000
16.948512,-0.171288,0.011224,1.015040,1.540000,0.000000,-0.560000
16.956599,-0.162504,0.035136,1.061888,-0.140000,0.980000,-0.980000
16.964686,-0.106872,0.001464,0.983808,1.820000,1.400000,-0.840000
16.972774,-0.218624,0.009760,0.984784,1.540000,1.400000,-0.420000
16.980861,-0.203984,0.021960,1.032608,0.420000,1.540000,-1.260000
16.988948,-0.148840,0.023424,0.919880,1.120000,0.700000,-0.840000
16.997035,-0.148352,-0.033672,1.045296,0.140000,-0.700000,-0.280000
17.005122,-0.191296,0.044408,0.999424,1.680000,2.240000,-1.400000
17.013209,-0.181536,0.014640,0.964288,0.980000,-0.840000,-0.420000
17.021297,-0.175680,-0.029768,1.039440,0.420000,0.420000,-1.260000
17.029384,-0.144936,0.020008,0.920856,1.400000,0.700000,-0.840000
17.037471,-0.173728,0.034160,1.072624,0.420000,-0.280000,-0.700000
17.045558,-0.134688,-0.030744,0.974536,0.140000,0.840000,-0.980000
17.053645,-0.137128,0.004880,0.955504,2.940000,0.840000,-0.560000
17.061732,-0.191296,0.029280,1.043344,-0.840000,1.120000,-0.980000
17.069820,-0.189344,0.004392,0.949160,1.680000,1.400000,-1.120000
17.077907,-0.163480,-0.015128,0.948672,1.260000,-1.540000,-0.700000
17.085994,-0.140056,0.038064,1.071648,-0.700000,0.000000,-0.700000
17.094081,-0.176168,0.022448,0.956480,2.100000,1.820000,-0.980000
17.102168,-0.192272,-0.018056,0.951600,0.000000,-0.980000,-1.120000
17.110255,-0.132736,0.014640,1.021384,0.420000,-1.400000,-0.420000
17.118343,-0.151768,0.036600,0.994056,1.960000,-0.140000,-0.700000
17.126430,-0.149328,0.011712,0.976488,0.280000,-1.960000,-1.260000
17.134517,-0.140056,0.008784,1.062864,2.380000,-0.700000,-0.280000
17.142604,-0.234240,0.001464,0.949160,0.000000,3.080000,-0.980000
17.150691,-0.164944,-0.012200,0.975512,0.140000,-1.260000,-0.700000
17.158779,-0.099064,0.022448,1.039440,2.380000,-0.700000,-0.700000
17.166866,-0.227408,0.038064,0.993080,-0.280000,1.540000,-0.840000
17.174953,-0.212768,-0.001952,0.981856,0.980000,-0.700000,-1.120000
17.183040,-0.124440,-0.003904,0.987224,1.400000,-2.940000,-0.140000
17.191127,-0.164456,0.023424,1.038464,0.280000,-0.560000,-0.560000
17.199214,-0.187392,0.025864,0.977952,0.840000,0.280000,-1.540000
17.207302,-0.130296,-0.017080,0.986248,0.700000,-1.260000,-0.280000
17.215389,-0.155672,0.009272,1.056032,1.260000,0.000000,-0.840000
17.223476,-0.184952,0.027816,0.937448,0.840000,1.680000,-1.120000
17.231563,-0.175680,0.008296,0.969168,1.260000,-1.960000,-0.280000
17.239650,-0.137616,-0.024400,1.076528,0.420000,-1.120000,-0.700000
17.247737,-0.156160,0.037088,0.953552,1.400000,2.660000,-1.120000
17.255825,-0.191296,0.005368,0.955016,1.400000,-1.120000,-0.700000
17.263912,-0.099064,-0.005856,1.032608,-0.280000,-2.940000,-0.840000
17.271999,-0.170800,-0.015128,0.963800,2.660000,2.520000,-0.980000
17.280086,-0.216672,0.056608,0.978440,-0.980000,1.120000,-1.120000
17.288173,-0.106384,-0.018544,0.980392,0.840000,-1.820000,-1.120000
17.296260,-0.171288,-0.024400,1.002840,2.100000,-0.280000,-0.420000
17.304348,-0.186904,0.077104,0.996496,-1.260000,0.560000,-0.700000
17.312435,-0.133712,0.011224,1.032120,2.240000,-0.700000,-1.120000
17.320522,-0.182024,-0.015128,0.983808,0.420000,0.700000,-0.840000
17.328609,-0.202520,0.029768,0.984296,0.840000,-0.700000,-0.840000
17.336696,-0.113704,0.015616,0.988688,1.540000,-2.240000,-0.840000
17.344783,-0.120536,-0.015128,1.059936,-0.420000,-0.280000,-0.700000
17.352871,-0.175680,0.012688,0.971120,2.800000,1.820000,-0.980000
17.360958,-0.197640,0.045872,0.995520,0.000000,0.140000,-0.140000
17.369045,-0.151280,-0.023424,1.038952,0.700000,0.420000,-1.540000
17.377132,-0.180560,0.004880,0.924760,1.540000,0.980000,-0.280000
17.385219,-0.188856,0.047824,1.098488,0.980000,0.280000,-0.560000
17.393306,-0.123952,-0.009760,0.929152,0.700000,-0.700000,-1.120000
17.401394,-0.123464,-0.020008,1.018456,0.840000,0.280000,-0.280000
17.409481,-0.200568,0.032696,0.983320,2.240000,2.240000,-1.680000
17.417568,-0.139080,0.022448,0.962824,-0.280000,-1.820000,-0.140000
17.425655,-0.140056,-0.047824,1.074576,0.980000,2.940000,-0.560000
17.433742,-0.183488,0.073200,0.953552,1.120000,1.540000,-1.400000
17.441829,-0.145912,0.000000,0.964776,0.560000,-0.140000,-0.700000
17.449917,-0.174216,-0.030256,0.993568,0.980000,-0.140000,-0.980000
17.458004,-0.182024,0.022448,0.985272,1.960000,0.840000,-0.840000
17.466091,-0.181536,0.051240,0.991616,-1.540000,0.560000,-0.420000
17.474178,-0.130784,-0.038064,0.997472,1.960000,-1.120000,-0.840000
17.482265,-0.190808,0.033672,1.020896,0.840000,0.560000,-0.840000
17.490353,-0.173240,0.035136,1.027240,-0.280000,0.700000,-0.980000
17.498440,-0.124440,-0.025864,0.958920,1.820000,-0.980000,-0.840000
17.506527,-0.147864,0.010248,1.033096,0.560000,0.560000,-0.280000
17.514614,-0.159088,0.032696,0.983320,1.260000,2.800000,-1.400000
17.522701,-0.210328,0.000976,0.965264,0.000000,1.400000,-0.980000
17.530788,-0.133224,-0.018544,1.026752,0.000000,-0.700000,-0.280000
17.538876,-0.162992,0.029768,1.002352,3.500000,1.960000,-0.840000
17.546963,-0.167384,0.048312,0.995032,-0.420000,-0.420000,-0.700000
17.555050,-0.137616,-0.075640,1.001864,1.260000,2.100000,-0.980000
17.563137,-0.198128,0.023424,0.933056,1.120000,2.380000,-0.700000
17.571224,-0.165432,0.051240,0.976488,0.000000,-0.980000,-0.560000
17.579311,-0.149328,-0.018544,1.023824,1.400000,-0.700000,-1.120000
17.587399,-0.099552,-0.005856,0.999912,0.840000,0.000000,-0.700000
17.595486,-0.202520,0.051728,1.017968,1.540000,3.080000,-0.840000
17.603573,-0.157624,0.009760,0.964776,-0.140000,0.280000,-0.980000
17.611660,-0.140056,-0.013176,0.980880,2.240000,-0.140000,-0.700000
17.619747,-0.202520,0.032208,1.060424,0.700000,1.120000,-0.420000
17.627834,-0.163968,0.029280,0.942328,-0.140000,0.980000,-1.400000
17.635922,-0.137128,-0.041480,0.996984,1.680000,-0.700000,-0.420000
17.644009,-0.177144,0.053192,1.086776,0.980000,1.120000,-0.840000
17.652096,-0.157136,0.025376,0.945744,0.700000,0.980000,-0.700000
17.660183,-0.122488,-0.027816,1.019432,1.260000,0.980000,-0.700000
17.668270,-0.185440,0.014640,0.989664,0.420000,2.380000,-1.400000
17.676357,-0.183000,0.030744,0.946232,1.260000,1.400000,-0.420000
17.684445,-0.156648,-0.004880,1.038952,0.980000,0.280000,-1.120000
17.692532,-0.157624,0.009760,0.954528,0.000000,0.980000,-0.840000
17.700619,-0.152744,0.013664,1.071648,1.680000,1.680000,-0.700000
17.708706,-0.216184,0.002928,0.933544,0.560000,3.360000,-1.400000
17.716793,-0.126880,-0.010248,0.949648,0.000000,-0.280000,-0.280000
17.724880,-0.170312,-0.004880,1.060424,2.660000,0.420000,-0.980000
17.732968,-0.196664,0.040016,0.931104,-0.280000,0.420000,-0.840000
17.741055,-0.106384,-0.028304,1.110200,1.120000,0.700000,0.000000
17.749142,-0.148840,0.052704,0.969656,2.380000,1.680000,-1.540000
17.757229,-0.177632,0.032696,0.869128,-1.120000,1.680000,-0.560000
17.765316,-0.201056,-0.034648,0.996008,2.660000,-2.240000,-1.120000
17.773403,-0.150792,0.020008,1.007232,0.140000,-1.680000,-0.420000
17.781491,-0.132248,0.021472,1.089216,-0.420000,2.520000,-0.560000
17.789578,-0.186904,0.006832,0.903776,2.520000,0.420000,-1.400000
17.797665,-0.159088,-0.000488,1.028704,0.000000,-1.400000,-0.140000
17.805752,-0.192760,0.004392,1.029192,1.120000,1.400000,-1.400000
17.813839,-0.192760,0.035136,0.950136,1.120000,-0.700000,-0.560000
17.821926,-0.112240,0.009272,1.019920,-0.140000,-1.960000,-0.840000
17.830014,-0.124440,-0.007320,1.031632,1.960000,0.000000,-0.700000
17.838101,-0.216184,0.030256,0.975024,0.700000,2.940000,-0.560000
17.846188,-0.174216,-0.009272,0.978928,0.560000,0.000000,-1.260000
17.854275,-0.113704,0.007320,1.002840,-0.560000,-0.140000,-0.140000
17.862362,-0.162992,-0.000976,1.016992,3.360000,1.120000,-1.260000
17.870450,-0.197152,0.037088,0.942328,-0.980000,1.400000,-0.840000
17.878537,-0.106872,-0.040016,1.009672,1.120000,0.980000,-0.700000
17.886624,-0.213256,0.032208,0.977464,1.820000,1.400000,-0.980000
17.894711,-0.159576,0.041968,0.989176,-0.700000,-0.420000,-0.420000
17.902798,-0.124928,-0.047336,1.071160,2.660000,0.700000,-1.120000
17.910885,-0.155672,0.054656,0.971608,-0.980000,3.500000,-0.560000
17.918973,-0.212768,0.000000,0.905240,2.520000,2.240000,-0.980000
17.927060,-0.208376,0.023912,0.994544,0.000000,-3.500000,-0.700000
17.935147,-0.104432,-0.026352,1.019432,0.420000,-0.840000,-0.840000
17.943234,-0.196176,0.026840,0.979416,1.680000,0.840000,-0.840000
17.951321,-0.137128,0.029768,1.007232,0.280000,-2.240000,-0.420000
17.959408,-0.126880,-0.026840,1.077504,2.380000,0.280000,-1.260000
17.967496,-0.212280,0.038552,0.955992,-0.840000,2.380000,-0.700000
17.975583,-0.135176,0.000976,1.021384,2.660000,-0.280000,-1.120000
17.983670,-0.180560,-0.007320,0.940376,-0.140000,0.000000,-0.840000
17.991757,-0.171776,0.026352,0.990640,0.140000,-0.420000,-0.420000
17.999844,-0.173728,0.017568,0.976488,3.220000,-4.060000,-1.400000
18.007931,-0.107360,-0.005856,1.058472,-0.700000,-2.240000,0.140000
18.016019,-0.152256,-0.019520,1.017480,2.520000,2.520000,-0.840000
18.024106,-0.236680,0.042456,0.892064,-0.280000,2.240000,-1.120000
18.032193,-0.121512,0.019032,1.009672,-0.280000,-3.220000,-0.560000
18.040280,-0.129320,-0.027816,1.032608,2.520000,-1.680000,-0.980000
18.048367,-0.173240,0.069296,1.000400,-0.700000,-0.140000,-0.560000
18.056454,-0.150792,-0.031232,1.011624,2.660000,-0.280000,-0.840000
18.064542,-0.173728,-0.000488,0.954040,0.560000,0.280000,-0.280000
18.072629,-0.161528,0.042944,1.002352,0.560000,0.420000,-1.400000
18.080716,-0.179584,0.027816,0.934032,1.260000,-1.400000,-0.700000
18.088803,-0.138104,-0.050264,1.087264,-0.840000,-1.120000,-0.700000
18.096890,-0.152744,0.023424,0.978440,2.100000,1.680000,-1.260000
18.104978,-0.162992,0.052216,0.976976,0.840000,0.000000,-0.280000
18.113065,-0.149816,-0.042456,1.039440,0.420000,0.140000,-1.120000
18.121152,-0.148352,0.028792,0.975512,1.680000,1.680000,-0.840000
18.129239,-0.170312,0.033184,1.018456,1.260000,0.700000,-0.700000
18.137326,-0.174216,0.011224,1.018944,-0.420000,0.420000,-0.840000
18.145413,-0.141032,-0.001952,0.991128,2.660000,0.140000,-0.560000
18.153501,-0.238632,0.033672,0.977464,0.420000,0.980000,-0.980000
18.161588,-0.119072,0.002440,0.959896,0.280000,-1.260000,-0.980000
18.169675,-0.145912,-0.040992,1.018456,1.400000,-0.980000,-0.420000
18.177762,-0.167384,0.053192,1.028704,0.700000,0.980000,-0.980000
18.185849,-0.142008,0.018544,0.979904,1.540000,0.000000,-0.980000
18.193936,-0.175680,-0.021960,1.014552,0.140000,0.420000,-0.840000
18.202024,-0.139080,0.012688,0.944768,1.120000,0.420000,-0.560000
18.210111,-0.173728,0.021960,0.998936,1.400000,-0.140000,-0.840000
18.218198,-0.159088,-0.014152,0.970144,-0.700000,-0.980000,-0.700000
18.226285,-0.145912,0.009272,1.067744,2.940000,1.260000,-0.700000
18.234372,-0.200568,0.055632,0.974048,-0.980000,1.540000,-0.980000
18.242459,-0.136152,-0.034160,0.914512,0.980000,-1.400000,-0.560000
18.250547,-0.143472,0.005856,1.001376,1.260000,-1.540000,-0.560000
18.258634,-0.160552,0.039040,1.037976,0.980000,0.420000,-1.260000
18.266721,-0.148840,0.018056,0.997472,0.140000,-0.420000,-0.420000
18.274808,-0.167384,-0.023912,1.025776,2.380000,-0.140000,-0.980000
18.282895,-0.216184,0.040016,0.971120,0.280000,0.280000,-0.840000
18.290982,-0.131272,0.017568,1.035536,1.120000,-0.980000,-0.700000
18.299070,-0.146888,-0.011224,0.944280,0.420000,-0.980000,-1.120000
18.307157,-0.165920,0.005368,1.007232,0.980000,-0.840000,-0.420000
18.315244,-0.153232,0.023424,1.016992,1.120000,-0.980000,-0.980000
18.323331,-0.127856,-0.006832,0.939888,0.280000,-0.560000,-0.700000
18.331418,-0.136640,-0.019520,1.055056,1.540000,0.280000,-0.700000
18.339506,-0.215208,0.062952,0.943304,1.120000,0.980000,-1.260000
18.347593,-0.140544,0.014640,0.970144,-0.140000,-1.680000,-0.280000
18.355680,-0.120536,-0.019520,1.049688,1.120000,-1.400000,-1.260000
18.363767,-0.168360,0.027816,0.992104,1.680000,-0.140000,-0.700000
18.371854,-0.141032,0.002440,1.030656,0.000000,0.840000,-0.140000
18.379941,-0.131760,-0.007320,0.974536,1.680000,0.280000,-1.400000
18.388029,-0.184464,0.033672,1.016992,1.680000,0.420000,-0.420000
18.396116,-0.218136,0.033672,1.007720,0.280000,0.980000,-0.980000
18.404203,-0.187880,-0.021960,0.927688,1.260000,-0.420000,-1.260000
18.412290,-0.123464,-0.008784,0.972584,0.140000,-3.500000,-0.140000
18.420377,-0.125416,0.011224,1.088240,1.120000,0.420000,-1.120000
18.428464,-0.164456,0.022936,0.948184,0.840000,0.700000,-0.840000
18.436552,-0.090280,-0.008784,1.016992,0.980000,-0.840000,-0.560000
18.444639,-0.205448,0.042456,1.037488,2.240000,1.820000,-0.700000
18.452726,-0.184464,0.023424,1.003816,-0.840000,1.960000,-0.980000
18.460813,-0.116144,-0.043920,0.903776,2.240000,-0.980000,-0.700000
18.468900,-0.140544,0.045384,1.058960,0.420000,-0.140000,-0.280000
18.476987,-0.167872,0.015128,0.969168,0.700000,1.400000,-1.820000
18.485075,-0.178120,-0.017080,0.972584,0.700000,-0.560000,-0.420000
18.493162,-0.109312,0.004880,1.053104,0.840000,-0.700000,-0.560000
18.501249,-0.210328,0.044408,0.976000,2.240000,1.680000,-0.560000
18.509336,-0.154696,0.015616,0.995520,-0.560000,0.560000,-0.840000
18.517423,-0.098088,-0.021960,0.989176,1.540000,-0.980000,-1.120000
18.525510,-0.197152,0.002440,1.008208,1.540000,1.120000,-0.420000
18.533598,-0.195688,0.030744,0.972096,-0.280000,1.120000,-0.980000
18.541685,-0.133712,-0.014152,1.016016,1.820000,-0.980000,-1.120000
18.549772,-0.132736,0.029280,1.047248,-0.700000,1.120000,-0.700000
18.557859,-0.172264,0.009760,0.950624,1.820000,1.960000,-0.980000
18.565946,-0.178608,0.004392,0.946232,1.680000,-1.120000,-0.280000
18.574033,-0.105896,0.003904,1.079456,-0.840000,-0.840000,-0.560000
18.582121,-0.182024,0.007320,0.984784,2.520000,3.360000,-1.540000
18.590208,-0.155672,0.008784,0.985760,0.140000,-0.140000,-1.260000
18.598295,-0.131760,-0.008296,0.959896,1.120000,0.700000,-0.420000
18.606382,-0.179096,0.047824,0.991616,0.420000,0.840000,-0.840000
18.614469,-0.148840,0.020984,0.958432,1.260000,-1.120000,-0.980000
18.622557,-0.117608,-0.020008,1.082872,0.700000,-0.560000,-0.420000
18.630644,-0.154696,0.021960,0.999424,1.120000,0.980000,-0.840000
18.638731,-0.177144,0.028304,0.968680,1.680000,0.980000,-0.840000
18.646818,-0.136152,-0.005368,1.044320,0.000000,0.000000,-1.260000
18.654905,-0.161528,-0.017080,0.973072,1.120000,1.540000,-0.280000
18.662992,-0.210328,0.053680,1.010160,0.980000,2.240000,-0.700000
18.671080,-0.132736,-0.007808,0.988200,0.840000,-0.420000,-0.840000
18.679167,-0.146400,-0.007320,1.027728,0.840000,0.840000,-0.560000
18.687254,-0.175680,0.028304,0.951600,0.000000,1.820000,-1.120000
18.695341,-0.165432,-0.006832,0.955016,2.520000,-0.840000,-0.840000
18.703428,-0.102480,0.007808,1.050176,-1.120000,-1.680000,-0.280000
18.711515,-0.202520,0.011712,0.972584,2.520000,4.200000,-1.540000
18.719603,-0.196176,0.004880,0.929640,0.280000,-0.140000,-1.120000
18.727690,-0.074176,-0.006344,1.070184,-1.540000,-1.400000,-0.140000
18.735777,-0.134200,0.019032,1.030656,3.500000,2.800000,-0.840000
18.743864,-0.191296,0.051240,0.960384,-0.140000,1.820000,-1.260000
18.751951,-0.138104,-0.036600,0.978928,1.680000,0.280000,-0.420000
18.760038,-0.181048,0.009272,1.041392,1.260000,2.800000,-0.560000
18.768126,-0.167384,0.052704,0.950624,-0.280000,2.100000,-0.840000
18.776213,-0.121512,-0.008784,1.076528,1.820000,1.540000,-1.400000
18.784300,-0.142984,0.003904,0.991616,-0.980000,2.520000,-0.700000
18.792387,-0.197152,-0.002440,0.944768,2.800000,2.800000,-0.840000
18.800474,-0.171288,0.040504,1.019432,0.700000,0.560000,-0.560000
18.808561,-0.093696,-0.002928,1.013088,0.420000,1.540000,-0.980000
18.816649,-0.192272,0.008296,0.984296,1.960000,2.940000,-1.120000
18.824736,-0.166408,0.008296,0.955504,0.840000,0.280000,-0.700000
18.832823,-0.115656,-0.015128,1.065304,1.540000,1.960000,-0.420000
18.840910,-0.173728,0.045384,1.006744,-0.140000,4.620000,-1.400000
18.848997,-0.163968,-0.000488,0.886696,1.540000,1.120000,-0.840000
18.857085,-0.125904,-0.003904,1.085800,1.260000,0.560000,-0.420000
18.865172,-0.183000,0.012688,0.986248,0.280000,4.760000,-1.400000
18.873259,-0.202520,0.026840,0.957456,1.400000,2.940000,-0.840000
18.881346,-0.101504,-0.028304,1.078480,-0.700000,2.100000,-0.560000
18.889433,-0.149328,0.026352,0.964288,2.100000,4.900000,-1.120000
18.897520,-0.207888,0.030744,0.956968,1.400000,2.800000,-0.420000
18.905608,-0.150304,-0.021472,1.038464,0.420000,2.380000,-1.260000
18.913695,-0.108336,-0.002928,0.924760,0.980000,3.640000,-0.420000
18.921782,-0.184464,0.041968,1.050664,1.260000,3.500000,-0.840000
18.929869,-0.183488,0.018544,0.932080,0.840000,2.660000,-1.680000
18.937956,-0.124440,-0.035136,1.011136,0.840000,2.520000,-0.140000
18.946043,-0.217648,0.035136,1.023336,1.400000,4.340000,-1.400000
18.954131,-0.180072,0.045384,0.955016,1.260000,2.380000,-0.420000
18.962218,-0.114680,-0.023912,1.085312,-0.280000,1.820000,-0.560000
18.970305,-0.186416,-0.001464,0.924272,1.680000,4.340000,-1.540000
18.978392,-0.210816,0.032208,1.010160,1.540000,1.820000,-0.420000
18.986479,-0.150304,0.008784,1.030656,-0.280000,1.960000,-0.980000
18.994566,-0.134200,-0.000976,0.958920,2.660000,2.380000,-0.840000
19.002654,-0.198128,0.048312,1.031632,0.000000,3.220000,-1.120000
19.010741,-0.136640,-0.036600,0.955016,0.560000,0.840000,-0.560000
19.018828,-0.141032,0.005856,1.003816,1.960000,2.380000,-0.560000
19.026915,-0.187392,0.037576,1.024312,0.280000,3.780000,-1.540000
19.035002,-0.149328,0.009272,0.971120,1.120000,2.240000,-0.840000
19.043090,-0.155672,-0.034160,0.961848,0.840000,1.960000,-0.560000
19.051177,-0.203008,0.021472,0.981856,1.400000,3.500000,-1.120000
19.059264,-0.132736,0.063440,0.990152,-0.420000,0.700000,-0.560000
19.067351,-0.146400,-0.054168,1.028704,2.100000,1.820000,-0.840000
19.075438,-0.219112,0.017568,0.988688,0.980000,3.500000,-0.980000
19.083525,-0.130784,0.047336,1.015528,0.280000,3.080000,-0.420000
19.091613,-0.170800,-0.025864,0.972096,1.540000,2.940000,-1.120000
19.099700,-0.178608,0.009760,1.024312,0.280000,4.060000,-0.840000
19.107787,-0.157136,0.042944,0.961848,1.960000,3.220000,-0.980000
19.115874,-0.175680,0.010248,0.961360,0.840000,1.680000,-0.140000
19.123961,-0.147864,-0.014152,1.038952,0.420000,2.380000,-0.980000
19.132048,-0.172264,0.024888,1.016504,2.660000,4.060000,-1.120000
19.140136,-0.204960,0.011712,0.966728,-0.980000,4.340000,-0.700000
19.148223,-0.148352,-0.020008,0.971120,0.980000,1.540000,-1.400000
19.156310,-0.170800,0.020984,1.021384,2.240000,2.940000,-0.280000
19.164397,-0.187880,0.056120,1.068720,-0.560000,4.060000,-0.980000
19.172484,-0.148352,-0.007808,0.909632,2.240000,3.780000,-1.120000
19.180571,-0.199104,-0.011224,1.036024,1.400000,2.100000,-0.140000
19.188659,-0.182024,0.032208,1.015040,0.000000,4.340000,-1.120000
19.196746,-0.145912,0.000000,0.956480,1.400000,2.800000,-0.700000
19.204833,-0.152256,-0.008784,1.030656,-0.140000,2.660000,-0.840000
19.212920,-0.210816,0.025376,0.949648,2.380000,4.480000,-1.400000
19.221007,-0.199592,0.004880,0.953552,0.280000,2.800000,-0.420000
19.229095,-0.147376,-0.008784,0.997472,0.560000,0.280000,-1.260000
19.237182,-0.135664,0.010736,1.039928,1.540000,3.080000,-0.560000
19.245269,-0.186904,0.021960,0.971120,0.280000,1.820000,-0.420000
19.253356,-0.177144,-0.012200,0.962824,1.960000,2.520000,-0.980000
19.261443,-0.164944,0.039528,1.069696,0.140000,3.360000,-0.980000
19.269530,-0.193248,0.018544,0.974048,1.120000,4.200000,-0.980000
19.277618,-0.216672,-0.001464,0.933544,0.840000,3.080000,-0.840000
19.285705,-0.128344,0.007320,1.021872,0.700000,0.000000,-0.420000
19.293792,-0.187392,0.031232,1.022360,0.840000,3.220000,-0.980000
19.301879,-0.201056,0.020008,0.969168,1.820000,2.520000,-0.980000
19.309966,-0.141520,-0.030744,0.998936,0.420000,0.700000,-0.560000
19.318053,-0.168848,0.034160,1.035536,0.980000,3.640000,-0.840000
19.326141,-0.208376,-0.007808,0.952088,0.560000,4.200000,-0.840000
19.334228,-0.151280,0.006344,0.955016,0.700000,1.260000,-1.260000
19.342315,-0.132736,0.006344,1.000888,1.540000,1.960000,-0.980000
19.350402,-0.241560,0.042944,0.953064,0.980000,1.400000,-0.980000
19.358489,-0.178608,-0.021960,0.978440,1.540000,-0.140000,-0.700000
19.366576,-0.168848,0.034648,0.994544,0.140000,-1.260000,-0.280000
19.374664,-0.186416,0.011712,1.057984,1.120000,1.540000,-1.120000
19.382751,-0.193248,0.004392,0.932568,0.840000,0.700000,-1.120000
19.390838,-0.126880,0.005368,1.016016,0.700000,-0.560000,-0.280000
19.398925,-0.190320,-0.001952,1.042368,1.680000,2.100000,-0.560000
19.407012,-0.232288,0.033672,0.942328,-0.700000,2.660000,-1.120000
19.415100,-0.138104,-0.016104,1.015528,2.240000,-0.980000,-0.980000
19.423187,-0.194712,0.026352,1.027240,-0.280000,0.700000,-0.700000
19.431274,-0.195688,0.011712,0.935984,0.980000,1.400000,-0.840000
19.439361,-0.173240,-0.005368,1.012112,2.100000,-0.280000,-0.560000
19.447448,-0.130784,0.013664,0.995032,-0.840000,-0.140000,-0.840000
19.455535,-0.187880,0.022448,1.003328,1.960000,3.360000,-1.400000
19.463623,-0.235216,-0.024400,0.880352,-0.140000,0.280000,-1.260000
19.471710,-0.101504,0.015616,1.020408,0.840000,-2.520000,-0.280000
19.479797,-0.162992,0.020984,1.036512,1.260000,0.280000,-0.560000
19.487884,-0.190808,0.030256,0.954528,1.120000,0.280000,-1.260000
19.495971,-0.175192,-0.001952,0.990640,2.520000,-2.100000,-0.700000
19.504058,-0.196664,0.027328,1.059936,-0.980000,1.960000,-0.700000
19.512146,-0.206912,-0.002440,0.918416,1.120000,0.140000,-1.260000
19.520233,-0.153232,-0.007808,1.023824,1.400000,-3.220000,0.000000
19.528320,-0.137128,0.044408,1.083848,-0.280000,1.540000,-1.260000
19.536407,-0.218624,0.016592,0.916952,3.080000,2.800000,-1.260000
19.544494,-0.197152,-0.000976,1.012600,-0.280000,-1.120000,-0.560000
19.552581,-0.133712,-0.004392,1.018456,0.420000,1.680000,-0.560000
19.560669,-0.198128,0.020008,0.996496,2.100000,2.520000,-0.980000
19.568756,-0.217648,0.021960,0.938912,-0.560000,0.140000,-1.120000
19.576843,-0.119560,-0.033672,1.019432,1.120000,-0.140000,-0.420000
19.584930,-0.205448,0.028792,0.977464,1.260000,1.680000,-1.260000
19.593017,-0.206424,0.023912,0.944280,0.980000,0.000000,-0.840000
19.601105,-0.132248,-0.022448,1.050664,0.420000,-1.680000,-0.420000
19.609192,-0.166896,0.009760,0.960384,1.680000,0.980000,-0.700000
19.617279,-0.243024,0.035136,0.943304,0.420000,0.840000,-0.980000
19.625366,-0.125416,-0.002440,0.997472,1.400000,-2.940000,-0.980000
19.633453,-0.153720,0.018056,1.086288,0.140000,-0.280000,-0.420000
19.641540,-0.226920,0.028304,0.973560,1.960000,1.960000,-1.540000
19.649628,-0.181048,0.002440,0.952576,0.700000,-1.540000,-0.280000
19.657715,-0.118584,-0.011712,1.037976,0.000000,-0.420000,-0.560000
19.665802,-0.210328,0.024888,0.941840,2.100000,2.520000,-1.400000
19.673889,-0.193248,0.024888,1.040416,0.000000,-1.120000,-0.560000
19.681976,-0.118096,-0.028792,1.004304,1.120000,0.000000,-0.840000
19.690063,-0.209840,0.030744,0.948672,1.960000,0.840000,-0.420000
19.698151,-0.214232,0.021472,1.043344,0.420000,0.560000,-1.400000
19.706238,-0.144448,-0.010248,0.957944,0.000000,-1.120000,-0.560000
19.714325,-0.127856,-0.001952,1.055056,1.400000,1.540000,-0.560000
19.722412,-0.263520,0.040504,0.948184,0.980000,3.360000,-1.540000
19.730499,-0.168360,-0.005368,0.920856,0.140000,-1.260000,-0.420000
19.738586,-0.125416,-0.027328,1.075552,0.700000,-0.280000,-0.560000
19.746674,-0.205448,0.051240,0.918416,1.540000,1.820000,-1.400000
19.754761,-0.167872,0.011224,0.964288,0.280000,-2.520000,-0.280000
19.762848,-0.157136,-0.040016,1.058472,1.120000,-1.120000,-0.840000
19.770935,-0.171288,0.067344,0.952576,0.840000,0.840000,-0.980000
19.779022,-0.176168,0.017568,1.028704,1.120000,-0.980000,-0.980000
19.787109,-0.179096,-0.044408,0.954528,0.420000,-0.280000,-0.700000
19.795197,-0.162016,0.039528,1.035048,1.260000,0.140000,-0.560000
19.803284,-0.209352,0.033184,0.978440,1.260000,-0.280000,-0.840000
19.811371,-0.151280,-0.019520,1.034560,-0.700000,-0.140000,-0.560000
19.819458,-0.161040,0.012200,0.980392,2.660000,1.260000,-1.120000
19.827545,-0.209352,0.030744,0.964288,0.420000,0.140000,-0.420000
19.835633,-0.168848,-0.000488,0.994544,-0.140000,0.280000,-1.120000
19.843720,-0.134688,-0.020496,0.950136,2.240000,-0.840000,-0.840000
19.851807,-0.209840,0.051240,1.076040,-0.560000,1.820000,-0.560000
19.859894,-0.176656,-0.007320,0.953064,1.120000,0.280000,-1.260000
19.867981,-0.162992,0.008296,1.008696,1.400000,-1.260000,-0.140000
19.876068,-0.175680,0.021472,1.059448,0.280000,2.240000,-0.980000
19.884156,-0.191784,0.009272,0.940864,1.400000,1.820000,-0.840000
19.892243,-0.167872,-0.000488,0.994544,-0.280000,-0.280000,-0.280000
19.900330,-0.140056,0.006344,1.008696,2.240000,0.560000,-1.680000
19.908417,-0.239120,0.013664,0.916952,0.560000,0.840000,-0.280000
19.916504,-0.150792,-0.009272,1.023336,-0.140000,-2.240000,-0.700000
19.924591,-0.152744,-0.010736,0.958920,2.660000,0.560000,-0.980000
19.932679,-0.182024,0.062952,1.041880,-0.840000,0.840000,-0.560000
19.940766,-0.172752,-0.020008,0.962336,1.260000,0.000000,-1.120000
19.948853,-0.141520,-0.007320,0.984784,1.680000,-1.540000,-0.280000
19.956940,-0.188856,0.037576,1.050176,1.120000,1.400000,-0.840000
19.965027,-0.196664,0.026840,0.935984,0.140000,0.840000,-1.120000
19.973115,-0.150792,-0.031232,1.006744,1.400000,-0.840000,-0.420000
19.981202,-0.173728,0.041480,1.020408,0.980000,-0.420000,-1.120000
19.989289,-0.176168,0.027816,0.950136,0.840000,0.700000,-0.700000
19.997376,-0.189344,-0.028792,1.001864,0.840000,-0.560000,-0.840000
20.005463,-0.141032,0.014640,1.022360,0.700000,-0.280000,-0.560000
20.013550,-0.193248,0.043432,0.986248,1.540000,0.980000,-0.420000
20.021638,-0.199592,-0.011712,0.970632,-0.140000,0.000000,-1.260000
20.029725,-0.153720,0.001952,1.010160,0.700000,-0.700000,-0.980000
20.037812,-0.182024,0.031232,1.022360,1.820000,0.840000,-0.420000
20.045899,-0.217160,0.028792,0.972584,0.840000,0.840000,-1.260000
20.053986,-0.123464,0.003904,0.987224,0.140000,-3.220000,-0.700000
20.062073,-0.176168,-0.002440,1.067744,2.240000,0.700000,-0.280000
20.070161,-0.217160,0.033672,0.958920,0.000000,1.260000,-1.260000
20.078248,-0.132736,-0.018544,0.984784,1.120000,-1.540000,-0.840000
20.086335,-0.169336,0.009760,1.045784,1.120000,0.560000,-0.420000
