Time [s],lsm6dsv16x_acc_x [g],lsm6dsv16x_acc_y [g],lsm6dsv16x_acc_z [g],lsm6dsv16x_gyro_x [dps],lsm6dsv16x_gyro_y [dps],lsm6dsv16x_gyro_z [dps]
39.164015,-0.062464,0.037576,1.041392,1.540000,1.960000,-1.400000
39.172102,-0.153232,0.020984,0.945256,1.120000,1.540000,-0.560000
39.180189,-0.023424,-0.038552,1.024800,0.560000,-0.420000,-0.840000
39.188276,-0.010736,0.015616,0.981368,1.820000,1.260000,-0.560000
39.196363,-0.081008,0.027328,1.017968,-0.840000,4.200000,-0.840000
39.204451,-0.081496,-0.004880,0.942816,1.680000,1.540000,-1.260000
39.212538,-0.069296,0.026840,1.043832,-0.700000,-0.700000,-0.140000
39.220625,-0.060512,0.002440,1.077992,2.380000,1.400000,-1.540000
39.228712,-0.121512,0.041480,0.990152,0.840000,1.400000,-0.560000
39.236799,-0.043432,-0.035136,1.050664,1.400000,0.280000,-0.420000
39.244887,-0.041968,0.024400,0.966728,1.260000,0.980000,-1.120000
39.252974,-0.076616,0.014152,0.983320,0.280000,2.380000,-0.980000
39.261061,-0.041480,-0.010736,0.926712,0.840000,-0.420000,-0.980000
39.269148,-0.056608,0.015128,1.070184,1.120000,-1.260000,-0.700000
39.277235,-0.085400,0.015616,0.995032,1.400000,2.240000,-1.120000
39.285322,-0.088328,0.027328,1.006744,0.000000,0.000000,-0.560000
39.293410,-0.019032,-0.008784,1.024312,1.540000,-0.280000,-1.120000
39.301497,-0.082960,0.023424,1.085800,0.700000,3.080000,-0.420000
39.309584,-0.090768,0.014640,0.972584,0.560000,2.800000,-0.840000
39.317671,-0.048800,0.007808,1.011136,2.100000,1.540000,-0.560000
39.325758,-0.069296,-0.005368,1.073112,-0.980000,3.080000,-0.700000
39.333846,-0.102480,0.021960,0.942816,1.960000,4.480000,-1.260000
39.341933,-0.070760,-0.004392,0.969168,0.700000,0.840000,-0.700000
39.350020,-0.006344,-0.011224,1.064328,0.140000,0.140000,-0.700000
39.358107,-0.061976,0.013664,1.023336,1.400000,5.600000,-0.840000
39.366194,-0.071736,0.015128,0.892552,1.680000,2.940000,-1.540000
39.374282,-0.036112,0.000488,1.036512,-0.420000,1.400000,-0.420000
39.382369,-0.075640,0.001952,1.013088,2.100000,4.060000,-1.260000
39.390456,-0.109312,0.055632,1.001376,-0.280000,3.640000,-0.280000
39.398543,-0.052216,-0.011224,1.033584,1.540000,2.660000,-0.840000
39.406630,-0.063440,0.013176,1.073112,0.700000,4.060000,-0.980000
39.414718,-0.080032,0.017568,0.996496,0.420000,4.900000,-0.420000
39.422805,-0.103456,0.030744,1.010648,2.240000,3.500000,-1.260000
39.430892,-0.056608,-0.025864,0.987224,0.700000,1.120000,-0.560000
39.438979,-0.042944,-0.009272,1.115568,0.000000,5.880000,0.000000
39.447066,-0.062464,0.026840,0.864736,2.800000,5.180000,-1.960000
39.455154,-0.098576,0.008296,0.917928,0.000000,1.400000,-0.560000
39.463241,-0.096136,-0.008296,1.032120,0.140000,1.540000,-1.260000
39.471328,-0.058072,0.041480,1.011624,2.380000,0.840000,-1.260000
39.479415,-0.033184,0.032208,1.040904,-0.420000,1.260000,0.140000
39.487502,-0.036112,-0.035624,1.097024,1.960000,4.480000,-0.980000
39.495590,-0.138104,0.044408,1.006744,0.980000,6.860000,-0.840000
39.503677,-0.092232,0.031232,1.029192,0.840000,5.460000,-0.700000
39.511764,-0.064904,-0.025376,0.944280,0.420000,3.780000,-1.120000
39.519851,-0.040992,-0.020008,0.984296,1.540000,3.500000,-0.840000
39.527938,-0.079544,0.025376,0.956968,1.120000,4.340000,-0.840000
39.536026,-0.080032,0.026840,1.012600,0.000000,3.640000,-1.120000
39.544113,-0.063440,-0.023424,1.005768,1.820000,3.780000,-0.840000
39.552200,-0.135664,0.037576,1.057984,-0.280000,4.760000,-1.120000
39.560287,-0.104920,0.018544,1.016016,1.540000,5.460000,-0.560000
39.568374,-0.037576,0.008784,1.016992,-0.140000,3.920000,-0.140000
39.576462,-0.059536,-0.006832,0.981368,2.660000,3.920000,-1.260000
39.584549,-0.110288,0.028792,0.959896,0.700000,3.640000,-0.700000
39.592636,-0.075152,-0.020984,1.009672,0.980000,2.660000,-0.980000
39.600723,-0.049288,-0.008296,0.995032,0.560000,2.380000,-0.840000
39.608810,-0.074664,0.040992,1.080432,1.540000,5.180000,-1.120000
39.616898,-0.094184,0.016592,0.970144,0.420000,3.360000,-0.420000
39.624985,-0.064904,-0.029280,1.029680,1.820000,3.780000,-0.840000
39.633072,-0.094184,0.044896,0.987224,0.560000,5.040000,-0.980000
39.641159,-0.096136,0.027816,1.045296,0.980000,4.480000,-1.260000
39.649246,-0.096136,0.002440,0.974536,1.260000,2.940000,-0.700000
39.657334,-0.082472,-0.018544,1.046272,0.840000,2.240000,-0.420000
39.665421,-0.113216,0.041968,0.973560,1.680000,5.460000,-1.260000
39.673508,-0.053192,0.009272,1.012600,-0.140000,2.520000,-0.560000
39.681595,-0.062464,-0.016592,0.991616,2.380000,3.500000,-1.540000
39.689682,-0.130296,0.013664,1.005280,1.120000,4.480000,-0.420000
39.697770,-0.066856,0.020984,1.016504,-0.840000,3.500000,-1.120000
39.705857,-0.044408,-0.040992,1.000888,2.660000,4.200000,-1.400000
39.713944,-0.096624,0.047824,0.994544,-0.140000,5.600000,-0.560000
39.722031,-0.087352,0.019032,0.995032,1.820000,4.900000,-0.980000
39.730118,-0.095160,-0.000488,1.008696,0.420000,5.180000,-0.980000
39.738206,-0.066856,0.004880,1.027728,-0.140000,4.900000,-0.840000
39.746293,-0.103944,0.033672,1.015040,3.220000,4.900000,-0.560000
39.754380,-0.086864,0.028304,0.996008,-0.420000,3.780000,-0.560000
39.762467,-0.101504,-0.047336,1.026752,2.380000,6.020000,-1.400000
39.770554,-0.129808,0.041968,0.975512,0.000000,4.900000,-0.420000
39.778642,-0.086376,-0.006832,0.972096,1.260000,4.340000,-1.260000
39.786729,-0.093696,-0.022448,0.954040,1.260000,2.100000,-1.120000
39.794816,-0.046360,0.002440,1.081408,-0.280000,5.880000,-0.420000
39.802903,-0.084424,0.059048,0.976488,1.400000,5.460000,-1.540000
39.810990,-0.107360,0.010248,0.982832,0.980000,3.080000,-0.700000
39.819078,-0.076616,-0.023424,1.026264,1.400000,3.360000,-0.420000
39.827165,-0.128344,0.040992,1.031144,2.100000,5.600000,-1.120000
39.835252,-0.108824,0.036112,0.989664,-1.260000,4.060000,-0.420000
39.843339,-0.110288,-0.029768,1.020408,2.380000,2.800000,-1.540000
39.851426,-0.115168,0.012200,0.988200,0.840000,4.340000,-0.560000
39.859514,-0.059048,0.034648,1.058472,0.140000,4.760000,-0.840000
39.867601,-0.103456,-0.019520,0.899384,2.100000,3.920000,-1.120000
39.875688,-0.077592,-0.003416,1.003328,-0.140000,2.380000,-0.140000
39.883775,-0.105896,0.012688,0.992104,3.220000,4.200000,-1.960000
39.891862,-0.137128,0.052704,0.963312,-1.820000,2.660000,-0.280000
39.899950,-0.073688,-0.021472,1.097512,2.100000,1.960000,-1.120000
39.908037,-0.141520,0.061976,1.019432,1.260000,2.940000,-1.400000
39.916124,-0.091256,0.011224,1.030168,0.700000,2.660000,-0.980000
39.924211,-0.067832,-0.020496,0.996984,1.400000,2.240000,-1.260000
39.932298,-0.097600,-0.006832,0.971608,2.100000,3.220000,-0.840000
39.940386,-0.108824,0.008296,0.985272,-0.840000,4.760000,-0.980000
39.948473,-0.097600,0.000000,0.948184,2.100000,3.360000,-1.400000
39.956560,-0.087840,0.015128,0.966240,-0.700000,1.260000,-0.560000
39.964647,-0.102480,0.003416,1.047248,1.960000,1.540000,-0.980000
39.972734,-0.125416,0.047824,0.997960,0.140000,2.380000,-0.560000
39.980822,-0.094672,-0.008784,1.013088,1.260000,2.240000,-1.540000
39.988909,-0.077104,0.010248,1.056520,0.000000,2.380000,-0.560000
39.996996,-0.133224,0.013664,0.961848,1.680000,3.500000,-0.560000
40.005083,-0.148352,0.022936,0.979416,0.280000,0.700000,-0.700000
40.013170,-0.059048,-0.010736,1.023336,1.260000,0.420000,-0.840000
40.021258,-0.101504,0.020984,1.060424,1.260000,2.380000,-0.560000
40.029345,-0.118096,0.004880,0.977464,0.420000,3.220000,-0.980000
40.037432,-0.069296,-0.020008,1.027728,2.100000,2.940000,-0.980000
40.045519,-0.114192,0.026352,0.993080,-0.420000,4.340000,-0.840000
40.053606,-0.102968,-0.000976,0.937448,1.400000,3.080000,-0.980000
40.061694,-0.119072,0.018544,0.933544,1.540000,0.560000,-1.260000
40.069781,-0.078568,0.011712,1.045296,-0.280000,0.420000,-0.280000
40.077868,-0.089304,0.016592,1.022360,1.540000,1.820000,-1.120000
40.085955,-0.154696,0.036600,0.999424,2.380000,2.520000,-1.400000
40.094042,-0.100528,0.006344,1.028704,-1.960000,0.840000,-0.140000
40.102130,-0.080032,-0.026840,1.064328,2.940000,3.360000,-1.400000
40.110217,-0.171776,0.055144,0.924760,0.000000,1.960000,-0.420000
40.118304,-0.081496,0.003904,1.008696,1.820000,-0.700000,-0.840000
40.126391,-0.073200,-0.005856,0.983320,0.700000,-1.120000,-0.980000
40.134478,-0.086864,-0.014152,1.038464,0.700000,1.960000,-1.120000
40.142566,-0.088328,0.015616,0.904752,1.680000,-0.560000,-0.980000
40.150653,-0.091256,0.018544,1.083848,0.980000,-0.980000,-0.560000
40.158740,-0.130296,0.023424,1.006744,0.280000,2.520000,-0.980000
40.166827,-0.142008,0.034160,1.001376,1.540000,1.680000,-1.260000
40.174914,-0.091256,0.008296,1.004792,-0.140000,-1.260000,-0.560000
40.183002,-0.087352,-0.022448,1.090192,1.820000,2.800000,-0.840000
40.191089,-0.158112,0.035624,0.897432,0.140000,2.940000,-1.400000
40.199176,-0.081496,0.002440,0.980880,1.680000,-1.540000,-0.980000
40.207263,-0.083448,-0.029280,0.993568,0.140000,-0.140000,-0.560000
40.215350,-0.122976,0.016592,1.031144,1.960000,1.260000,-1.400000
40.223438,-0.146400,0.036600,0.937936,-0.280000,-0.280000,-0.140000
40.231525,-0.009760,-0.025864,1.087264,0.980000,-1.400000,-0.840000
40.239612,-0.115656,0.008784,0.991128,1.260000,3.080000,-1.680000
40.247699,-0.142008,0.024400,0.996984,0.560000,3.080000,-0.560000
40.255786,-0.090280,0.020984,1.013088,0.560000,0.560000,-1.260000
40.263874,-0.103944,0.029280,1.011624,1.680000,0.000000,-0.420000
40.271961,-0.138592,0.029768,1.037488,0.700000,1.120000,-0.980000
40.280048,-0.118584,-0.001464,0.985272,2.100000,0.000000,-1.120000
40.288135,-0.094672,0.008296,1.048712,0.280000,-0.140000,-0.560000
40.296222,-0.091744,0.002440,0.979904,0.980000,3.080000,-1.680000
40.304310,-0.099064,0.017568,0.998936,0.980000,1.120000,-0.980000
40.312397,-0.061976,-0.020984,1.064328,0.280000,2.100000,-1.120000
40.320484,-0.125416,0.007320,0.919880,1.820000,4.480000,-0.700000
40.328571,-0.106384,0.031720,0.976000,0.140000,1.540000,-1.260000
40.336658,-0.098576,-0.018056,0.978440,0.420000,0.000000,-0.840000
40.344746,-0.088328,-0.026840,1.044320,1.540000,3.220000,-0.700000
40.352833,-0.169336,0.050752,0.955992,0.840000,2.940000,-1.120000
40.360920,-0.073200,0.005856,1.058472,1.400000,1.680000,-0.840000
40.369007,-0.102968,0.004880,0.957944,-0.420000,3.360000,-1.120000
40.377094,-0.123464,0.031720,0.993080,0.840000,2.940000,-0.980000
40.385182,-0.099552,0.033672,1.060912,1.680000,1.540000,-0.560000
40.393269,-0.077592,-0.016104,1.035048,0.420000,1.820000,-1.120000
40.401356,-0.115656,0.017080,1.046760,2.100000,5.740000,-0.840000
40.409443,-0.148840,0.026840,0.979416,0.560000,4.900000,-1.120000
40.417530,-0.098088,-0.012688,0.976488,0.980000,2.100000,-0.420000
40.425618,-0.099552,0.006832,1.037488,1.540000,3.080000,-0.980000
40.433705,-0.124928,0.023912,0.950624,1.540000,3.640000,-1.260000
40.441792,-0.078568,0.001952,1.001864,-0.420000,1.960000,-0.840000
40.449879,-0.064416,-0.026840,0.981368,2.100000,2.800000,-1.820000
40.457966,-0.160552,0.044408,0.987712,1.260000,4.200000,-1.260000
40.466054,-0.131760,0.015616,0.990152,-0.700000,3.080000,-1.120000
40.474141,-0.069296,-0.025864,1.049200,1.540000,1.260000,-0.700000
40.482228,-0.116144,0.042944,0.976000,0.840000,3.360000,-0.700000
40.490315,-0.119072,0.034160,1.024312,1.260000,3.360000,-0.700000
40.498402,-0.112240,-0.015616,0.955504,0.980000,1.960000,-1.400000
40.506490,-0.133224,0.000976,1.021384,0.980000,2.660000,-0.560000
40.514577,-0.166896,0.056608,1.014064,0.840000,2.660000,-1.120000
40.522664,-0.091744,-0.011712,1.007720,0.980000,1.260000,-1.120000
40.530751,-0.091256,-0.017568,1.051640,-0.420000,2.660000,-0.420000
40.538838,-0.098576,0.038552,0.995032,2.380000,3.920000,-1.260000
40.546926,-0.142496,0.007320,0.944768,1.120000,2.240000,-0.560000
40.555013,-0.099552,-0.039528,0.999424,-1.120000,3.220000,-1.400000
40.563100,-0.111264,0.009760,0.990152,3.500000,3.080000,-0.840000
40.571187,-0.142496,0.069296,1.034560,-1.120000,3.220000,-0.560000
40.579274,-0.110288,-0.038552,0.951600,1.960000,2.100000,-1.540000
40.587362,-0.112240,0.000000,1.039440,0.140000,2.520000,-0.420000
40.595449,-0.135176,0.028304,0.968192,1.400000,3.780000,-1.260000
40.603536,-0.117120,0.045384,0.993080,0.000000,0.840000,-0.560000
40.611623,-0.075640,-0.015128,1.080432,2.100000,0.000000,-0.700000
40.619710,-0.152744,0.044896,0.989176,0.420000,3.220000,-0.980000
40.627798,-0.101992,-0.010736,1.036024,2.100000,1.820000,-1.120000
40.635885,-0.093208,-0.015616,0.994544,0.280000,2.940000,-0.980000
40.643972,-0.117608,0.007320,0.966728,0.980000,3.780000,-0.840000
40.652059,-0.155184,0.019520,0.979416,0.560000,3.360000,-1.400000
40.660146,-0.110776,-0.007320,0.963800,0.420000,1.960000,-0.420000
40.668234,-0.096136,0.013176,1.031632,1.960000,1.400000,-0.980000
40.676321,-0.124440,0.040016,1.008208,0.140000,2.940000,-0.980000
40.684408,-0.104432,-0.007808,1.015528,0.420000,3.640000,-0.980000
40.692495,-0.145424,0.017568,0.961360,1.260000,1.400000,-0.980000
40.700582,-0.134688,0.042944,1.074088,0.980000,1.680000,-0.980000
40.708670,-0.132248,0.020008,0.989176,0.280000,1.820000,-1.260000
40.716757,-0.098088,-0.026352,0.966240,2.800000,1.260000,-1.120000
40.724844,-0.127856,0.015128,1.035536,-0.280000,2.100000,-0.980000
40.732931,-0.127856,0.002928,0.988200,1.400000,2.660000,-1.120000
40.741018,-0.147864,-0.019520,0.951112,1.400000,0.980000,-0.700000
40.749106,-0.052704,0.016104,1.073112,0.140000,0.980000,-0.700000
40.757193,-0.112728,0.019032,1.010648,1.960000,5.600000,-0.980000
40.765280,-0.171288,0.004880,0.947208,-0.140000,4.620000,-0.980000
40.773367,-0.091256,-0.011712,0.946720,0.700000,0.280000,-0.840000
40.781454,-0.101504,0.025864,1.057496,2.240000,2.100000,-0.840000
40.789542,-0.133712,0.022448,0.988688,0.140000,3.080000,-0.840000
40.797629,-0.139080,-0.018544,0.995520,1.400000,3.500000,-0.840000
40.805716,-0.111752,0.024888,0.985760,0.840000,0.980000,-0.840000
40.813803,-0.139080,0.029768,1.018944,0.140000,3.220000,-0.560000
40.821890,-0.151280,0.031232,0.987224,1.680000,1.680000,-1.680000
40.829978,-0.087352,-0.001952,1.022848,0.280000,-1.120000,-0.420000
40.838065,-0.113704,0.012200,1.081408,1.960000,3.640000,-0.840000
40.846152,-0.173728,0.030744,0.932080,0.420000,2.380000,-1.120000
40.854239,-0.132248,-0.008296,1.027728,1.540000,1.260000,-1.400000
40.862326,-0.078080,-0.016104,1.008208,0.000000,2.800000,-1.680000
40.870414,-0.133712,0.016104,0.994056,1.260000,4.060000,-0.840000
40.878501,-0.142008,0.000976,0.992592,1.120000,3.500000,-0.980000
40.886588,-0.066368,-0.017568,0.947208,1.120000,1.680000,-1.120000
40.894675,-0.160552,0.042456,1.027728,0.700000,3.780000,-0.980000
40.902762,-0.165920,-0.005368,0.919392,1.820000,1.680000,-1.540000
40.910850,-0.112728,0.045872,1.030656,-1.260000,-1.400000,-0.420000
40.918937,-0.070760,-0.012688,1.080920,3.220000,0.980000,-1.540000
40.927024,-0.163968,0.054656,0.983808,-0.700000,3.920000,-1.260000
40.935111,-0.110288,0.000000,1.002840,2.240000,-0.140000,-0.840000
40.943198,-0.120536,0.016104,1.068720,1.260000,1.820000,-1.680000
40.951286,-0.147376,-0.008784,0.919880,-0.700000,4.480000,-1.260000
40.959373,-0.143960,-0.019032,1.017480,2.800000,0.560000,-1.400000
40.967460,-0.087840,0.014640,0.982344,-0.420000,1.540000,-0.560000
40.975547,-0.102968,0.012688,1.011624,1.540000,4.620000,-0.700000
40.983634,-0.140056,0.015128,0.865712,0.980000,1.960000,-2.100000
40.991722,-0.114680,0.029768,1.044808,0.560000,-0.560000,-1.680000
40.999809,-0.124440,-0.022448,1.031632,0.980000,1.260000,-1.820000
41.007896,-0.179584,0.030256,1.037976,2.100000,2.660000,-2.100000
41.015983,-0.133224,0.034160,0.972096,0.000000,1.260000,-0.980000
41.024070,-0.086864,-0.025864,1.090680,1.260000,0.840000,-0.840000
41.032158,-0.188856,0.036112,0.974048,0.560000,4.200000,-1.540000
41.040245,-0.129808,0.006344,0.986248,2.380000,1.400000,-0.840000
41.048332,-0.081984,-0.012688,0.991616,-0.420000,0.700000,-0.980000
41.056419,-0.141032,0.000000,0.976976,1.960000,3.780000,-1.400000
41.064506,-0.170800,0.029280,0.908656,0.980000,0.700000,-1.400000
41.072594,-0.065880,-0.004880,1.032120,0.280000,-0.840000,-0.980000
41.080681,-0.108824,0.004880,1.057496,0.280000,2.800000,-1.540000
41.088768,-0.158112,0.041968,0.957944,2.380000,2.660000,-1.540000
41.096855,-0.122000,-0.000488,1.017968,0.000000,-0.560000,-0.840000
41.104942,-0.127368,0.000488,1.036024,0.980000,1.960000,-1.960000
41.113030,-0.144936,0.037576,0.935496,2.100000,2.100000,-1.400000
41.121117,-0.129320,0.011712,1.037488,-1.680000,0.980000,-0.840000
41.129204,-0.074176,-0.024888,1.004304,2.660000,2.380000,-1.680000
41.137291,-0.220576,0.080032,1.017480,1.260000,2.940000,-1.820000
41.145378,-0.143472,0.017568,1.031144,-0.140000,0.140000,-1.680000
41.153466,-0.058560,-0.030256,1.046760,1.820000,0.700000,-1.680000
41.161553,-0.138592,0.022448,1.008208,0.980000,4.760000,-2.100000
41.169640,-0.164944,-0.018544,0.898896,1.400000,3.920000,-1.260000
41.177727,-0.093208,-0.017080,1.044320,0.840000,1.960000,-1.400000
41.185814,-0.118584,0.018544,0.966728,0.980000,5.040000,-1.820000
41.193902,-0.175192,0.025376,0.991128,1.120000,3.500000,-1.400000
41.201989,-0.117608,-0.002928,0.970144,0.140000,1.820000,-1.400000
41.210076,-0.115656,0.013176,1.026264,0.700000,2.800000,-0.700000
41.218163,-0.171288,0.035624,1.059448,2.240000,5.460000,-1.680000
41.226250,-0.149328,0.048800,0.991128,-0.280000,3.080000,-1.260000
41.234338,-0.086376,-0.058072,1.116544,1.820000,4.060000,-1.120000
41.242425,-0.151280,0.037088,0.925248,1.680000,6.720000,-2.380000
41.250512,-0.142984,0.017080,0.891088,1.120000,3.500000,-2.100000
41.258599,-0.121512,-0.004880,0.954040,0.140000,1.120000,-1.680000
41.266686,-0.120536,0.001952,1.047736,1.260000,1.260000,-2.240000
41.274774,-0.191784,0.040016,1.017968,1.680000,3.640000,-2.100000
41.282861,-0.124928,0.007320,1.033096,-0.280000,1.400000,-0.560000
41.290948,-0.107848,-0.015128,1.053592,2.240000,3.360000,-1.540000
41.299035,-0.169336,0.030256,0.917928,0.420000,4.480000,-1.540000
41.307122,-0.136152,-0.009760,1.043344,1.120000,1.960000,-1.400000
41.315210,-0.115168,-0.015128,0.918904,1.540000,2.240000,-0.980000
41.323297,-0.134200,0.014640,1.022848,0.280000,1.960000,-0.700000
41.331384,-0.170800,0.016104,0.937936,2.100000,3.640000,-1.820000
41.339471,-0.133712,0.020008,0.973072,-0.980000,0.280000,-1.120000
41.347558,-0.101016,-0.026840,1.056032,1.260000,1.960000,-1.120000
41.355646,-0.190320,0.063928,1.008696,0.840000,4.480000,-1.120000
41.363733,-0.130296,0.020496,1.027728,0.840000,1.400000,-0.840000
41.371820,-0.128832,-0.013664,1.068720,1.120000,2.520000,-0.980000
41.379907,-0.163480,0.034160,0.981856,0.700000,4.480000,-1.540000
41.387994,-0.153720,-0.002928,0.972096,1.820000,2.940000,-0.840000
41.396082,-0.102480,-0.011224,1.030656,0.700000,2.100000,-0.980000
41.404169,-0.131760,0.008784,0.970144,0.420000,5.040000,-0.840000
41.412256,-0.176656,0.019032,0.990152,2.380000,3.220000,-1.400000
41.420343,-0.101992,0.007808,0.972584,0.000000,1.820000,-0.840000
41.428430,-0.117608,-0.027328,1.057984,1.400000,4.480000,-0.280000
41.436518,-0.204960,0.050264,0.915976,1.680000,5.600000,-2.100000
41.444605,-0.151280,0.022936,0.964288,-0.280000,0.700000,-0.840000
41.452692,-0.101992,-0.036112,1.012600,1.120000,1.400000,-1.120000
41.460779,-0.153720,0.030256,0.988688,1.960000,1.540000,-1.120000
41.468866,-0.146888,0.073688,1.026264,-0.420000,1.960000,-0.280000
41.476954,-0.115656,-0.060024,0.991616,2.660000,0.420000,-1.400000
41.485041,-0.176656,0.027328,1.009672,-0.420000,4.200000,-0.700000
41.493128,-0.157136,0.036112,1.018944,1.120000,2.520000,-0.980000
41.501215,-0.142008,0.002928,0.960384,0.840000,1.260000,-1.120000
41.509302,-0.125416,-0.021960,1.089704,1.260000,3.080000,-0.420000
41.517390,-0.181536,0.060024,0.970632,1.680000,4.060000,-1.540000
41.525477,-0.151768,0.021960,0.995032,-0.420000,1.400000,-0.420000
41.533564,-0.121512,-0.045872,1.041880,2.520000,2.940000,-1.120000
41.541651,-0.160552,0.058560,0.967216,0.560000,2.800000,-1.120000
41.549738,-0.132736,-0.009760,1.043832,0.840000,3.500000,-0.980000
41.557826,-0.100040,-0.038552,0.896456,0.980000,3.220000,-1.400000
41.565913,-0.165432,0.005856,0.980880,1.820000,4.340000,-1.540000
41.574000,-0.179096,0.056120,0.953552,-0.420000,3.080000,-1.120000
41.582087,-0.089792,-0.014640,1.070672,0.140000,1.960000,-0.700000
41.590174,-0.172264,0.002928,0.959408,2.520000,2.940000,-0.700000
41.598262,-0.210328,0.052216,1.051640,0.700000,1.960000,-0.560000
41.606349,-0.153232,0.000976,0.975024,0.840000,3.080000,-1.120000
41.614436,-0.114680,-0.013664,1.006744,0.420000,2.100000,-1.120000
41.622523,-0.142496,0.007320,0.991128,2.520000,3.080000,-0.560000
41.630610,-0.192272,0.022448,1.006256,-0.700000,3.920000,-0.420000
41.638698,-0.104920,-0.015616,0.954528,1.400000,3.220000,-1.540000
41.646785,-0.122000,0.025864,1.030656,0.560000,3.220000,-0.700000
41.654872,-0.155184,0.006344,0.999424,0.980000,3.920000,-0.840000
41.662959,-0.200080,0.020496,0.927200,0.980000,3.640000,-0.840000
41.671046,-0.139080,-0.003904,0.987224,0.980000,0.980000,-0.980000
41.679134,-0.139568,0.027816,1.043832,0.280000,2.100000,-0.700000
41.687221,-0.161528,-0.000488,1.032608,1.540000,3.500000,-0.560000
41.695308,-0.179096,0.011712,1.003816,0.280000,3.780000,-0.840000
41.703395,-0.140544,0.023912,0.995032,1.960000,2.660000,-0.840000
41.711482,-0.175680,0.002928,0.958920,-0.280000,3.360000,-0.980000
41.719570,-0.133712,-0.016104,0.941840,2.100000,2.380000,-0.980000
41.727657,-0.135176,0.010736,1.014064,-0.140000,2.380000,-0.560000
41.735744,-0.117120,0.016592,1.023336,1.260000,2.660000,-1.260000
41.743831,-0.178608,0.000000,0.961360,0.560000,3.220000,-0.840000
41.751918,-0.139568,0.003416,1.011136,1.960000,2.100000,-0.560000
41.760006,-0.157136,0.072224,1.079456,0.420000,4.620000,-0.840000
41.768093,-0.197152,0.000976,0.941352,0.280000,4.620000,-1.680000
41.776180,-0.156648,-0.011712,1.019920,1.820000,0.560000,-0.420000
41.784267,-0.153720,0.021472,1.008696,1.680000,2.380000,-0.140000
41.792354,-0.136640,0.019520,1.038464,0.420000,3.640000,-1.120000
41.800442,-0.183976,0.005368,0.930128,1.260000,3.780000,-1.540000
41.808529,-0.142496,-0.020984,1.019920,0.420000,1.120000,-0.140000
41.816616,-0.126880,0.015128,0.988200,1.820000,3.220000,-1.260000
41.824703,-0.181048,0.032208,0.974048,0.840000,3.360000,-1.120000
41.832790,-0.178120,-0.008784,0.944768,0.000000,2.240000,-1.120000
41.840878,-0.108824,-0.008784,1.015040,0.980000,1.400000,-0.840000
41.848965,-0.190808,0.051728,1.006256,1.260000,3.360000,-0.560000
41.857052,-0.181048,0.004392,1.000400,1.120000,3.080000,-0.980000
41.865139,-0.134688,0.016104,1.022360,0.560000,2.100000,-0.700000
41.873226,-0.174704,-0.001952,1.035048,0.840000,4.900000,-0.840000
41.881314,-0.198616,0.021472,0.899384,1.260000,2.380000,-0.980000
41.889401,-0.118584,-0.018056,1.036512,0.980000,-0.280000,-0.140000
41.897488,-0.142008,0.004392,0.985760,1.680000,2.380000,-1.260000
41.905575,-0.193248,0.033672,0.997960,0.560000,3.080000,-1.260000
41.913662,-0.144448,-0.007320,0.904752,1.260000,1.680000,-1.260000
41.921750,-0.135664,0.012688,1.058960,0.700000,-0.420000,-0.840000
41.929837,-0.175680,0.043920,0.999424,-0.140000,3.220000,-1.120000
41.937924,-0.188856,0.006344,0.985272,1.820000,1.120000,-0.700000
41.946011,-0.125416,0.014640,1.031632,0.840000,0.280000,-1.260000
41.954098,-0.180072,0.040504,1.028704,0.560000,3.220000,-0.700000
41.962186,-0.227896,-0.036600,0.960384,1.400000,3.640000,-1.120000
41.970273,-0.121024,0.022936,1.020896,0.140000,1.120000,-0.980000
41.978360,-0.125904,0.017080,0.998448,0.840000,2.940000,-0.420000
41.986447,-0.224968,0.010736,0.957944,2.240000,2.800000,-1.260000
41.994534,-0.143960,0.001464,0.951600,-0.420000,0.000000,-0.560000
42.002622,-0.111264,-0.004392,1.096048,2.100000,1.120000,-0.280000
42.010709,-0.214720,0.031720,0.957944,-0.140000,4.760000,-1.680000
42.018796,-0.164944,0.012200,0.956968,1.820000,0.000000,-0.980000
42.026883,-0.134688,-0.020984,1.065304,0.560000,0.700000,-0.980000
42.034970,-0.186416,0.015616,0.970144,0.980000,5.460000,-1.820000
42.043058,-0.172264,0.020496,0.928664,1.540000,1.260000,-0.560000
42.051145,-0.125416,-0.010736,1.073600,0.280000,1.120000,-0.840000
42.059232,-0.151768,0.001464,0.966240,1.120000,3.360000,-1.120000
42.067319,-0.199592,0.009760,0.940864,1.400000,2.940000,-0.560000
42.075406,-0.146888,0.030256,0.997472,0.560000,0.000000,-1.540000
42.083494,-0.122976,-0.019032,0.997960,1.680000,2.380000,-0.560000
42.091581,-0.201544,0.032696,1.037976,-0.280000,4.480000,-0.980000
42.099668,-0.148352,0.010736,0.954528,1.680000,0.980000,-0.840000
42.107755,-0.147376,-0.001952,1.030168,0.280000,3.220000,-0.700000
42.115842,-0.199592,0.027816,0.976000,1.120000,1.820000,-1.260000
42.123930,-0.188856,0.035136,1.021872,1.260000,2.380000,-0.840000
42.132017,-0.144936,-0.012200,1.025288,1.820000,1.120000,-1.120000
42.140104,-0.160064,-0.010248,0.985760,0.140000,3.920000,-1.120000
42.148191,-0.187392,0.017568,0.925736,1.960000,4.060000,-1.260000
42.156278,-0.169336,0.017080,0.924760,-0.140000,0.000000,-0.700000
42.164366,-0.138592,-0.013664,1.051152,1.260000,1.400000,-1.120000
42.172453,-0.195200,0.032208,1.013576,0.700000,3.360000,-0.980000
42.180540,-0.161040,0.024400,0.985760,0.980000,1.400000,-0.700000
42.188627,-0.132248,-0.020496,1.028704,1.260000,1.820000,-0.700000
42.196714,-0.181536,0.030256,0.968192,0.840000,4.200000,-1.120000
42.204802,-0.197640,0.026840,1.004792,1.960000,1.820000,-0.700000
42.212889,-0.162504,0.006344,1.035048,-1.120000,2.100000,-0.980000
42.220976,-0.171776,-0.021960,1.013576,2.240000,4.200000,-0.700000
42.229063,-0.212280,0.080032,0.947208,1.400000,2.660000,-1.120000
42.237150,-0.155672,-0.003416,0.973072,0.420000,-0.280000,-0.980000
42.245238,-0.146400,-0.054656,0.958432,1.120000,0.420000,-0.700000
42.253325,-0.193248,0.014640,0.973072,1.540000,0.980000,-1.260000
42.261412,-0.199104,0.039040,0.939400,-0.140000,-1.120000,-0.700000
42.269499,-0.103456,-0.037088,1.049688,0.560000,-1.260000,-0.840000
42.277586,-0.158600,0.032208,0.974536,0.980000,0.000000,-0.700000
42.285674,-0.196176,0.059048,0.987224,0.980000,0.840000,-0.700000
42.293761,-0.185440,-0.018544,1.009184,1.400000,-0.560000,-1.540000
42.301848,-0.171776,0.033184,1.007232,-0.560000,0.000000,-0.980000
42.309935,-0.141032,0.015128,1.020896,2.520000,0.560000,-1.400000
42.318022,-0.202520,-0.023424,0.967704,0.280000,0.840000,-0.700000
42.326110,-0.134200,0.001464,1.049200,0.560000,0.420000,-0.420000
42.334197,-0.172752,0.033184,1.012600,3.220000,2.660000,-1.120000
42.342284,-0.183000,0.043432,0.984784,-1.820000,3.080000,-0.700000
42.350371,-0.139568,-0.055632,1.024312,3.360000,1.540000,-1.260000
42.358459,-0.216184,0.031232,0.950624,0.840000,3.360000,-0.840000
42.366546,-0.178120,0.025376,0.963800,-0.420000,2.240000,-0.280000
42.374633,-0.148352,-0.010736,0.954528,1.820000,-0.700000,-1.120000
42.382720,-0.145424,-0.002440,1.008696,1.260000,0.420000,-0.840000
42.390807,-0.158112,0.026840,0.999912,0.840000,1.120000,-0.420000
42.398895,-0.194224,0.047336,1.052616,0.840000,1.540000,-0.700000
42.406982,-0.144936,-0.025864,0.934032,1.680000,-0.280000,-1.120000
42.415069,-0.194224,0.025376,1.068232,0.280000,1.400000,-0.140000
42.423156,-0.167872,0.017568,1.001864,1.540000,2.800000,-1.120000
42.431243,-0.202032,0.007320,0.942328,0.700000,1.260000,-0.980000
42.439331,-0.130296,-0.028792,1.003328,1.540000,0.280000,-0.840000
42.447418,-0.168360,0.017080,0.993568,-0.140000,2.520000,-0.560000
42.455505,-0.191784,0.017568,0.955016,1.820000,1.820000,-0.980000
42.463592,-0.175192,0.021960,0.971120,0.140000,-0.140000,-0.980000
42.471679,-0.153720,-0.015128,1.041392,1.400000,0.700000,-0.420000
42.479767,-0.198128,0.061976,1.021872,0.140000,1.540000,-1.120000
42.487854,-0.174704,-0.020008,0.955504,1.960000,0.840000,-0.840000
42.495941,-0.141032,0.006344,1.016992,0.420000,0.560000,-0.700000
42.504028,-0.162016,0.012200,1.040416,1.260000,2.940000,-1.120000
42.512115,-0.232288,0.007320,0.906216,0.280000,2.660000,-0.840000
42.520203,-0.126392,-0.010248,0.997960,1.260000,0.000000,-0.560000
42.528290,-0.143960,0.021472,0.997472,0.560000,0.420000,-0.420000
42.536377,-0.178608,0.032696,1.054080,0.560000,3.220000,-1.120000
42.544464,-0.186416,0.004880,0.905728,1.120000,1.820000,-1.120000
42.552551,-0.152256,-0.001464,1.062376,0.980000,-0.280000,-0.140000
42.560639,-0.206912,0.031232,0.994544,1.260000,2.660000,-1.120000
42.568726,-0.231800,0.013664,0.935984,0.840000,0.420000,-0.980000
42.576813,-0.144448,-0.011224,1.026752,0.840000,-0.840000,-0.840000
42.584900,-0.125904,0.009272,1.029680,-0.140000,0.000000,-0.560000
42.592987,-0.209840,-0.000976,0.984296,2.380000,3.500000,-1.260000
42.601075,-0.164456,0.027816,0.940864,-0.560000,0.700000,-0.840000
42.609162,-0.115168,-0.021960,0.998936,1.680000,1.400000,-0.420000
42.617249,-0.222040,0.040504,0.976976,0.840000,2.240000,-0.980000
42.625336,-0.221064,0.041480,0.995520,0.980000,0.560000,-1.120000
42.633423,-0.147376,-0.001952,1.046272,0.980000,-1.260000,-0.560000
42.641511,-0.144448,-0.001952,1.030168,0.980000,0.700000,-1.120000
42.649598,-0.191784,-0.002928,0.926712,1.400000,2.940000,-1.120000
42.657685,-0.158112,-0.002928,0.940376,-0.700000,1.680000,-0.980000
42.665772,-0.125904,-0.007320,1.035536,2.800000,-0.560000,-0.840000
42.673859,-0.195688,0.062464,0.996984,-0.700000,2.100000,-0.420000
42.681947,-0.226920,0.007808,0.983808,1.960000,2.800000,-1.400000
42.690034,-0.170312,0.009272,0.976000,-0.140000,-1.120000,-0.700000
42.698121,-0.128344,-0.015616,1.081408,1.400000,0.840000,-0.420000
42.706208,-0.221552,0.036600,0.938912,1.960000,2.800000,-0.700000
42.714295,-0.149328,0.018056,0.998936,-0.280000,0.000000,-1.400000
42.722383,-0.116632,-0.042944,0.987712,2.100000,0.700000,-1.120000
42.730470,-0.218136,0.051240,0.965264,-0.140000,2.100000,-0.420000
42.738557,-0.198128,-0.007808,0.992104,2.100000,0.560000,-1.120000
42.746644,-0.147376,0.023424,0.985272,0.280000,-0.980000,-0.140000
42.754731,-0.155184,0.006344,1.102392,0.700000,3.500000,-0.840000
42.762819,-0.214232,0.020496,0.897920,1.820000,2.380000,-1.540000
42.770906,-0.173240,0.001952,1.012600,-0.280000,0.560000,-0.280000
42.778993,-0.142008,-0.014640,1.033096,2.240000,0.280000,-0.560000
42.787080,-0.199592,0.022448,0.906704,-0.420000,3.220000,-1.260000
42.795167,-0.206912,0.019032,0.991128,1.680000,-0.560000,-1.540000
42.803255,-0.175680,0.002440,0.988200,0.420000,-0.280000,0.000000
42.811342,-0.131760,0.023424,1.081896,-0.140000,0.420000,-0.700000
42.819429,-0.185440,0.016104,0.941840,2.940000,2.380000,-1.260000
42.827516,-0.154696,0.012200,1.049688,-1.400000,1.120000,-0.280000
42.835603,-0.149328,-0.025376,1.000888,3.080000,4.060000,-1.260000
42.843691,-0.247416,0.028304,0.906704,0.560000,2.800000,-0.700000
42.851778,-0.202520,0.006344,0.963800,0.140000,1.120000,-1.120000
42.859865,-0.151280,-0.011712,0.958432,1.260000,-2.100000,-0.560000
42.867952,-0.128344,0.024888,1.114104,-0.140000,-1.120000,-0.420000
42.876039,-0.197640,0.023424,1.016992,3.080000,4.340000,-1.260000
42.884127,-0.211304,0.034160,0.920856,-1.120000,1.680000,-0.840000
42.892214,-0.108824,-0.035136,1.075064,1.260000,0.700000,-0.980000
42.900301,-0.240584,0.037088,0.916952,1.260000,3.080000,-0.840000
42.908388,-0.195200,-0.000488,0.936960,0.140000,-0.420000,-0.700000
42.916476,-0.109800,-0.004392,1.047736,1.540000,-1.400000,-1.260000
42.924563,-0.134688,0.025864,1.004304,0.140000,1.120000,-0.560000
42.932650,-0.219600,0.015616,1.037488,1.820000,3.500000,-0.840000
42.940737,-0.192272,0.034648,0.979904,0.700000,1.120000,-0.980000
42.948824,-0.124928,-0.028304,1.017480,0.840000,0.140000,-0.280000
42.956912,-0.211792,0.031720,0.955504,1.400000,2.520000,-0.840000
42.964999,-0.207400,0.006832,0.934032,0.700000,1.540000,-1.540000
42.973086,-0.157136,-0.021472,0.942816,0.840000,-1.120000,-0.560000
42.981173,-0.152256,0.018056,1.030168,-0.980000,-0.840000,0.000000
42.989260,-0.218136,0.022448,1.041880,2.940000,2.660000,-1.960000
42.997348,-0.176168,0.053680,0.969168,-0.980000,-1.120000,-0.280000
43.005435,-0.125904,-0.024400,1.114104,1.400000,1.680000,-1.120000
43.013522,-0.244976,0.025864,0.856928,1.960000,2.100000,-1.260000
43.021609,-0.200568,0.016592,1.038952,0.280000,-1.820000,0.000000
43.029696,-0.139568,-0.018544,1.002352,2.100000,-1.260000,-1.120000
43.037784,-0.145424,0.001464,0.957456,-0.420000,0.420000,-1.120000
43.045871,-0.207400,0.003904,0.998936,2.240000,1.960000,-1.540000
43.053958,-0.179096,0.033672,0.910608,-0.840000,-1.260000,-0.280000
43.062045,-0.130784,-0.006832,1.078480,1.540000,-1.960000,-0.700000
43.070132,-0.226432,0.036600,0.967216,1.260000,1.260000,-0.840000
43.078220,-0.189832,0.022448,1.005768,-0.140000,-0.280000,-0.980000
43.086307,-0.138104,-0.032208,0.994544,2.660000,-1.960000,-0.560000
43.094394,-0.172752,0.030256,1.027728,-0.700000,1.680000,-0.700000
43.102481,-0.209840,-0.009272,0.974536,2.100000,2.660000,-1.260000
43.110568,-0.139080,0.007808,0.918416,-0.420000,-2.100000,-0.560000
43.118656,-0.131760,0.003416,1.039440,0.980000,0.840000,-0.840000
43.126743,-0.239608,0.040016,0.951112,1.540000,0.980000,-0.980000
43.134830,-0.164944,0.029280,1.023824,0.420000,-0.840000,-0.560000
43.142917,-0.146400,-0.009272,1.016504,1.260000,-0.840000,-0.700000
43.151004,-0.217160,0.007320,1.018456,0.980000,1.960000,-0.560000
43.159092,-0.184464,0.031232,0.950624,0.980000,-0.560000,-0.980000
43.167179,-0.142008,-0.030256,1.027240,0.140000,-1.400000,-0.420000
43.175266,-0.147864,0.002928,0.997472,0.700000,2.100000,-1.120000
43.183353,-0.194712,0.026840,0.959896,2.520000,1.400000,-0.700000
43.191440,-0.149328,0.028304,0.958920,-0.280000,-0.280000,-0.700000
43.199528,-0.171288,-0.034160,1.028216,1.260000,1.400000,-1.120000
43.207615,-0.200080,0.036112,0.946232,1.120000,0.980000,-0.560000
43.215702,-0.193736,0.026352,1.053104,0.280000,0.140000,-0.700000
43.223789,-0.167872,-0.011712,0.994544,0.980000,0.280000,-1.260000
43.231876,-0.172264,0.011712,1.017968,0.280000,1.120000,-0.140000
43.239964,-0.187880,0.036600,0.967704,2.380000,2.380000,-1.260000
43.248051,-0.190808,0.013664,0.930128,0.000000,-0.980000,-0.700000
43.256138,-0.120048,-0.055632,1.040904,1.120000,-0.280000,-0.980000
43.264225,-0.207888,0.040016,0.947208,1.400000,1.400000,-0.700000
43.272312,-0.170800,0.018544,1.008208,0.280000,-0.140000,-0.840000
43.280400,-0.147864,0.012688,1.007720,0.700000,-0.140000,-0.700000
43.288487,-0.183000,0.011224,1.017968,1.680000,1.960000,-0.840000
43.296574,-0.217160,0.049288,0.994056,0.980000,0.000000,-1.120000
43.304661,-0.145424,-0.014152,1.052128,0.700000,-0.140000,-0.560000
43.312748,-0.173728,-0.014152,0.922320,1.260000,1.540000,-0.980000
43.320836,-0.159088,0.043432,1.044808,0.840000,0.700000,-0.980000
43.328923,-0.185928,-0.015128,0.943792,1.820000,0.840000,-1.120000
43.337010,-0.158600,-0.022936,0.956968,-0.560000,0.280000,-0.280000
43.345097,-0.173240,0.022936,0.989176,2.240000,1.680000,-1.120000
43.353184,-0.208376,0.063928,1.009184,-0.700000,0.840000,-1.120000
43.361272,-0.155184,-0.022448,1.018944,0.840000,-0.140000,-0.280000
43.369359,-0.183000,0.020984,1.009672,1.680000,1.260000,-1.120000
43.377446,-0.236680,0.022936,0.976488,0.420000,1.960000,-0.840000
43.385533,-0.156160,-0.005368,0.998936,0.420000,-0.140000,-0.420000
43.393620,-0.115656,-0.002440,0.980880,0.700000,0.840000,-0.840000
43.401708,-0.197152,0.028304,1.057496,2.240000,2.800000,-1.120000
43.409795,-0.194712,0.007320,0.951112,-0.840000,2.520000,-0.840000
43.417882,-0.158600,-0.030744,0.963800,1.820000,1.400000,-0.840000
43.425969,-0.178120,0.025864,0.925736,0.980000,0.280000,-0.840000
43.434056,-0.177632,0.055144,1.057496,0.280000,1.540000,-0.980000
43.442144,-0.171776,-0.013176,0.963312,1.260000,-0.280000,-0.420000
43.450231,-0.160552,0.006832,1.061400,1.260000,0.420000,-0.840000
43.458318,-0.217160,0.034160,0.976000,1.540000,1.540000,-0.560000
43.466405,-0.175680,0.012688,1.063840,0.000000,1.120000,-0.980000
43.474492,-0.129808,-0.028792,0.960384,1.680000,1.400000,-1.120000
43.482580,-0.165920,0.010736,0.968192,0.560000,2.660000,-0.420000
43.490667,-0.198128,0.033672,0.962336,0.980000,1.820000,-1.120000
43.498754,-0.191784,-0.012688,0.953064,0.560000,1.120000,-0.980000
43.506841,-0.162504,0.021472,1.033096,1.540000,0.700000,-1.120000
43.514928,-0.191296,0.022448,0.950136,0.280000,0.000000,-0.420000
43.523016,-0.203008,0.007320,1.039928,1.260000,0.700000,-1.120000
43.531103,-0.160552,-0.007320,0.984296,0.980000,0.140000,-0.980000
43.539190,-0.160064,0.022936,1.054080,1.540000,1.820000,-0.280000
43.547277,-0.155672,0.023912,1.057008,0.000000,3.640000,-0.980000
43.555364,-0.196664,-0.019520,0.898408,1.960000,3.780000,-0.980000
43.563452,-0.168848,0.010248,0.994544,0.140000,2.800000,-0.280000
43.571539,-0.162504,0.008296,0.977464,1.120000,4.340000,-1.400000
43.579626,-0.217648,0.014640,0.943792,0.420000,3.080000,-0.840000
43.587713,-0.158112,0.011224,1.027240,1.120000,-0.280000,-0.840000
43.595800,-0.168360,0.032696,0.986248,0.560000,2.520000,-0.700000
43.603888,-0.206912,0.017568,1.061888,1.680000,2.240000,-0.840000
43.611975,-0.165920,0.022448,0.963312,1.120000,1.960000,-1.260000
43.620062,-0.146400,0.006344,1.039928,0.980000,2.520000,-0.280000
43.628149,-0.214720,0.000488,1.020408,1.120000,5.600000,-1.680000
43.636236,-0.179096,0.004880,0.888160,0.420000,3.220000,-0.420000
43.644324,-0.129320,-0.023912,1.068232,1.260000,2.940000,-0.560000
43.652411,-0.163968,0.038064,0.962336,1.120000,5.180000,-1.540000
43.660498,-0.205448,-0.006832,0.969656,0.840000,4.620000,-0.560000
43.668585,-0.232776,0.014152,0.911096,1.120000,1.540000,-0.700000
43.676672,-0.174704,0.033672,1.040416,1.400000,0.140000,-0.980000
43.684760,-0.210816,0.025864,1.038464,0.700000,2.100000,-0.980000
43.692847,-0.150304,-0.000488,0.955016,0.140000,1.540000,-0.700000
43.700934,-0.165432,-0.012688,1.025776,2.940000,2.380000,-0.700000
43.709021,-0.202520,0.032208,1.038952,-0.840000,4.900000,-0.980000
43.717108,-0.211792,-0.001464,0.917928,1.260000,4.480000,-0.980000
43.725196,-0.192272,-0.019032,0.986736,1.400000,1.820000,-0.840000
43.733283,-0.119560,0.011224,0.959408,-0.700000,2.240000,-0.840000
43.741370,-0.186904,0.024400,1.044808,2.100000,4.900000,-0.840000
43.749457,-0.231312,0.030256,0.933056,0.700000,2.520000,-0.840000
43.757544,-0.164456,0.008296,1.057496,1.680000,1.540000,-0.980000
43.765632,-0.192760,0.015616,0.975512,0.560000,3.220000,-0.700000
43.773719,-0.217160,0.003904,0.996496,0.560000,2.380000,-0.560000
43.781806,-0.175192,-0.013176,0.984784,2.940000,2.240000,-1.260000
43.789893,-0.126392,0.035136,1.017480,-1.820000,2.800000,-0.140000
43.797980,-0.203496,-0.008784,1.002840,2.520000,7.140000,-1.680000
43.806068,-0.248392,0.015616,0.869128,0.980000,3.360000,-0.980000
43.814155,-0.143472,0.001952,1.004792,-0.280000,0.280000,-0.420000
43.822242,-0.172752,0.025376,1.042368,1.680000,2.100000,-0.840000
43.830329,-0.244488,0.031232,0.979416,1.120000,2.800000,-1.400000
43.838416,-0.195688,-0.010248,1.019432,1.540000,0.000000,-0.560000
43.846504,-0.139568,0.015128,1.019432,-0.700000,2.240000,-0.280000
43.854591,-0.206912,0.010736,0.913536,2.520000,3.920000,-1.540000
43.862678,-0.210328,-0.003416,0.942328,0.700000,0.280000,-0.840000
43.870765,-0.125904,-0.016104,1.017480,0.140000,1.820000,-0.980000
43.878852,-0.205936,0.031232,1.006256,1.260000,4.060000,-1.120000
43.886940,-0.193248,0.021472,0.961360,0.700000,1.820000,-0.980000
43.895027,-0.179096,-0.010248,1.033584,1.400000,1.960000,-0.560000
43.903114,-0.199592,0.030744,1.005280,0.700000,3.360000,-0.980000
43.911201,-0.226432,0.046360,0.976488,0.700000,2.940000,-1.120000
43.919288,-0.211304,-0.000488,0.975512,1.400000,-0.140000,-0.700000
43.927376,-0.151768,-0.022936,1.049688,1.120000,0.420000,-0.140000
43.935463,-0.218624,0.035624,0.968192,0.420000,4.900000,-1.260000
43.943550,-0.175680,0.010248,0.952576,2.240000,0.420000,-0.840000
43.951637,-0.155184,-0.019032,1.047736,-0.420000,2.660000,-0.700000
43.959724,-0.215208,0.014152,0.958432,2.380000,3.780000,-0.980000
43.967812,-0.214232,0.026352,0.956968,0.980000,3.080000,-0.840000
43.975899,-0.150792,-0.003416,0.993080,0.000000,1.400000,-0.840000
43.983986,-0.169824,-0.004880,1.035048,1.540000,3.640000,-0.560000
43.992073,-0.244000,0.042456,0.929152,0.840000,4.060000,-1.540000
44.000161,-0.167872,0.002440,1.018944,1.260000,0.560000,-0.280000
44.008248,-0.163968,0.012688,0.995032,0.840000,1.680000,-0.980000
44.016335,-0.248392,0.029768,1.004304,1.540000,4.200000,-0.840000
44.024422,-0.203008,0.015616,0.953552,0.560000,1.680000,-0.700000
44.032509,-0.157136,-0.026840,1.027240,1.820000,0.980000,-0.700000
44.040597,-0.205448,0.016104,1.008208,-0.280000,3.500000,-0.980000
44.048684,-0.238632,0.008296,0.948672,2.380000,4.340000,-0.980000
44.056771,-0.177144,0.013664,0.948672,-0.700000,-0.280000,-0.560000
44.064858,-0.175680,-0.023424,0.993568,1.540000,2.240000,-1.120000
44.072945,-0.219600,0.047824,0.942816,0.420000,0.980000,-0.840000
44.081033,-0.175680,0.016104,1.025776,1.260000,0.280000,-0.840000
44.089120,-0.171288,-0.006832,0.995520,0.280000,0.560000,-0.700000
44.097207,-0.231312,0.014152,1.040416,1.820000,2.940000,-0.840000
44.105294,-0.247904,0.052704,0.925248,0.420000,0.420000,-0.560000
44.113381,-0.136152,-0.011224,1.061400,1.120000,-1.120000,-0.980000
44.121469,-0.202032,-0.025376,0.944280,1.260000,1.540000,-0.700000
44.129556,-0.220576,0.043432,1.005768,1.260000,1.680000,-0.980000
44.137643,-0.154696,-0.007320,0.934520,0.140000,-0.280000,-0.700000
44.145730,-0.179584,-0.018544,0.985272,1.260000,0.980000,-0.980000
44.153817,-0.227408,0.032696,0.971120,0.000000,1.120000,-0.840000
44.161905,-0.184952,0.032208,1.011624,1.400000,0.560000,-0.840000
44.169992,-0.165432,-0.026352,0.980880,0.140000,-0.420000,-0.840000
44.178079,-0.212768,0.063928,1.033096,1.260000,1.680000,-0.700000
44.186166,-0.221552,0.001952,0.982344,1.540000,1.540000,-0.700000
44.194253,-0.184952,-0.013664,1.006256,0.140000,0.700000,-0.840000
44.202341,-0.187392,0.002928,0.991128,2.520000,2.380000,-0.560000
44.210428,-0.246440,0.050264,0.964776,0.000000,2.660000,-1.260000
44.218515,-0.148840,-0.010736,1.004792,0.140000,0.420000,-0.980000
44.226602,-0.192760,-0.009760,1.005768,1.120000,1.960000,-0.700000
44.234689,-0.223016,0.014640,0.944280,2.100000,1.680000,-0.700000
44.242777,-0.204472,0.037576,0.943792,-0.700000,0.700000,-0.840000
44.250864,-0.133224,-0.041968,1.042856,0.840000,0.560000,-1.400000
44.258951,-0.198128,0.028792,0.962824,0.980000,2.660000,-0.280000
44.267038,-0.231312,0.056608,1.063352,1.960000,1.960000,-0.700000
44.275125,-0.217648,0.007808,0.931104,0.140000,0.980000,-0.700000
44.283213,-0.163480,-0.022448,1.058960,0.980000,1.120000,-0.280000
44.291300,-0.232776,0.046848,0.935984,2.240000,2.940000,-1.400000
44.299387,-0.216672,0.006832,0.969168,-0.840000,-0.420000,-0.280000
44.307474,-0.143960,-0.046360,1.021384,1.960000,0.280000,-0.980000
44.315561,-0.231312,0.045872,0.943304,0.420000,2.240000,-1.120000
44.323649,-0.202520,0.014640,1.000400,0.840000,0.280000,-0.840000
44.331736,-0.147864,-0.013176,0.946720,0.140000,-0.280000,-0.560000
44.339823,-0.214720,0.016104,1.030656,2.520000,0.140000,-0.980000
44.347910,-0.273768,0.061976,0.975512,-0.140000,1.820000,-0.980000
44.355997,-0.171776,-0.023912,1.037976,0.420000,-0.280000,-0.700000
44.364085,-0.180560,-0.015616,0.971120,0.840000,1.960000,-0.980000
44.372172,-0.214232,0.052216,0.962336,1.960000,0.280000,-0.700000
44.380259,-0.195200,0.003416,0.992104,0.420000,-0.140000,-0.840000
44.388346,-0.159088,-0.031232,0.985760,0.700000,1.120000,-1.120000
44.396433,-0.213744,0.024400,1.008208,2.100000,1.680000,-0.840000
44.404521,-0.187880,0.026352,0.951600,0.000000,1.260000,-0.840000
44.412608,-0.186416,-0.038064,0.991128,0.700000,1.260000,-0.280000
44.420695,-0.200568,0.045872,0.950136,1.260000,2.380000,-1.540000
44.428782,-0.195200,0.043432,1.003816,0.980000,0.140000,-0.700000
44.436869,-0.175680,-0.004880,1.001376,0.420000,-0.140000,-0.700000
44.444957,-0.194712,-0.011712,0.985272,2.100000,2.100000,-0.840000
44.453044,-0.226432,0.052216,1.047736,0.000000,3.360000,-0.560000
44.461131,-0.190808,0.017080,0.939888,1.540000,1.960000,-0.980000
44.469218,-0.207888,-0.007320,1.034072,0.700000,0.700000,-0.840000
44.477305,-0.185440,0.009272,1.041880,1.260000,2.380000,-1.120000
44.485393,-0.240584,0.030256,0.980392,1.260000,3.920000,-0.560000
44.493480,-0.153720,-0.035624,0.944768,-0.420000,0.980000,-0.700000
44.501567,-0.192272,0.017080,1.001864,3.080000,3.500000,-1.540000
44.509654,-0.220576,0.017080,0.925736,-0.420000,2.520000,-0.280000
44.517741,-0.171288,-0.006832,1.070672,1.680000,1.820000,-0.700000
44.525829,-0.214720,0.017080,0.875472,1.120000,4.340000,-1.400000
44.533916,-0.197152,0.028792,1.039440,-0.140000,2.240000,-0.560000
44.542003,-0.209352,0.005368,0.980880,0.840000,2.800000,-0.980000
44.550090,-0.172264,0.004880,1.009184,1.960000,2.660000,-0.560000
44.558178,-0.245464,0.042944,1.013576,-0.140000,3.920000,-0.700000
44.566265,-0.214720,0.005856,0.985272,2.380000,2.660000,-0.980000
44.574352,-0.183000,-0.007808,1.020896,0.280000,3.780000,-1.120000
44.582439,-0.213744,0.005368,0.980880,1.680000,3.220000,-0.700000
44.590526,-0.225456,0.018544,0.959408,0.000000,4.340000,-0.700000
44.598614,-0.166408,-0.016104,0.954040,0.980000,2.100000,-1.400000
44.606701,-0.186904,-0.000976,0.993568,1.260000,3.640000,-0.420000
44.614788,-0.198616,0.056120,0.950136,1.820000,2.660000,-0.980000
44.622875,-0.222040,-0.002928,1.008208,0.280000,3.220000,-0.980000
44.630962,-0.186416,-0.016104,0.982344,0.560000,3.220000,-0.980000
44.639050,-0.218136,0.042944,1.023824,2.520000,3.080000,-0.560000
44.647137,-0.227408,0.047336,0.996008,-0.700000,3.500000,-0.980000
44.655224,-0.168360,-0.066856,1.015528,2.240000,3.220000,-0.980000
44.663311,-0.256200,0.060024,0.983808,0.980000,4.760000,-0.700000
44.671398,-0.235216,0.019520,0.925736,0.560000,2.800000,-0.700000
44.679486,-0.200568,-0.020008,0.995032,1.120000,1.400000,-1.260000
44.687573,-0.188856,-0.015128,0.955992,0.560000,3.220000,-0.420000
44.695660,-0.166408,0.041480,1.048224,0.420000,3.920000,-0.980000
44.703747,-0.212768,0.013664,0.893528,1.540000,3.780000,-1.260000
44.711834,-0.210328,-0.010248,1.022848,0.140000,2.800000,0.000000
44.719922,-0.183000,0.023424,1.000400,1.680000,2.520000,-1.400000
44.728009,-0.238632,0.040016,1.006744,1.260000,4.060000,-0.980000
44.736096,-0.223992,0.002928,0.968680,-0.140000,2.100000,-0.560000
44.744183,-0.197640,-0.008296,1.025288,3.220000,3.360000,-0.700000
44.752270,-0.256200,0.069784,1.005280,-1.260000,4.620000,-0.560000
44.760358,-0.202032,-0.045872,0.955992,1.960000,3.780000,-1.120000
44.768445,-0.224968,0.021472,0.944280,0.700000,2.240000,-0.700000
44.776532,-0.207888,-0.006344,0.980392,0.840000,2.100000,-1.120000
44.784619,-0.209352,0.010736,0.904752,0.840000,0.980000,-1.120000
44.792706,-0.179096,-0.005856,1.056520,1.540000,-0.140000,-0.560000
44.800794,-0.173728,0.049288,0.974048,0.700000,3.360000,-0.980000
44.808881,-0.254736,0.012688,0.997472,0.980000,2.100000,-0.700000
44.816968,-0.221064,0.000976,0.954040,0.980000,0.000000,-0.420000
44.825055,-0.207400,0.034160,1.042856,1.120000,2.940000,-0.560000
44.833142,-0.236680,0.018544,1.005768,0.700000,1.680000,-1.400000
44.841230,-0.216184,-0.016592,0.960384,1.260000,1.960000,-0.560000
44.849317,-0.191296,0.002440,0.993568,0.840000,2.100000,-0.840000
44.857404,-0.216184,0.029280,0.950136,0.700000,2.520000,-0.980000
44.865491,-0.241560,-0.016104,0.957456,1.260000,0.980000,-0.280000
44.873578,-0.200568,0.011712,0.951600,0.000000,0.420000,-1.260000
44.881666,-0.186904,-0.002440,1.033096,1.820000,0.700000,-1.260000
44.889753,-0.213256,0.018544,0.936472,-0.560000,1.260000,-0.700000
44.897840,-0.201056,0.000976,1.022848,2.100000,0.980000,-0.840000
44.905927,-0.229360,0.043920,0.984296,0.700000,0.980000,-0.700000
44.914014,-0.256200,0.033672,1.007720,0.420000,2.940000,-0.840000
44.922102,-0.240096,-0.007808,0.930616,1.120000,-0.700000,-0.840000
44.930189,-0.178608,-0.000976,1.037976,0.700000,-0.980000,-0.700000
44.938276,-0.208864,0.042456,0.983320,0.280000,1.680000,-0.840000
44.946363,-0.213744,-0.004392,0.954528,1.960000,0.700000,-0.840000
44.954450,-0.186416,-0.004392,1.033096,1.120000,-0.140000,-0.980000
44.962538,-0.228872,0.020008,0.919880,0.560000,1.260000,-0.560000
44.970625,-0.232288,-0.009760,0.996496,0.840000,-0.280000,-0.700000
44.978712,-0.226920,0.012688,0.926712,1.120000,0.140000,-0.980000
44.986799,-0.168360,0.001952,1.030168,1.120000,-1.820000,-0.420000
44.994886,-0.248880,0.037576,0.973560,0.280000,1.540000,-1.400000
45.002974,-0.205936,-0.011712,0.959408,1.680000,-1.960000,-0.840000
45.011061,-0.171288,0.024400,1.039440,0.000000,0.000000,-0.700000
45.019148,-0.244000,0.019520,0.961360,1.260000,1.540000,-0.980000
45.027235,-0.274256,0.009272,0.964288,0.000000,-0.140000,-0.560000
45.035323,-0.193736,-0.002440,0.993080,2.380000,-2.800000,-0.840000
45.043410,-0.220576,0.025376,0.967216,-0.560000,-1.680000,-0.140000
45.051497,-0.216184,-0.003904,1.054080,1.540000,-1.540000,-1.540000
45.059584,-0.221064,0.008296,0.880352,0.700000,-2.240000,-1.120000
45.067671,-0.167872,-0.004392,1.044320,0.560000,-2.520000,-0.140000
45.075759,-0.189344,0.045384,0.957456,1.120000,-0.560000,-1.540000
45.083846,-0.225456,0.005856,0.899384,1.680000,-3.220000,-0.280000
45.091933,-0.188856,0.007320,1.081408,0.140000,-3.360000,-0.560000
45.100020,-0.223504,0.026352,0.968680,1.540000,-0.420000,-0.840000
45.108107,-0.255224,-0.004880,0.955016,0.280000,-1.680000,-0.980000
45.116195,-0.194224,0.015128,1.005768,1.120000,-4.340000,-0.700000
45.124282,-0.193736,-0.007320,1.050176,1.400000,-2.520000,-0.560000
45.132369,-0.251808,0.050752,0.954040,0.700000,-0.700000,-1.260000
45.140456,-0.203496,-0.024400,0.986736,0.840000,-2.520000,-0.420000
45.148543,-0.167384,0.007808,0.981856,0.560000,-1.260000,-0.840000
45.156631,-0.227408,0.038064,0.992592,1.400000,-2.100000,-0.840000
45.164718,-0.223504,0.000976,0.902312,0.560000,-2.240000,-0.840000
45.172805,-0.170312,-0.024400,1.007720,0.700000,-2.520000,-0.840000
45.180892,-0.214720,0.025864,0.976488,0.280000,-0.840000,-0.700000
45.188979,-0.230824,0.036112,0.969168,1.680000,-2.800000,-1.260000
45.197067,-0.192760,0.021960,1.057496,0.280000,-3.780000,-0.840000
45.205154,-0.170312,-0.008784,1.025776,0.840000,-1.540000,-0.840000
45.213241,-0.262544,0.020496,0.972096,1.540000,-0.280000,-1.120000
45.221328,-0.182024,0.015616,0.982344,0.280000,-2.660000,-0.560000
45.229415,-0.170800,-0.016104,1.035048,2.100000,-1.260000,-0.700000
45.237503,-0.283528,0.029280,0.872056,0.700000,-0.560000,-0.980000
45.245590,-0.190808,0.000488,0.966240,0.280000,-3.780000,-0.840000
45.253677,-0.170312,-0.018544,1.007232,0.000000,-3.500000,-0.700000
45.261764,-0.202520,0.016104,1.026264,1.960000,-1.540000,-0.700000
45.269851,-0.228384,0.046360,0.939888,0.140000,-1.400000,-1.120000
45.277939,-0.174216,-0.015616,0.976976,0.980000,-4.060000,-0.420000
45.286026,-0.192272,-0.001952,1.042368,0.560000,-1.820000,-0.700000
45.294113,-0.219112,0.044408,0.977952,1.680000,-1.540000,-1.120000
45.302200,-0.207400,0.018056,1.002352,0.420000,-1.960000,-0.560000
45.310287,-0.166408,-0.031232,0.979416,-0.420000,-2.100000,-0.560000
45.318375,-0.241072,0.050264,0.982832,2.800000,-0.700000,-1.120000
45.326462,-0.222528,0.038064,0.956480,-0.840000,-2.940000,-0.840000
45.334549,-0.129320,-0.061488,1.072624,1.120000,-2.520000,-0.560000
45.342636,-0.261080,0.045872,0.943304,1.400000,0.000000,-0.840000
45.350723,-0.214720,0.030744,0.944280,0.280000,-2.800000,-0.700000
45.358811,-0.152256,-0.020008,0.995520,0.980000,-5.600000,-0.980000
45.366898,-0.197640,-0.017080,0.993080,1.540000,-2.940000,-0.560000
45.374985,-0.202032,0.067832,1.037488,0.560000,-1.820000,-0.980000
45.383072,-0.162992,-0.010248,0.972096,1.400000,-3.220000,-0.840000
45.391159,-0.187392,-0.006832,1.024800,0.420000,-0.980000,-0.840000
45.399247,-0.244488,0.031232,0.939400,0.560000,-0.140000,-0.840000
45.407334,-0.170800,0.023912,0.991128,0.980000,-3.080000,-0.420000
45.415421,-0.155184,-0.016104,1.012112,-0.280000,-0.560000,-1.260000
45.423508,-0.235216,0.018056,0.983320,2.100000,0.560000,-0.840000
45.431595,-0.218624,0.033184,1.020896,0.280000,0.140000,-0.560000
45.439683,-0.137616,-0.006344,1.007232,0.140000,-1.120000,-1.120000
45.447770,-0.219600,-0.011224,1.024800,2.100000,0.280000,-0.700000
45.455857,-0.226432,0.037576,0.937936,0.840000,0.840000,-0.840000
45.463944,-0.177632,-0.009760,0.980392,1.400000,-1.960000,-0.700000
45.472032,-0.159576,-0.013664,0.973560,0.280000,0.000000,-1.120000
45.480119,-0.241072,0.034160,0.976000,1.820000,2.100000,-0.840000
45.488206,-0.189832,0.029768,0.962336,-0.140000,-1.260000,-0.420000
45.496293,-0.141032,-0.011224,1.052128,0.840000,-0.840000,-0.980000
45.504380,-0.243512,0.027328,0.958432,0.980000,1.120000,-0.980000
45.512468,-0.195200,0.025376,1.000888,0.980000,-0.840000,-0.700000
45.520555,-0.169824,-0.003904,1.044808,0.140000,-0.980000,-0.700000
45.528642,-0.187880,0.011712,0.966240,2.100000,0.840000,-0.840000
45.536729,-0.238632,0.050264,1.033584,0.840000,0.140000,-0.980000
45.544816,-0.158112,-0.026840,0.949160,0.280000,0.420000,-0.840000
45.552904,-0.168848,-0.017080,1.050664,1.400000,1.540000,-0.980000
45.560991,-0.240096,0.047336,0.905728,0.560000,3.220000,-1.120000
45.569078,-0.167384,-0.008784,1.001376,0.840000,0.140000,-0.420000
45.577165,-0.150792,-0.011224,0.961848,0.980000,0.840000,-1.260000
45.585252,-0.231312,0.045872,0.994544,1.120000,3.080000,-1.120000
45.593340,-0.239120,0.015128,0.964288,0.560000,-0.280000,-0.420000
45.601427,-0.206424,-0.009760,1.012112,1.120000,-1.120000,-0.840000
45.609514,-0.183000,0.005856,0.969656,0.280000,0.560000,-0.280000
45.617601,-0.192760,0.035136,1.055056,1.260000,1.120000,-1.540000
45.625688,-0.178120,0.001464,0.932568,0.140000,-1.260000,-0.560000
45.633776,-0.160064,-0.010736,1.073112,1.120000,1.820000,-0.560000
45.641863,-0.275232,0.040016,0.939400,2.100000,2.660000,-1.540000
45.649950,-0.157136,0.024888,0.964288,-0.980000,-0.420000,-0.420000
45.658037,-0.166896,-0.055144,1.009184,2.100000,0.840000,-1.400000
45.666124,-0.222528,0.048800,0.899872,0.700000,0.700000,-0.840000
45.674212,-0.162992,0.014152,1.109712,0.140000,-0.140000,-0.560000
45.682299,-0.139080,-0.024400,0.918904,2.100000,0.700000,-1.260000
45.690386,-0.238144,0.060024,1.012112,0.840000,1.120000,-0.700000
45.698473,-0.248392,0.017568,0.986248,0.700000,0.840000,-1.260000
45.706560,-0.186904,-0.006344,1.009184,0.840000,-1.400000,-0.700000
45.714648,-0.171776,-0.011224,0.965752,0.840000,0.700000,-0.140000
45.722735,-0.209352,0.049776,1.074088,1.820000,2.100000,-1.400000
45.730822,-0.172752,0.010736,0.927200,-0.420000,1.400000,-0.980000
45.738909,-0.175192,-0.045384,1.049200,1.540000,2.520000,-0.280000
45.746996,-0.242536,0.068808,0.976488,1.820000,3.780000,-1.680000
45.755084,-0.178608,0.009760,0.954040,0.000000,1.120000,-0.420000
45.763171,-0.160064,-0.042944,1.025288,0.140000,2.940000,-1.260000
45.771258,-0.239608,0.003416,0.913536,2.660000,3.500000,-0.560000
45.779345,-0.185928,0.057096,1.036024,-0.980000,2.520000,-0.560000
45.787432,-0.180560,-0.019032,0.944280,2.380000,2.100000,-1.680000
45.795520,-0.208864,0.023912,0.974048,-0.560000,1.820000,-0.700000
45.803607,-0.240096,0.010248,1.054080,1.820000,2.520000,-1.120000
45.811694,-0.234728,0.047824,0.931592,0.280000,1.120000,-0.280000
45.819781,-0.122488,-0.045384,1.024800,0.140000,-0.980000,-0.560000
45.827868,-0.219112,0.027816,0.934520,3.780000,1.260000,-1.540000
45.835956,-0.219112,0.015616,0.954528,-1.540000,0.560000,-0.700000
45.844043,-0.163968,-0.041968,1.037000,1.400000,1.120000,-0.980000
45.852130,-0.231312,0.068320,0.953552,0.840000,0.980000,-0.980000
45.860217,-0.204960,0.036112,1.065304,0.980000,-0.140000,-1.120000
45.868304,-0.183000,-0.008784,0.943304,1.120000,0.000000,-0.700000
45.876392,-0.198616,-0.019520,1.038464,0.840000,0.140000,-0.700000
45.884479,-0.182024,0.024888,0.937448,2.100000,1.120000,-0.700000
45.892566,-0.185928,0.037576,0.983808,-0.840000,0.840000,-0.840000
45.900653,-0.155184,-0.051240,0.999912,1.820000,0.560000,-1.400000
45.908741,-0.215696,0.026840,0.995032,1.120000,1.400000,-0.560000
45.916828,-0.226920,0.044896,0.950136,1.120000,1.260000,-0.560000
45.924915,-0.173240,0.002928,1.023824,-0.560000,-0.700000,-0.980000
45.933002,-0.215208,-0.010248,1.001376,2.520000,2.940000,-0.980000
45.941089,-0.251808,0.066856,0.992104,-0.280000,1.120000,-0.560000
45.949177,-0.150304,-0.020496,1.009672,1.540000,0.420000,-0.840000
45.957264,-0.187392,-0.005368,0.949160,0.140000,2.240000,-1.120000
45.965351,-0.208864,-0.004392,0.988688,1.540000,3.080000,-0.980000
45.973438,-0.231312,0.022448,0.948672,-0.140000,1.120000,-0.560000
45.981525,-0.165432,-0.014640,0.989176,0.700000,0.980000,-1.120000
45.989613,-0.195688,0.035136,1.002840,1.260000,0.700000,-0.700000
45.997700,-0.255224,0.051240,1.037976,1.260000,1.400000,-0.700000
46.005787,-0.180072,-0.002440,0.937448,0.140000,-0.560000,-0.560000
46.013874,-0.178608,-0.005856,1.054568,2.100000,0.700000,-1.120000
46.021961,-0.229360,0.041480,0.957456,0.560000,2.240000,-0.980000
46.030049,-0.151280,-0.006344,0.997960,1.120000,-0.840000,-0.840000
46.038136,-0.174704,-0.022936,0.988200,1.120000,2.240000,-1.120000
46.046223,-0.237168,0.024888,0.972096,1.400000,2.940000,-0.560000
46.054310,-0.215696,0.030256,0.981856,0.140000,0.980000,-0.840000
46.062397,-0.158112,-0.025864,0.979416,1.260000,0.420000,-1.120000
46.070485,-0.190808,0.024400,0.952088,0.280000,1.820000,-0.560000
46.078572,-0.223016,0.022936,1.045296,1.960000,1.400000,-1.400000
46.086659,-0.214720,0.033672,0.947696,-0.140000,0.980000,-0.280000
46.094746,-0.164456,-0.009760,1.081896,0.700000,1.540000,-0.840000
46.102833,-0.231312,0.038064,0.933544,2.940000,1.540000,-1.260000
46.110921,-0.227408,-0.002440,0.959408,-0.840000,0.560000,-0.840000
46.119008,-0.152256,-0.060024,0.964776,1.820000,0.140000,-1.120000
46.127095,-0.208864,0.041968,0.935984,1.260000,0.560000,-1.120000
46.135182,-0.208376,0.034160,1.024312,-0.140000,0.140000,-1.120000
46.143269,-0.178608,-0.014152,0.995520,0.980000,0.140000,-0.280000
46.151357,-0.193736,0.015128,1.016504,1.960000,1.540000,-0.840000
46.159444,-0.223504,0.071248,1.012112,0.140000,2.100000,-0.980000
46.167531,-0.191296,-0.014152,1.016016,1.120000,1.260000,-0.980000
46.175618,-0.190808,-0.011712,0.962824,0.700000,1.680000,-0.840000
46.183705,-0.218624,0.008296,0.986736,1.960000,2.800000,-1.260000
46.191793,-0.247904,0.026840,0.926224,0.420000,1.820000,-0.700000
46.199880,-0.148840,-0.023424,1.004792,-0.980000,-0.840000,-0.280000
46.207967,-0.192272,0.007320,0.986248,3.640000,1.960000,-1.400000
46.216054,-0.203496,0.060024,0.986736,-1.400000,0.980000,-0.420000
46.224141,-0.186904,-0.022448,1.054568,1.820000,2.660000,-0.840000
46.232229,-0.247904,0.023424,0.932568,1.400000,1.820000,-1.260000
46.240316,-0.211304,0.021472,1.027240,0.420000,0.560000,-0.420000
46.248403,-0.199592,-0.007320,0.925736,1.820000,0.280000,-1.120000
46.256490,-0.172752,-0.006344,0.961360,-0.420000,-1.120000,-0.700000
46.264577,-0.207888,0.003904,1.039928,2.520000,2.380000,-1.120000
46.272665,-0.220088,0.051240,0.925248,-0.140000,0.420000,-0.700000
46.280752,-0.172264,-0.005856,1.035048,1.540000,-0.560000,-0.700000
46.288839,-0.212768,-0.006832,0.977952,0.980000,1.260000,-1.120000
46.296926,-0.230824,0.057584,0.988688,0.840000,1.820000,-0.280000
46.305014,-0.202520,0.015128,1.010648,0.140000,-0.420000,-0.840000
46.313101,-0.165920,-0.037576,0.965264,2.240000,-0.560000,-1.120000
46.321188,-0.201544,0.044408,1.041880,0.560000,2.240000,-0.560000
46.329275,-0.202032,0.018544,0.976488,1.260000,1.400000,-0.980000
46.337362,-0.197640,-0.028792,0.997472,0.840000,0.840000,-0.980000
46.345450,-0.209840,0.029768,0.968192,1.400000,1.820000,-0.980000
46.353537,-0.221064,0.018056,0.965264,0.420000,1.400000,-0.840000
46.361624,-0.169824,-0.018056,0.988200,0.700000,-0.140000,-1.120000
46.369711,-0.195688,0.018056,1.010160,0.840000,2.100000,-0.840000
46.377798,-0.222528,0.047336,0.910120,1.680000,1.400000,-0.840000
46.385886,-0.205936,0.005368,1.021872,-0.700000,-1.260000,-0.700000
46.393973,-0.178608,-0.034648,0.979416,2.520000,-0.140000,-0.980000
46.402060,-0.228384,0.071248,1.016504,-0.140000,0.840000,-0.280000
46.410147,-0.187880,-0.001464,0.974048,1.400000,-0.700000,-1.260000
46.418234,-0.207400,-0.021472,1.011136,1.260000,-0.840000,-0.840000
46.426322,-0.192272,0.030744,0.995520,1.260000,1.960000,-0.700000
46.434409,-0.225456,0.007808,0.975512,0.560000,0.140000,-0.980000
46.442496,-0.157136,-0.008784,0.981856,0.560000,-0.560000,-0.980000
46.450583,-0.202520,-0.014152,0.967704,1.400000,1.260000,-0.280000
46.458670,-0.215208,0.067344,0.970144,0.840000,0.140000,-1.260000
46.466758,-0.207888,0.014640,0.995032,0.280000,0.140000,-0.840000
46.474845,-0.184464,-0.028304,0.965264,1.120000,-1.400000,-1.120000
46.482932,-0.212768,0.043432,1.036024,1.120000,0.700000,-0.420000
46.491019,-0.226432,0.017080,0.950624,0.840000,1.120000,-1.260000
46.499106,-0.204472,-0.030256,1.011624,0.280000,-0.840000,-0.700000
46.507194,-0.204472,0.022936,0.977464,1.540000,-0.280000,-0.980000
46.515281,-0.227896,0.032696,0.999424,0.420000,-0.280000,-0.980000
46.523368,-0.165432,-0.002440,0.966240,0.420000,-2.380000,-0.280000
46.531455,-0.182024,-0.005368,0.984296,2.380000,-0.140000,-0.980000
46.539542,-0.230336,0.039040,0.946232,0.420000,-1.680000,-0.840000
46.547630,-0.178608,-0.005368,1.011136,0.700000,-0.840000,-1.260000
46.555717,-0.207400,-0.000488,0.947208,0.560000,-1.540000,-0.980000
46.563804,-0.212768,0.044896,1.048224,1.260000,-2.100000,-0.700000
46.571891,-0.223016,0.022936,0.939888,0.980000,-2.660000,-0.980000
46.579978,-0.173728,-0.022448,1.028216,0.700000,-3.360000,-0.700000
46.588066,-0.197152,0.015128,0.987712,1.400000,-1.540000,-1.260000
46.596153,-0.230336,0.031720,0.998448,0.840000,-1.820000,-0.700000
46.604240,-0.212280,-0.015128,0.998936,0.560000,-2.100000,-1.260000
46.612327,-0.148840,0.000976,0.959896,1.120000,-2.240000,-0.980000
46.620414,-0.237656,0.036112,1.006256,0.700000,-0.980000,-0.280000
46.628502,-0.167872,-0.012688,0.960872,0.280000,-2.520000,-0.840000
46.636589,-0.167872,-0.002440,0.981856,1.680000,-0.980000,-1.120000
46.644676,-0.217160,0.031232,0.953552,0.420000,-2.240000,-0.840000
46.652763,-0.184952,0.011712,1.010648,1.260000,-2.100000,-0.840000
46.660850,-0.196664,-0.018544,0.926712,0.560000,-2.660000,-0.840000
46.668938,-0.207400,0.024888,1.064328,0.280000,-0.980000,-0.420000
46.677025,-0.241560,0.052704,0.982344,1.120000,-2.380000,-1.260000
46.685112,-0.163968,-0.012200,0.995520,0.280000,-4.480000,-0.700000
46.693199,-0.162016,0.012200,0.978928,1.540000,-3.220000,-1.260000
46.701287,-0.237168,0.020984,1.014552,1.820000,-2.800000,-1.260000
46.709374,-0.190320,-0.009760,0.928664,-0.280000,-2.520000,-0.560000
46.717461,-0.150304,-0.007808,1.016016,2.380000,-3.920000,-0.840000
46.725548,-0.207400,0.045384,0.967704,-0.420000,-2.520000,-0.700000
46.733635,-0.177144,-0.019520,0.984296,0.700000,-2.660000,-0.560000
46.741723,-0.201544,0.003416,0.973072,1.400000,-2.800000,-0.980000
46.749810,-0.180560,0.023912,0.985760,0.140000,-3.220000,-0.700000
46.757897,-0.225944,0.025376,1.021872,1.120000,-3.500000,-0.840000
46.765984,-0.176168,-0.007320,0.969656,0.980000,-4.340000,-0.420000
46.774071,-0.185928,0.024400,1.029680,0.560000,-3.640000,-0.840000
46.782159,-0.213744,0.046360,0.983808,1.120000,-3.360000,-1.400000
46.790246,-0.180560,-0.041480,0.982344,0.420000,-4.060000,-0.560000
46.798333,-0.165432,0.014152,0.962824,2.100000,-4.200000,-1.260000
46.806420,-0.209352,0.034160,1.014552,-0.700000,-3.220000,-0.700000
46.814507,-0.179584,0.005368,0.956968,1.540000,-4.340000,-0.980000
46.822595,-0.173728,-0.021472,0.970632,0.700000,-6.300000,-0.700000
46.830682,-0.161040,0.023912,0.994544,0.700000,-5.040000,-0.420000
46.838769,-0.189344,0.024888,0.997472,1.540000,-4.480000,-1.120000
46.846856,-0.178608,0.005856,0.969168,0.280000,-4.620000,-1.260000
46.854943,-0.178120,0.014152,1.053592,1.400000,-4.480000,-0.980000
46.863031,-0.239608,0.013176,0.976976,0.140000,-2.940000,-0.840000
46.871118,-0.159576,0.002440,0.956968,0.420000,-5.600000,-0.560000
46.879205,-0.154696,0.011712,1.023336,2.240000,-5.600000,-0.700000
46.887292,-0.200568,0.050264,1.005768,-0.420000,-4.340000,-0.840000
46.895379,-0.192272,-0.042944,0.975512,1.260000,-3.920000,-0.840000
46.903467,-0.144936,0.009760,0.945744,0.700000,-6.020000,-0.840000
46.911554,-0.177144,0.033184,1.038952,1.260000,-4.760000,-0.420000
46.919641,-0.218136,0.000488,0.954528,0.280000,-5.040000,-1.260000
46.927728,-0.171776,-0.026840,0.970632,1.540000,-6.580000,-0.560000
46.935815,-0.159088,0.041968,1.070184,0.140000,-4.900000,-0.420000
46.943903,-0.150792,0.019032,0.951112,0.700000,-4.760000,-1.260000
46.951990,-0.182512,-0.003904,0.979904,1.540000,-5.040000,-0.980000
46.960077,-0.152744,0.008296,1.014064,-0.700000,-5.600000,-0.840000
46.968164,-0.188368,0.020984,0.967704,2.380000,-4.620000,-0.420000
46.976251,-0.200568,0.014640,1.007720,0.420000,-6.160000,-0.980000
46.984339,-0.122000,-0.001464,0.996496,0.560000,-5.040000,-0.980000
46.992426,-0.167384,0.036600,1.029680,1.120000,-4.200000,-0.280000
47.000513,-0.174704,0.005368,0.974536,0.140000,-4.200000,-1.400000
47.008600,-0.168360,-0.010248,1.002840,1.680000,-5.600000,-0.840000
47.016687,-0.194712,0.040016,1.045296,0.140000,-4.060000,-0.560000
47.024775,-0.171776,-0.010248,0.906216,1.120000,-5.600000,-0.980000
47.032862,-0.150792,-0.002440,0.986736,0.700000,-6.860000,-0.420000
47.040949,-0.147376,0.013664,1.030656,1.260000,-5.180000,-0.840000
47.049036,-0.209840,0.013664,0.983808,1.120000,-4.900000,-1.120000
47.057124,-0.142008,-0.005856,0.947208,-0.840000,-7.560000,-0.560000
47.065211,-0.140056,0.006832,1.033096,2.380000,-5.600000,-1.120000
47.073298,-0.207888,0.037088,0.975512,-0.420000,-4.200000,-0.840000
47.081385,-0.105896,-0.015616,1.036024,0.840000,-7.000000,-0.980000
47.089472,-0.141032,0.020008,0.976488,2.380000,-5.320000,-0.840000
47.097560,-0.192760,0.027816,1.026264,-0.560000,-3.920000,-0.700000
47.105647,-0.162504,-0.037088,0.913536,1.260000,-5.320000,-1.680000
47.113734,-0.132736,0.017568,0.992104,0.840000,-6.300000,-0.280000
47.121821,-0.168848,0.038552,1.032608,0.140000,-4.760000,-0.980000
47.129908,-0.165432,0.010248,0.995032,1.680000,-4.900000,-1.540000
47.137996,-0.136640,0.000976,1.018456,-0.280000,-5.880000,-0.280000
47.146083,-0.153720,0.014152,1.026264,0.840000,-3.920000,-0.840000
47.154170,-0.194224,0.028792,0.922808,1.400000,-5.460000,-0.420000
47.162257,-0.117608,-0.003904,1.091656,0.560000,-7.140000,-0.560000
47.170344,-0.121512,0.022936,1.021384,0.560000,-4.340000,-1.260000
47.178432,-0.169336,0.024400,0.931592,1.400000,-4.760000,-0.560000
47.186519,-0.173240,-0.001464,1.053592,0.980000,-6.720000,-0.840000
47.194606,-0.112240,0.002440,0.995032,0.560000,-5.320000,-0.560000
47.202693,-0.167384,0.020008,0.989664,1.260000,-3.220000,-0.560000
47.210780,-0.169336,0.002928,0.954040,-0.140000,-5.600000,-1.540000
47.218868,-0.107360,-0.015128,1.001864,0.560000,-6.020000,-0.280000
47.226955,-0.162992,0.023424,1.047736,0.980000,-3.640000,-0.980000
47.235042,-0.150304,0.032696,0.941840,0.700000,-6.160000,-1.120000
47.243129,-0.084424,-0.030256,1.023824,0.700000,-6.160000,0.000000
47.251216,-0.168848,0.019520,1.002352,1.120000,-2.380000,-1.540000
47.259304,-0.170800,0.027816,0.936960,0.000000,-6.300000,-0.420000
47.267391,-0.076616,-0.017568,1.081896,1.680000,-6.300000,-0.420000
47.275478,-0.164456,0.031232,0.986248,-0.280000,-2.940000,-1.120000
47.283565,-0.203008,0.026352,0.916464,0.700000,-4.200000,-0.560000
47.291652,-0.109800,-0.004392,1.034560,1.260000,-7.840000,-0.560000
47.299740,-0.110776,0.016592,0.997472,-0.420000,-5.320000,-0.560000
47.307827,-0.160552,-0.007808,0.990152,1.820000,-4.760000,-0.700000
47.315914,-0.149328,0.018544,1.000888,0.140000,-7.560000,-0.980000
47.324001,-0.083936,-0.001464,1.014064,-0.280000,-6.020000,0.140000
47.332089,-0.162992,0.029280,0.993568,2.940000,-4.340000,-1.400000
47.340176,-0.186904,0.007320,0.977464,-0.560000,-5.880000,-0.980000
47.348263,-0.073200,-0.058560,1.067256,0.420000,-3.920000,-0.420000
47.356350,-0.149328,0.078080,0.948184,1.120000,-3.640000,-0.700000
47.364437,-0.139568,0.029280,0.983320,0.980000,-6.720000,-0.840000
47.372525,-0.130296,-0.028792,1.062864,0.420000,-7.000000,-0.980000
47.380612,-0.118096,-0.000488,0.960872,1.400000,-3.500000,-0.700000
47.388699,-0.156160,0.036600,1.037000,1.400000,-4.620000,-0.560000
47.396786,-0.105896,-0.003416,0.989176,-0.420000,-5.740000,-0.700000
47.404873,-0.091744,-0.007808,0.949648,1.680000,-3.920000,-0.840000
47.412961,-0.169336,0.044896,1.008208,0.700000,-5.320000,-0.700000
47.421048,-0.122488,0.008296,1.015040,-0.560000,-6.160000,-0.700000
47.429135,-0.073688,-0.026840,1.019432,2.380000,-5.320000,-0.280000
47.437222,-0.155184,0.047336,1.025776,0.140000,-3.220000,-1.260000
47.445309,-0.138592,0.011224,0.974048,0.000000,-5.040000,-1.260000
47.453397,-0.081496,-0.049288,1.006256,2.100000,-6.580000,0.140000
47.461484,-0.156160,0.041480,0.979416,0.280000,-4.200000,-0.700000
47.469571,-0.098576,0.034648,0.981856,0.560000,-5.740000,-1.400000
47.477658,-0.127856,-0.037576,0.986248,0.980000,-5.600000,-0.700000
47.485745,-0.123464,0.022936,1.029192,0.280000,-4.760000,-0.980000
47.493833,-0.128344,0.024888,0.977952,1.540000,-4.620000,-0.840000
47.501920,-0.099552,-0.007320,1.021872,-0.280000,-4.900000,-0.420000
47.510007,-0.092232,-0.014152,0.994544,0.980000,-5.040000,-0.980000
47.518094,-0.115656,0.070272,1.018456,2.100000,-4.340000,-0.700000
47.526181,-0.144936,0.023912,1.018944,-0.840000,-3.360000,-1.120000
47.534269,-0.119560,-0.050264,0.963800,1.540000,-4.900000,-0.700000
47.542356,-0.144936,0.039528,1.066280,1.540000,-5.040000,-0.420000
47.550443,-0.139568,0.053680,1.001376,-0.280000,-4.620000,-0.980000
47.558530,-0.064416,-0.047824,1.012600,1.120000,-6.160000,-0.840000
47.566617,-0.093696,0.029280,0.985760,0.280000,-4.760000,-0.840000
47.574705,-0.146400,0.010736,0.987224,1.680000,-4.760000,-0.840000
47.582792,-0.106384,-0.000976,1.000400,-0.420000,-5.320000,-0.700000
47.590879,-0.048800,-0.004392,0.989664,1.820000,-5.320000,-0.700000
47.598966,-0.125904,0.020008,1.016016,0.840000,-3.640000,-0.980000
47.607054,-0.123952,0.009760,0.980880,0.000000,-4.620000,-0.420000
47.615141,-0.079544,-0.003416,1.038464,0.840000,-4.760000,-0.840000
