Time [s],lsm6dsv16x_acc_x [g],lsm6dsv16x_acc_y [g],lsm6dsv16x_acc_z [g],lsm6dsv16x_gyro_x [dps],lsm6dsv16x_gyro_y [dps],lsm6dsv16x_gyro_z [dps]
60.522327,-0.033672,0.026840,0.982832,0.700000,0.840000,-0.980000
60.530414,-0.051240,0.018544,1.029680,0.420000,0.840000,-0.980000
60.538501,-0.055632,0.001464,0.916952,1.120000,-0.700000,-1.120000
60.546588,-0.015128,-0.019032,1.075064,1.120000,-0.560000,-0.560000
60.554676,-0.002440,0.028792,1.005768,0.000000,0.980000,-0.560000
60.562763,-0.043920,-0.011712,1.008208,1.680000,2.520000,-1.120000
60.570850,-0.058560,0.025376,0.952576,0.420000,-0.560000,-0.840000
60.578937,0.028304,0.005368,1.082384,1.260000,-0.700000,-0.420000
60.587025,-0.045872,0.048800,1.055544,0.980000,1.680000,-0.980000
60.595112,-0.104920,-0.017568,0.976000,0.980000,1.960000,-0.980000
60.603199,-0.027328,0.014152,1.021872,0.560000,-0.140000,-0.420000
60.611286,-0.024400,0.014152,1.017480,1.540000,0.560000,-0.560000
60.619373,-0.074176,0.012200,0.939888,0.560000,1.540000,-1.120000
60.627461,0.022448,-0.014640,0.992592,1.400000,-0.140000,-1.120000
60.635548,-0.013176,0.004392,1.001864,0.140000,0.840000,-0.700000
60.643635,-0.045872,0.000976,0.977464,1.120000,1.120000,-0.840000
60.651722,-0.047336,0.008296,1.014064,0.700000,0.140000,-0.840000
60.659809,-0.018056,0.007320,1.015528,1.120000,-0.140000,-0.560000
60.667897,-0.042456,0.029768,1.120936,-0.140000,0.980000,-0.420000
60.675984,-0.047824,0.023424,0.950624,1.820000,1.540000,-1.260000
60.684071,-0.045872,-0.000976,1.053592,0.980000,-0.560000,-0.140000
60.692158,-0.050752,0.024888,1.069208,0.840000,2.800000,-1.120000
60.700246,-0.054656,0.013176,0.935008,1.540000,2.100000,-1.260000
60.708333,-0.003904,-0.018544,0.920856,-0.700000,0.140000,-0.700000
60.716420,-0.004880,-0.025864,1.039928,1.400000,0.280000,-0.840000
60.724507,-0.051728,0.060512,0.988688,1.120000,1.960000,-0.840000
60.732594,-0.058072,0.022936,1.050664,0.140000,0.420000,-0.980000
60.740682,-0.020008,-0.013176,0.994056,2.800000,-1.400000,-0.560000
60.748769,-0.061976,0.038552,1.092632,-0.420000,1.120000,-0.280000
60.756856,-0.059536,-0.011712,0.938424,2.520000,1.540000,-1.400000
60.764943,0.000976,-0.020008,0.925248,-1.120000,-1.120000,-0.280000
60.773031,0.000976,0.003904,1.058472,2.380000,0.560000,-1.260000
60.781118,-0.107848,0.044896,0.940864,0.280000,0.560000,-1.120000
60.789205,-0.006344,-0.028792,1.035048,0.420000,-1.960000,-0.560000
60.797292,0.005368,0.018544,1.013088,1.960000,-1.960000,-0.980000
60.805379,-0.048800,0.029280,1.062376,0.980000,-0.140000,-0.420000
60.813467,-0.064904,0.005368,0.946232,1.540000,0.280000,-1.120000
60.821554,0.008296,-0.003416,1.095072,0.280000,-0.420000,-0.280000
60.829641,-0.030744,0.026352,1.074088,0.000000,3.640000,-1.260000
60.837728,-0.083448,0.004392,0.946720,1.960000,3.360000,-0.560000
60.845815,-0.002928,0.000488,0.948672,-0.560000,0.980000,-0.840000
60.853903,-0.008784,0.012688,1.005280,1.680000,0.560000,-1.260000
60.861990,-0.067344,0.027816,1.002352,0.280000,0.700000,-0.840000
60.870077,-0.061488,0.005368,1.038464,0.420000,-0.700000,-0.980000
60.878164,0.001952,-0.009272,1.039440,2.520000,-0.420000,-0.420000
60.886252,-0.032696,0.009760,1.059448,-0.420000,3.080000,-0.140000
60.894339,-0.061976,0.019520,0.956480,2.380000,2.520000,-1.120000
60.902426,-0.031232,0.020984,0.994056,1.260000,-0.420000,-0.700000
60.910513,-0.002928,0.006344,1.040904,-0.280000,0.840000,-0.560000
60.918600,-0.061000,-0.000488,1.008208,2.100000,2.380000,-1.120000
60.926688,-0.061488,0.018544,0.936960,0.700000,-0.700000,-0.700000
60.934775,0.021960,-0.023912,1.099464,-0.420000,-0.560000,-0.420000
60.942862,-0.064904,0.021472,0.963312,3.080000,2.800000,-1.400000
60.950949,-0.071736,0.020496,0.979416,-0.840000,-0.280000,-0.840000
60.959036,0.009272,-0.035624,0.989176,2.240000,-0.980000,-0.700000
60.967124,-0.064416,0.027816,1.046272,-0.140000,0.980000,-0.140000
60.975211,-0.059048,0.038552,1.001376,0.420000,1.960000,-0.980000
60.983298,-0.013664,-0.007320,0.965752,1.540000,-0.700000,-0.700000
60.991385,0.001464,0.028792,1.063840,-0.420000,-0.840000,-0.420000
60.999473,-0.060512,0.014640,1.020408,2.100000,2.100000,-0.840000
61.007560,-0.028304,0.004392,0.948672,1.260000,-0.980000,-0.840000
61.015647,-0.021472,-0.021960,1.085800,1.540000,-1.540000,0.560000
61.023734,-0.052704,0.003904,0.943792,1.120000,2.940000,-1.400000
61.031821,-0.094184,0.046360,0.968192,0.280000,-1.960000,-0.700000
61.039909,-0.036600,-0.004880,1.066280,0.840000,-2.100000,-0.840000
61.047996,0.005856,0.020496,1.010648,0.000000,-1.540000,-0.560000
61.056083,-0.048800,0.014152,1.007232,1.680000,0.560000,-1.400000
61.064170,-0.024400,0.000000,1.013576,0.280000,-1.540000,-0.560000
61.072257,0.023424,-0.000976,1.036024,0.280000,-0.140000,-0.420000
61.080345,-0.098088,0.015128,0.970632,2.520000,2.240000,-1.260000
61.088432,-0.047824,0.011224,0.976488,-0.560000,-1.820000,-0.840000
61.096519,0.020496,-0.024888,1.068232,2.240000,-1.680000,-0.140000
61.104606,-0.047336,0.056120,1.028216,0.140000,0.980000,-0.840000
61.112694,-0.044408,-0.010736,0.970632,1.400000,0.560000,-1.260000
61.120781,-0.031232,-0.012200,1.001376,0.140000,0.140000,-0.840000
61.128868,0.001952,0.010736,1.016992,0.560000,1.540000,-0.700000
61.136955,-0.064904,0.047824,0.977952,1.540000,1.540000,-1.120000
61.145042,-0.037576,-0.003904,1.016992,1.260000,-0.700000,-0.700000
61.153130,-0.003416,-0.006344,1.054568,0.280000,-0.280000,-0.420000
61.161217,-0.080520,0.012688,1.016504,2.240000,2.800000,-1.400000
61.169304,-0.047336,0.036112,0.995520,-0.840000,0.140000,-0.280000
61.177391,0.028304,-0.031232,1.075064,1.960000,1.260000,-0.700000
61.185479,-0.050264,0.023912,0.938424,0.840000,3.080000,-1.400000
61.193566,-0.083448,0.008296,0.927688,1.120000,1.400000,-0.700000
61.201653,-0.023424,-0.001952,1.018944,0.420000,-2.380000,-0.840000
61.209740,-0.002440,0.010248,1.076040,0.420000,-2.100000,-0.700000
61.217827,-0.040016,0.013176,1.003328,1.820000,1.400000,-0.980000
61.225915,-0.059048,0.025864,1.010648,0.000000,1.400000,-0.840000
61.234002,0.021960,-0.004880,1.042856,0.700000,-0.840000,-0.700000
61.242089,-0.061000,0.007320,1.064816,1.400000,3.360000,-0.840000
61.250176,-0.061976,0.018056,0.907680,0.700000,1.400000,-0.840000
61.258263,-0.004392,-0.015128,1.030168,1.260000,0.700000,-0.700000
61.266351,-0.013664,0.020984,0.949648,-0.140000,2.240000,-0.980000
61.274438,-0.055144,0.004880,1.021384,1.540000,1.820000,-0.700000
61.282525,-0.058560,0.035624,1.018944,0.560000,-0.420000,-0.840000
61.290612,-0.000488,-0.009272,1.062864,1.400000,-0.560000,-0.700000
61.298700,-0.062952,0.040016,1.008208,1.260000,1.820000,-0.840000
61.306787,-0.068808,0.001952,0.984296,1.540000,0.140000,-0.980000
61.314874,-0.004392,-0.023424,1.038952,-0.140000,-1.120000,-0.700000
61.322961,-0.030256,0.011224,1.009184,1.120000,3.080000,-0.420000
61.331048,-0.073200,0.041968,0.944768,0.980000,0.840000,-1.120000
61.339136,0.018056,-0.017568,1.001376,0.840000,-1.400000,-0.560000
61.347223,-0.012688,-0.005856,1.022848,0.980000,1.400000,-1.120000
61.355310,-0.056608,0.022936,0.970144,0.980000,1.680000,-0.980000
61.363397,-0.041480,-0.008784,1.063352,1.260000,0.000000,-0.420000
61.371484,0.007320,-0.009760,1.017968,0.140000,1.120000,-0.840000
61.379572,-0.074664,0.030256,1.062864,1.820000,4.060000,-0.280000
61.387659,-0.060024,0.058560,0.962824,0.420000,1.260000,-1.120000
61.395746,0.016104,-0.008296,1.024312,1.120000,-0.140000,-0.140000
61.403833,-0.007320,-0.018056,0.949648,0.560000,2.100000,-1.260000
61.411921,-0.072712,0.016592,1.006256,2.100000,2.100000,-1.400000
61.420008,-0.051728,0.014152,0.980392,-1.260000,-0.140000,-0.560000
61.428095,-0.000976,-0.020496,1.100440,1.680000,0.700000,-0.700000
61.436182,-0.088816,0.052704,0.926224,1.400000,1.540000,-0.840000
61.444269,-0.046848,0.030256,1.046760,0.000000,-1.540000,-0.560000
61.452357,0.009760,-0.042456,0.995520,1.400000,-0.420000,-1.120000
61.460444,-0.063928,0.025864,1.002840,1.260000,0.980000,-0.560000
61.468531,-0.050264,0.028792,1.026752,0.000000,0.560000,-0.980000
61.476618,0.005856,-0.014152,0.979904,1.400000,0.000000,-0.700000
61.484705,-0.020984,-0.002928,1.049688,0.000000,1.680000,-0.840000
61.492793,-0.063928,0.026840,0.975024,1.960000,1.820000,-1.400000
61.500880,-0.051240,0.008296,1.021384,0.140000,-0.140000,-0.140000
61.508967,-0.034160,-0.008296,1.057984,0.980000,0.980000,-0.980000
61.517054,-0.065880,0.044896,1.005768,2.520000,0.980000,-0.980000
61.525142,-0.022448,-0.000488,1.039440,-2.380000,0.980000,-0.280000
61.533229,0.019032,-0.042456,0.990152,3.080000,1.960000,-0.840000
61.541316,-0.085400,0.062464,0.917440,1.120000,2.100000,-1.260000
61.549403,-0.067832,0.027328,0.995032,-1.260000,-1.120000,-0.700000
61.557490,-0.003416,-0.024888,1.007720,2.100000,-2.240000,-1.400000
61.565578,-0.007320,-0.008784,1.030168,1.120000,-0.560000,-0.560000
61.573665,-0.019520,0.026840,1.059936,0.840000,2.520000,-0.560000
61.581752,-0.041480,0.018056,0.991128,0.980000,0.560000,-0.700000
61.589839,-0.053680,0.010248,1.050176,1.960000,0.140000,-0.700000
61.597926,-0.092232,0.013664,0.982344,0.420000,0.840000,-1.120000
61.606014,-0.023424,0.005856,0.991128,0.140000,-0.280000,-0.280000
61.614101,-0.013176,-0.014640,0.959408,1.260000,-0.280000,-1.120000
61.622188,-0.028792,0.020008,0.998448,0.980000,-0.700000,-0.560000
61.630275,-0.025864,0.003416,1.046272,0.420000,0.700000,-0.700000
61.638363,-0.016592,-0.002928,0.934032,0.980000,-0.140000,-1.260000
61.646450,-0.031720,0.004392,1.073600,1.260000,-0.140000,-0.420000
61.654537,-0.051728,0.041480,0.979416,0.560000,-0.420000,-1.120000
61.662624,-0.076128,0.003904,1.011136,0.560000,-1.260000,-0.420000
61.670711,-0.033184,-0.012200,0.998936,0.560000,-1.540000,-1.120000
61.678799,-0.028792,0.020008,1.023336,1.680000,-1.540000,-0.700000
61.686886,-0.013664,0.040504,1.006744,-0.840000,-1.680000,-0.420000
61.694973,0.018056,-0.010248,1.021384,2.100000,-0.140000,-1.260000
61.703060,-0.055632,0.007320,1.057008,1.540000,0.980000,-0.700000
61.711147,-0.061976,-0.020008,1.009184,-0.280000,1.820000,-0.840000
61.719235,-0.056608,0.020984,0.936472,0.840000,0.980000,-1.120000
61.727322,-0.003904,0.015616,1.000400,0.560000,-1.120000,-0.700000
61.735409,-0.006832,0.001952,1.091656,1.540000,0.280000,-0.420000
61.743496,-0.041968,0.018056,1.034072,0.840000,2.100000,-0.840000
61.751584,-0.050264,0.022936,0.929640,0.280000,0.560000,-0.560000
61.759671,-0.033672,0.012688,0.972096,0.420000,-1.540000,-0.840000
61.767758,0.004392,-0.000976,1.138016,1.260000,-0.280000,-0.840000
61.775845,-0.064904,-0.040504,0.963800,1.120000,2.660000,-0.700000
61.783932,-0.063440,0.048312,0.928176,0.700000,0.980000,-0.700000
61.792020,-0.043432,0.051728,1.081408,0.000000,-0.560000,-0.840000
61.800107,0.001952,-0.037088,1.002840,0.840000,0.000000,-0.980000
61.808194,-0.001464,-0.022936,0.997960,0.840000,0.280000,-0.560000
61.816281,-0.056608,0.037576,1.048224,0.980000,0.980000,-0.560000
61.824368,-0.061488,0.044896,0.951600,1.680000,2.240000,-1.540000
61.832456,-0.030256,-0.018056,1.002352,0.980000,-0.700000,-0.700000
61.840543,-0.006344,0.019032,1.046760,0.140000,-0.980000,-0.140000
61.848630,0.008296,-0.023912,1.057008,1.260000,1.120000,-0.980000
61.856717,-0.056608,0.001952,0.944280,1.400000,2.520000,-1.120000
61.864805,-0.092232,0.064416,0.990152,0.840000,0.700000,-0.700000
61.872892,-0.036112,-0.002440,1.049688,1.680000,-0.980000,-0.700000
61.880979,0.039528,-0.031720,0.937448,-0.560000,-0.560000,-1.120000
61.889066,-0.029280,0.011224,1.112640,0.560000,1.400000,-0.980000
61.897153,-0.093208,0.010736,0.966240,1.820000,2.240000,-0.700000
61.905241,-0.058072,0.039040,0.961360,0.700000,0.840000,-0.840000
61.913328,-0.034160,0.003416,1.034072,0.560000,-0.280000,-0.560000
61.921415,0.020008,-0.009760,0.969656,0.280000,-1.120000,-0.560000
61.929502,-0.016592,0.014640,1.111176,0.420000,0.560000,-0.980000
61.937589,-0.070760,-0.005368,0.972584,1.820000,2.660000,-1.120000
61.945677,-0.062952,0.020984,0.944280,1.120000,0.280000,-0.560000
61.953764,-0.037576,0.040992,1.037976,0.560000,-0.420000,-0.980000
61.961851,0.019032,-0.037088,1.019432,0.140000,-0.280000,-0.700000
61.969938,-0.002440,-0.000488,1.057008,2.100000,0.700000,-0.420000
61.978026,-0.061976,0.037576,0.978928,1.120000,1.960000,-0.980000
61.986113,-0.079056,0.009760,0.971608,0.560000,0.840000,-1.260000
61.994200,-0.033184,0.005856,1.009672,0.140000,-0.280000,-0.700000
62.002287,0.008784,0.002440,1.049688,1.260000,-0.280000,-0.420000
62.010374,-0.043920,0.010248,0.998448,0.840000,0.980000,-0.980000
62.018462,-0.032696,0.005856,1.031144,0.420000,0.840000,-0.840000
62.026549,-0.003416,-0.020496,0.976976,1.820000,1.680000,-1.260000
62.034636,-0.117120,0.041480,1.007720,1.120000,1.120000,-0.420000
62.042723,-0.017080,0.008296,0.950136,-0.140000,-1.120000,-0.420000
62.050810,-0.005856,0.028792,1.109712,0.280000,0.140000,-0.980000
62.058898,-0.020008,-0.033184,0.950136,0.980000,0.980000,-1.120000
62.066985,-0.064904,0.029768,1.037976,1.260000,0.000000,-0.280000
62.075072,0.005368,-0.012688,0.988688,0.840000,0.840000,-0.980000
62.083159,-0.057096,0.014152,1.021872,1.400000,1.680000,-1.120000
62.091247,-0.072712,0.025864,0.997960,0.980000,0.980000,-0.420000
62.099334,-0.024888,0.023912,1.038464,0.280000,0.420000,-0.840000
62.107421,0.005856,-0.023912,0.939888,0.280000,-0.420000,-1.260000
62.115508,-0.030744,0.001952,1.091168,1.400000,0.280000,-0.560000
62.123595,-0.032696,-0.000976,1.001864,2.100000,1.960000,-0.700000
62.131683,-0.058072,0.028792,0.952088,1.540000,0.420000,-0.840000
62.139770,-0.052704,0.037576,1.029192,-0.140000,0.280000,-0.560000
62.147857,-0.001952,-0.012688,1.029192,0.700000,0.000000,-0.980000
62.155944,-0.026840,-0.013176,0.986248,0.980000,0.700000,-0.700000
62.164031,-0.017080,0.014152,1.038464,0.840000,0.700000,-1.120000
62.172119,-0.069784,0.020008,1.002352,1.680000,1.820000,-0.700000
62.180206,-0.039040,0.019520,0.958432,0.700000,0.840000,-0.700000
62.188293,-0.065880,0.040016,1.063352,0.980000,0.140000,-0.840000
62.196380,0.000976,-0.029768,0.948672,0.000000,-0.560000,-0.700000
62.204468,0.009760,-0.020496,1.073600,0.980000,0.140000,-0.700000
62.212555,-0.053680,0.032696,1.013576,1.260000,1.680000,-0.700000
62.220642,-0.067344,0.020496,0.965752,0.980000,1.960000,-1.120000
62.228729,-0.047824,0.020984,1.016504,0.560000,-0.140000,-0.840000
62.236816,0.018544,-0.025376,1.002840,0.700000,-0.280000,-0.980000
62.244904,-0.017080,0.010248,1.062864,0.980000,-0.140000,-0.140000
62.252991,-0.030256,0.011712,0.979904,1.400000,0.560000,-0.700000
62.261078,-0.066368,0.018544,1.009672,0.700000,1.960000,-1.260000
62.269165,-0.078080,0.012200,0.948184,0.980000,0.980000,-0.980000
62.277252,-0.043920,0.013176,1.023824,0.560000,-0.560000,-0.560000
62.285340,0.046848,-0.004392,1.060912,0.420000,-0.560000,-0.700000
62.293427,-0.038552,-0.001952,1.044320,1.260000,1.680000,-0.700000
62.301514,-0.066368,0.020496,0.960384,0.700000,1.540000,-0.840000
62.309601,-0.051240,0.021472,0.986736,0.840000,0.980000,-0.980000
62.317689,-0.059048,0.016104,1.018944,1.120000,0.140000,-0.980000
62.325776,0.024888,-0.024400,1.006256,0.280000,-0.980000,-0.560000
62.333863,-0.014152,0.016104,1.077016,1.960000,0.140000,-0.560000
62.341950,-0.042456,-0.003416,0.932080,0.420000,2.100000,-1.120000
62.350037,-0.079056,0.026840,1.042856,1.400000,1.260000,-0.980000
62.358125,-0.029280,0.014152,0.946232,0.840000,0.140000,-0.700000
62.366212,-0.004880,0.022448,1.085800,1.400000,-0.980000,-0.840000
62.374299,-0.027328,-0.012688,1.004304,0.840000,0.280000,-0.560000
62.382386,-0.014152,-0.018056,0.971120,-0.280000,0.560000,-0.700000
62.390473,-0.079056,0.042944,1.065792,1.400000,1.960000,-0.980000
62.398561,-0.055632,0.001464,0.894504,1.400000,0.980000,-1.120000
62.406648,-0.039528,0.018544,1.075552,0.280000,-0.980000,-0.280000
62.414735,0.034648,-0.007808,1.012112,0.840000,-0.280000,-0.560000
62.422822,-0.028792,-0.009760,1.019432,1.260000,1.540000,-0.980000
62.430909,-0.090280,0.039040,1.002840,1.120000,1.820000,-0.980000
62.438997,-0.019032,-0.003904,0.992592,1.120000,0.700000,-1.120000
62.447084,-0.038064,0.029280,1.007232,0.980000,0.280000,-0.840000
62.455171,-0.023424,-0.009760,1.025776,0.700000,-0.840000,-0.280000
62.463258,0.017080,0.004880,1.046272,0.840000,0.420000,-0.840000
62.471346,-0.068808,-0.003904,0.990152,1.680000,2.940000,-1.540000
62.479433,-0.090280,0.014152,0.944280,1.120000,0.840000,-0.560000
62.487520,0.010248,0.044408,1.013576,0.280000,-0.420000,-0.420000
62.495607,0.060024,-0.013176,1.053592,1.820000,1.260000,-1.680000
62.503694,-0.037088,-0.005856,1.015040,0.840000,4.200000,-0.420000
62.511782,-0.084912,0.018056,1.129720,1.540000,4.480000,-0.420000
62.519869,-0.110776,0.027328,0.882792,0.280000,2.940000,-1.260000
62.527956,-0.006832,-0.018544,0.956480,0.700000,-1.540000,-0.420000
62.536043,-0.021472,0.005368,0.992104,2.240000,-0.700000,-1.540000
62.544131,-0.036600,0.039528,0.967216,-0.840000,-1.680000,0.000000
62.552218,0.022936,-0.039040,1.100928,1.960000,-0.280000,-0.700000
62.560305,-0.030256,0.030256,0.941840,1.120000,1.540000,-1.120000
62.568392,-0.086864,0.037088,1.043832,1.260000,0.000000,-0.700000
62.576479,-0.088816,0.009760,1.017480,0.140000,-0.700000,-1.680000
62.584567,-0.003416,-0.019032,1.049688,0.840000,-1.260000,-0.280000
62.592654,-0.045872,0.036600,1.010160,0.840000,0.700000,-0.420000
62.600741,-0.067832,0.013176,1.008696,0.560000,0.000000,-0.840000
62.608828,0.005368,-0.035136,1.001376,0.560000,0.280000,-0.840000
62.616915,-0.007808,0.001952,0.984296,1.120000,2.100000,-0.840000
62.625003,-0.038552,0.034648,0.980392,1.260000,1.680000,-1.260000
62.633090,-0.031720,-0.005856,0.975512,0.420000,-0.420000,-0.560000
62.641177,-0.025864,0.001464,1.045296,0.840000,-0.700000,-0.560000
62.649264,-0.034648,0.038064,1.085312,1.400000,0.560000,-0.840000
62.657352,-0.040016,0.020496,0.995032,-0.140000,1.120000,-0.420000
62.665439,-0.038064,-0.014152,0.996984,3.640000,0.420000,-1.260000
62.673526,-0.028304,0.031232,0.998936,-0.840000,1.120000,-0.840000
62.681613,-0.016104,-0.016104,1.033096,1.820000,1.960000,-0.980000
62.689700,-0.072224,0.000488,0.931104,-0.560000,1.680000,-0.840000
62.697788,-0.022936,-0.006832,1.002352,0.840000,-0.420000,-0.840000
62.705875,-0.060024,0.040016,0.966728,1.540000,-1.120000,-1.120000
62.713962,-0.006832,0.012688,1.134112,-0.560000,-1.540000,0.000000
62.722049,0.002440,-0.036600,0.983320,3.080000,2.100000,-0.980000
62.730136,-0.106872,0.068808,0.979416,1.120000,1.120000,-0.980000
62.738224,-0.053680,0.014152,0.979904,-0.840000,-0.280000,-0.700000
62.746311,0.018056,-0.008296,1.071648,0.560000,-0.140000,-1.120000
62.754398,0.003904,-0.006344,1.002840,2.240000,1.680000,-0.420000
62.762485,-0.072712,0.024400,1.040416,1.260000,2.380000,-0.840000
62.770573,-0.049776,-0.012200,0.910608,-0.420000,0.980000,-0.980000
62.778660,-0.029280,-0.005856,1.075064,1.540000,0.000000,-1.120000
62.786747,-0.009272,0.023424,1.021384,0.700000,0.840000,-0.560000
62.794834,-0.043920,0.017080,1.031632,-0.140000,2.520000,0.280000
62.802921,-0.052216,-0.004880,0.921832,3.220000,1.120000,-1.400000
62.811009,-0.054168,0.034648,0.984784,-0.280000,-0.420000,-0.420000
62.819096,-0.016592,0.010248,1.053104,0.560000,-0.140000,-1.540000
62.827183,-0.042944,-0.008296,0.979904,0.560000,0.000000,-1.120000
62.835270,-0.005856,-0.002440,1.068232,1.400000,-1.400000,-0.140000
62.843358,-0.045872,0.044408,1.054568,0.980000,1.540000,-1.120000
62.851445,-0.036600,-0.004880,0.945256,0.980000,0.980000,-0.560000
62.859532,-0.043432,-0.015128,1.041880,1.260000,0.700000,-0.840000
62.867619,0.015616,0.025376,0.958920,0.700000,0.840000,-0.700000
62.875706,-0.036112,0.017568,1.001376,0.000000,1.960000,-0.700000
62.883794,-0.050752,0.009272,0.948672,0.840000,0.140000,-1.540000
62.891881,-0.056608,0.010736,1.047248,1.960000,-1.400000,0.280000
62.899968,-0.018544,0.037088,1.070672,0.140000,-0.140000,-1.260000
62.908055,-0.015616,-0.037576,0.989176,1.540000,1.120000,-1.260000
62.916142,-0.031232,0.003904,1.014064,0.140000,0.840000,-0.420000
62.924230,-0.061976,0.020008,1.041392,1.820000,1.680000,-0.700000
62.932317,-0.083448,0.026840,0.934032,0.560000,1.120000,-0.980000
62.940404,0.003904,-0.004880,1.044808,0.560000,-1.400000,-0.420000
62.948491,-0.010736,0.002440,1.024800,0.980000,1.680000,-0.840000
62.956579,-0.058560,0.028304,0.965752,1.120000,1.400000,-1.120000
62.964666,-0.012200,-0.026352,0.979904,0.420000,0.000000,-0.420000
62.972753,-0.002440,0.046848,1.010648,0.980000,0.700000,-1.120000
62.980840,-0.042944,0.019032,1.026752,0.700000,1.400000,-0.840000
62.988927,-0.035624,-0.006832,1.021384,0.840000,1.400000,-1.400000
62.997015,-0.042944,0.002440,1.043832,1.260000,0.280000,0.280000
63.005102,-0.038552,0.021960,1.060424,0.980000,2.100000,-0.840000
63.013189,-0.050264,0.008296,0.949648,1.260000,1.260000,-1.260000
63.021276,-0.023912,-0.009760,0.999424,0.420000,0.980000,-0.420000
63.029363,-0.021472,0.020496,1.030656,1.680000,1.260000,-0.980000
63.037451,-0.067832,0.020496,0.967704,0.000000,1.680000,-1.120000
63.045538,-0.011224,-0.018544,0.984784,1.120000,-0.980000,-0.980000
63.053625,-0.040016,0.015616,1.061888,0.840000,0.420000,-0.700000
63.061712,-0.044408,0.035624,1.012600,1.400000,1.540000,-0.840000
63.069800,-0.071736,0.027328,1.035536,0.000000,0.700000,-0.700000
63.077887,-0.011224,-0.030744,0.975024,1.680000,-0.560000,-0.840000
63.085974,-0.055144,0.014152,1.035536,0.000000,0.420000,-0.700000
63.094061,0.004880,0.000976,0.980392,1.680000,1.400000,-1.400000
63.102148,-0.025864,-0.016592,0.934032,0.700000,0.700000,-0.840000
63.110236,-0.010248,0.002440,1.062864,0.280000,1.540000,-1.260000
63.118323,-0.030256,0.021960,0.985760,1.960000,3.640000,-0.980000
63.126410,-0.008784,-0.008296,1.019920,1.400000,2.380000,-0.560000
63.134497,0.003904,0.038064,1.005768,0.560000,3.500000,-0.560000
63.142585,-0.108336,0.056608,1.042856,1.400000,4.900000,-1.120000
63.150672,-0.060512,0.016104,0.966240,0.420000,0.560000,-0.980000
63.158759,0.001464,-0.025376,1.110688,1.540000,0.840000,-0.140000
63.166846,-0.036600,0.036600,1.056520,1.260000,4.620000,-0.980000
63.174933,-0.085400,-0.004880,0.936960,1.540000,5.320000,-0.840000
63.183021,-0.020984,0.013664,0.980392,0.280000,1.680000,-0.980000
63.191108,0.021960,-0.021472,1.033096,1.680000,1.960000,-0.840000
63.199195,-0.061488,0.019032,0.968192,0.980000,5.040000,-0.980000
63.207282,-0.040992,0.005368,1.027240,-0.280000,3.920000,-0.700000
63.215369,-0.030256,-0.000488,1.014552,2.800000,2.380000,-0.560000
63.223457,-0.061976,0.034160,1.065792,-1.680000,5.740000,-0.140000
63.231544,-0.064904,0.000000,0.977464,3.500000,4.760000,-1.680000
63.239631,-0.060024,0.030256,0.946720,0.000000,2.380000,-0.560000
63.247718,-0.013176,-0.018544,1.029192,0.280000,2.100000,-0.980000
63.255806,-0.080032,0.022936,0.955992,1.540000,2.940000,-1.260000
63.263893,-0.003904,0.000488,1.035048,0.840000,0.700000,-0.560000
63.271980,0.029280,-0.002440,1.053592,0.560000,2.240000,-0.420000
63.280067,-0.090768,0.029768,0.991616,2.100000,5.600000,-0.980000
63.288154,-0.079544,0.005856,0.995520,0.000000,3.220000,-1.120000
63.296242,0.010736,-0.013176,1.029680,1.120000,1.540000,-0.700000
63.304329,-0.064416,0.005856,1.057984,0.980000,5.460000,-0.700000
63.312416,-0.063440,0.015616,0.971120,0.280000,5.180000,-1.540000
63.320503,-0.015128,-0.001464,1.066768,1.960000,3.640000,-0.420000
63.328591,-0.052704,0.036112,1.015528,0.140000,6.300000,-0.980000
63.336678,-0.080032,0.002440,0.902312,1.540000,5.180000,-0.980000
63.344765,-0.043432,0.021472,1.038464,0.560000,2.380000,-0.840000
63.352852,-0.004392,0.005368,1.019432,0.980000,3.920000,-0.560000
63.360939,-0.105408,0.008784,1.002352,2.380000,5.040000,-1.540000
63.369027,-0.021472,0.023424,1.007720,-1.680000,2.520000,-0.700000
63.377114,0.007320,-0.036112,1.076528,3.640000,4.620000,-0.420000
63.385201,-0.110776,0.055144,0.951600,0.000000,7.140000,-1.260000
63.393288,-0.067344,-0.008296,0.915976,1.540000,2.100000,-0.980000
63.401375,-0.013176,-0.011224,1.095560,0.700000,0.280000,-0.280000
63.409463,-0.041480,0.026840,1.015528,0.700000,4.620000,-1.120000
63.417550,-0.073200,-0.012688,0.973560,2.660000,3.920000,-0.980000
63.425637,-0.024888,0.014152,1.119472,-1.120000,4.200000,-0.980000
63.433724,-0.058560,-0.007320,0.935984,2.380000,7.280000,-0.140000
63.441812,-0.100528,0.030744,0.962824,0.140000,4.760000,-1.540000
63.449899,-0.024400,0.021472,1.030168,0.420000,2.520000,-0.280000
63.457986,-0.009272,0.001464,1.072624,1.400000,5.460000,-0.840000
63.466073,-0.082960,0.034160,0.929640,0.560000,4.900000,-1.400000
63.474160,-0.057584,-0.005368,1.030656,2.100000,2.660000,-0.420000
63.482248,-0.039040,-0.009760,1.023336,0.140000,4.900000,-1.260000
63.490335,-0.081008,0.029768,0.979904,1.120000,5.180000,-0.980000
63.498422,-0.050752,0.017568,1.019920,0.980000,3.360000,-0.700000
63.506509,-0.006344,-0.015616,1.058472,0.700000,3.640000,-0.560000
63.514596,-0.078568,0.004392,1.031144,1.820000,7.980000,-0.840000
63.522684,-0.093208,0.020984,0.910608,0.840000,5.180000,-1.400000
63.530771,-0.051728,-0.010248,0.994056,0.560000,2.660000,-0.700000
63.538858,-0.046360,0.025376,1.037000,1.120000,4.060000,-1.260000
63.546945,-0.078568,0.049288,1.023824,1.120000,3.640000,-0.980000
63.555033,-0.009272,-0.006344,1.000400,0.980000,2.380000,-0.420000
63.563120,-0.044896,0.001952,1.086776,1.540000,5.460000,-0.840000
63.571207,-0.117608,0.016592,0.961360,0.980000,6.580000,-1.400000
63.579294,-0.050752,0.001464,0.945256,0.560000,3.780000,-0.280000
63.587381,-0.045384,-0.025864,1.079456,0.700000,4.340000,-0.980000
63.595469,-0.090768,0.025376,0.951112,1.260000,6.300000,-1.120000
63.603556,-0.083936,0.018544,1.031632,1.120000,4.760000,-0.420000
63.611643,-0.027816,0.001464,0.992104,-0.140000,4.340000,-1.260000
63.619730,-0.068320,0.016104,1.024800,1.260000,5.460000,-0.980000
63.627817,-0.135176,0.016592,0.956480,1.540000,4.200000,-0.980000
63.635905,-0.040504,0.013176,1.032608,0.000000,2.520000,-0.700000
63.643992,-0.023912,-0.027816,1.013576,1.260000,3.920000,-0.840000
63.652079,-0.093208,0.024888,1.035048,1.260000,6.860000,-1.120000
63.660166,-0.075152,0.030744,0.955016,1.120000,3.920000,-0.980000
63.668254,0.014152,-0.015616,1.094096,0.980000,3.640000,-0.280000
63.676341,-0.114192,0.013176,0.962824,2.100000,7.140000,-1.540000
63.684428,-0.105408,0.043432,1.007232,0.000000,4.760000,-0.700000
63.692515,-0.051240,-0.005856,0.968192,1.820000,2.800000,-1.120000
63.700602,-0.052216,0.000976,1.036024,0.980000,2.380000,-0.280000
63.708690,-0.082472,0.025376,0.998936,1.680000,5.180000,-0.980000
63.716777,-0.095648,0.000976,0.985760,0.140000,3.360000,-1.260000
63.724864,-0.031232,-0.018056,1.059448,0.420000,2.800000,-0.560000
63.732951,-0.083936,0.009760,1.018456,2.380000,7.280000,-1.120000
63.741038,-0.127856,0.042456,0.943792,0.280000,5.180000,-1.120000
63.749126,-0.032696,-0.024400,1.032608,0.560000,3.080000,-0.700000
63.757213,-0.079544,-0.003416,0.993568,1.120000,5.180000,-0.980000
63.765300,-0.097112,0.041480,0.953552,1.680000,3.640000,-0.840000
63.773387,-0.036600,0.016592,1.028216,0.420000,2.100000,-0.980000
63.781475,-0.053680,-0.025864,1.027728,1.400000,4.200000,-0.980000
63.789562,-0.101992,0.046360,1.044808,0.560000,6.580000,-0.980000
63.797649,-0.094184,0.038064,0.985272,0.980000,4.060000,-1.120000
63.805736,-0.035136,-0.032208,1.052128,0.840000,2.940000,-0.420000
63.813823,-0.096136,0.019520,1.019432,2.240000,6.860000,-1.260000
63.821911,-0.120048,0.018056,0.958432,0.840000,5.740000,-0.840000
63.829998,-0.062952,-0.000488,0.950136,-0.140000,3.080000,-0.840000
63.838085,-0.042456,-0.036600,1.044320,1.820000,3.640000,-0.980000
63.846172,-0.115168,0.039040,0.965752,1.400000,5.180000,-0.980000
63.854259,-0.093208,0.042456,1.044320,-0.140000,2.940000,-0.700000
63.862347,-0.034160,-0.043920,0.985760,0.980000,3.500000,-0.700000
63.870434,-0.091256,0.037576,1.049200,0.980000,5.460000,-0.980000
63.878521,-0.151768,0.045384,0.968192,1.120000,4.340000,-0.980000
63.886608,-0.055144,-0.021960,1.027728,0.140000,2.800000,-0.560000
63.894696,-0.044408,-0.019032,0.962336,1.680000,4.340000,-1.540000
63.902783,-0.126880,0.031232,0.942816,0.280000,3.080000,-1.120000
63.910870,-0.087840,0.001464,1.043832,1.260000,1.400000,-0.840000
63.918957,-0.045872,0.000000,1.057008,0.140000,2.660000,-0.560000
63.927044,-0.071248,0.027328,1.012112,1.960000,5.320000,-1.120000
63.935132,-0.119072,0.017080,0.984296,1.120000,4.480000,-0.560000
63.943219,-0.052216,0.005368,1.033584,-0.140000,3.640000,-0.980000
63.951306,-0.091744,0.016104,1.031144,2.940000,5.180000,-1.120000
63.959393,-0.143472,0.039040,0.958432,0.000000,4.200000,-0.280000
63.967480,-0.041480,-0.018544,1.042856,0.420000,3.360000,-1.120000
63.975568,-0.059048,-0.011712,0.983320,1.820000,4.340000,-0.980000
63.983655,-0.084424,0.013664,1.022848,1.260000,5.600000,-0.700000
63.991742,-0.118584,0.032696,0.937936,0.840000,4.620000,-0.980000
63.999829,-0.031232,-0.028792,1.034072,0.420000,3.360000,-0.700000
64.007917,-0.122976,0.024400,1.007232,2.380000,5.320000,-1.400000
64.016004,-0.095160,0.040016,0.987224,0.280000,3.920000,-0.560000
64.024091,-0.075640,-0.002928,1.033584,0.560000,4.620000,-1.120000
64.032178,-0.103944,-0.002928,1.001864,1.960000,4.620000,-0.980000
64.040265,-0.119072,0.046360,1.029680,0.140000,5.180000,-0.700000
64.048353,-0.101504,-0.022448,0.980880,1.680000,4.480000,-0.980000
64.056440,-0.090280,0.005856,0.970632,0.840000,2.520000,-0.700000
64.064527,-0.052216,0.020984,1.080920,1.120000,4.200000,-0.980000
64.072614,-0.125416,0.040016,0.973560,0.980000,5.180000,-0.980000
64.080701,-0.076616,-0.037088,1.008208,0.700000,4.480000,-0.420000
64.088789,-0.092720,0.000000,0.984296,1.820000,5.600000,-1.400000
64.096876,-0.112240,0.060024,0.969656,-0.280000,5.460000,-0.420000
64.104963,-0.080520,0.005368,1.051152,0.280000,3.920000,-1.260000
64.113050,-0.106384,-0.008296,0.967704,2.380000,3.640000,-1.400000
64.121138,-0.084424,0.039040,1.101416,0.420000,4.620000,-0.140000
64.129225,-0.086376,-0.001952,0.944280,1.960000,5.040000,-1.400000
64.137312,-0.101992,0.004880,0.992592,1.260000,2.940000,-0.700000
64.145399,-0.122976,0.003904,1.041880,0.700000,4.620000,-1.120000
64.153486,-0.107360,0.008296,0.997960,1.680000,5.320000,-1.400000
64.161574,-0.075640,0.009760,0.995520,-0.700000,5.040000,-0.280000
64.169661,-0.083448,0.000488,1.016504,2.380000,5.740000,-1.120000
64.177748,-0.149328,0.027328,0.963312,0.700000,6.020000,-0.840000
64.185835,-0.085400,-0.021960,0.969168,0.140000,3.920000,-0.980000
64.193922,-0.081008,0.008296,1.051152,1.540000,3.920000,-0.700000
64.202010,-0.093696,0.041480,1.013576,1.540000,5.320000,-0.700000
64.210097,-0.145424,0.021960,1.033096,0.560000,6.580000,-1.400000
64.218184,-0.090768,-0.016592,0.953552,0.000000,4.200000,-0.560000
64.226271,-0.084912,-0.012200,1.026264,2.520000,5.460000,-0.840000
64.234359,-0.140056,0.057584,1.013576,-0.140000,5.740000,-0.980000
64.242446,-0.088816,-0.031720,0.997960,1.960000,6.720000,-0.980000
64.250533,-0.118096,0.019032,0.984296,1.260000,5.180000,-0.980000
64.258620,-0.105896,0.032208,1.000888,0.140000,5.320000,-0.700000
64.266707,-0.116632,-0.004392,0.995032,1.260000,4.620000,-1.260000
64.274795,-0.069296,-0.020984,0.988200,0.700000,4.480000,-0.140000
64.282882,-0.067832,0.031720,1.071648,1.820000,7.420000,-1.540000
64.290969,-0.127368,0.048312,0.933544,0.000000,6.440000,-1.260000
64.299056,-0.148352,-0.008784,1.037000,0.980000,5.180000,-0.840000
64.307143,-0.111264,0.024400,1.030656,1.260000,4.340000,-1.260000
64.315231,-0.123952,0.012688,0.968680,0.840000,5.460000,-0.420000
64.323318,-0.117608,-0.015128,0.926224,1.260000,3.500000,-1.260000
64.331405,-0.084424,0.005856,1.048224,0.840000,2.940000,-0.420000
64.339492,-0.127856,0.018056,1.050176,1.260000,6.300000,-1.120000
64.347580,-0.099064,0.017568,0.938912,0.280000,4.060000,-1.120000
64.355667,-0.061000,0.008296,1.091656,1.680000,3.780000,-0.700000
64.363754,-0.182512,0.007320,1.001864,1.820000,8.960000,-1.400000
64.371841,-0.135664,0.031720,0.987712,-0.280000,4.760000,-0.840000
64.379928,-0.061000,-0.029768,0.990152,1.820000,5.880000,-0.980000
64.388016,-0.160552,0.010248,0.993568,0.700000,6.440000,-0.980000
64.396103,-0.148840,0.020008,0.934520,-0.140000,6.300000,-1.400000
64.404190,-0.094672,0.012688,1.053104,1.400000,3.640000,-1.120000
64.412277,-0.096624,0.000976,1.028216,0.560000,4.900000,-0.420000
64.420364,-0.136640,0.018056,1.034072,1.820000,8.120000,-0.700000
64.428452,-0.117120,0.029768,0.921344,0.420000,6.160000,-1.400000
64.436539,-0.089304,-0.008296,1.048712,1.120000,4.620000,-0.840000
64.444626,-0.163968,0.017568,1.002840,0.980000,6.720000,-1.120000
64.452713,-0.133712,0.011712,0.961848,1.680000,5.180000,-0.700000
64.460801,-0.110288,0.002928,1.032120,0.420000,4.480000,-0.840000
64.468888,-0.136152,0.014640,1.022848,0.840000,6.020000,-0.840000
64.476975,-0.161040,0.017568,0.979416,1.540000,5.460000,-0.840000
64.485062,-0.092720,-0.003416,0.960872,0.560000,3.220000,-1.120000
64.493149,-0.112728,-0.003904,1.084824,0.700000,5.180000,-0.560000
64.501237,-0.161040,0.026840,0.932568,1.260000,7.420000,-1.400000
64.509324,-0.101504,0.008296,0.963312,0.700000,3.920000,-0.840000
64.517411,-0.097112,-0.010248,1.048712,0.420000,5.180000,-1.120000
64.525498,-0.120536,0.029280,0.956480,1.680000,5.600000,-1.540000
64.533585,-0.156160,0.016104,1.006256,0.560000,5.180000,-0.700000
64.541673,-0.119072,-0.000488,1.042368,1.400000,5.040000,-0.980000
64.549760,-0.173728,0.037576,0.982832,2.100000,6.580000,-1.120000
64.557847,-0.145912,0.010248,1.013088,-1.400000,5.460000,-0.700000
64.565934,-0.091256,-0.032208,1.001864,3.080000,4.760000,-1.260000
64.574022,-0.173728,0.032696,1.002352,-0.700000,7.000000,-0.560000
64.582109,-0.150792,0.023424,0.950624,1.260000,5.740000,-1.400000
64.590196,-0.124440,-0.004880,1.036512,1.680000,3.500000,-1.120000
64.598283,-0.096136,-0.001464,1.002840,-0.420000,4.200000,-0.140000
64.606370,-0.164944,0.036600,1.041880,2.940000,7.000000,-1.400000
64.614458,-0.114680,0.012200,0.912560,-0.980000,4.480000,-1.260000
64.622545,-0.065880,-0.038552,1.026752,1.960000,4.760000,-0.280000
64.630632,-0.186416,0.046360,0.989664,1.400000,6.720000,-1.260000
64.638719,-0.196664,0.032208,0.947696,0.140000,4.900000,-1.260000
64.646807,-0.102480,-0.018056,1.031632,0.980000,2.240000,-1.120000
64.654894,-0.130784,0.014640,1.062864,1.120000,5.180000,-0.700000
64.662981,-0.167384,0.048800,1.000400,0.980000,6.440000,-0.840000
64.671068,-0.127856,-0.004392,0.974536,0.980000,3.920000,-1.400000
64.679155,-0.139080,-0.012200,0.996984,0.980000,4.760000,-0.560000
64.687243,-0.189344,0.001464,1.006744,1.260000,6.020000,-1.260000
64.695330,-0.136640,0.026840,0.989664,0.700000,4.760000,-0.700000
64.703417,-0.107848,-0.017080,1.053104,0.840000,5.320000,-0.420000
64.711504,-0.162992,0.032208,0.975024,1.260000,7.420000,-1.540000
64.719591,-0.176168,0.011224,0.914024,1.260000,5.740000,-0.980000
64.727679,-0.111264,-0.014152,1.075064,0.840000,2.660000,-0.700000
64.735766,-0.110776,0.016592,0.999424,1.400000,7.000000,-1.120000
64.743853,-0.183488,0.034648,1.006256,1.680000,6.720000,-1.120000
64.751940,-0.109312,-0.005368,0.960872,0.000000,4.900000,-1.820000
64.760028,-0.125416,-0.013176,0.982832,1.120000,7.420000,-1.400000
64.768115,-0.207400,0.044896,0.972584,1.120000,7.700000,-1.540000
64.776202,-0.169824,0.018544,0.981856,0.700000,4.480000,-0.560000
64.784289,-0.136152,-0.002928,1.056520,0.420000,4.620000,-0.560000
64.792376,-0.166408,0.014152,0.988688,2.240000,6.300000,-1.400000
64.800464,-0.189344,0.023912,0.973072,-0.280000,4.480000,-0.840000
64.808551,-0.099064,-0.036112,0.993568,1.120000,3.640000,-0.840000
64.816638,-0.169824,0.025376,1.028216,1.820000,6.160000,-1.120000
64.824725,-0.183976,0.031232,0.967216,0.420000,5.460000,-1.260000
64.832812,-0.093208,-0.015128,1.012112,1.680000,2.520000,-0.560000
64.840900,-0.137128,-0.000488,1.017968,0.700000,6.440000,-0.980000
64.848987,-0.189832,0.046360,0.937936,2.100000,6.440000,-1.400000
64.857074,-0.162992,0.000000,0.990640,0.560000,3.640000,-0.700000
64.865161,-0.136152,-0.027816,1.026752,-0.140000,5.880000,-0.700000
64.873249,-0.191784,0.057584,0.919880,2.660000,6.300000,-1.120000
64.881336,-0.158600,0.037576,1.064328,-0.980000,4.200000,-0.840000
64.889423,-0.102480,-0.043920,0.993568,1.120000,4.200000,-1.260000
64.897510,-0.181536,0.030256,0.973560,2.380000,6.020000,-0.840000
64.905597,-0.209352,0.049288,1.035536,0.280000,5.320000,-0.840000
64.913685,-0.111752,-0.020984,1.004304,0.980000,3.920000,-0.840000
64.921772,-0.167384,-0.000976,1.035536,2.100000,6.860000,-0.980000
64.929859,-0.205448,0.047824,0.989664,-0.140000,7.560000,-1.400000
64.937946,-0.124440,-0.025864,0.953064,1.540000,5.040000,-0.420000
64.946033,-0.188368,0.002928,1.013576,0.420000,7.140000,-0.700000
64.954121,-0.192760,0.036112,0.946232,2.100000,6.300000,-1.400000
64.962208,-0.130296,0.008784,1.021384,0.140000,5.180000,-0.420000
64.970295,-0.132248,-0.036112,0.976000,0.840000,4.900000,-1.120000
64.978382,-0.186416,0.019520,0.971608,2.240000,6.860000,-1.260000
64.986470,-0.215696,0.051240,0.964288,-0.280000,3.640000,-0.560000
64.994557,-0.119560,-0.040992,1.045296,0.840000,3.500000,-0.560000
65.002644,-0.171288,0.049288,0.974536,2.100000,5.180000,-1.260000
65.010731,-0.214232,0.051728,1.003816,-0.420000,4.060000,-0.700000
65.018818,-0.149816,-0.044896,1.023824,1.400000,3.500000,-1.120000
65.026906,-0.161528,0.024400,0.954528,1.260000,4.480000,-0.560000
65.034993,-0.202520,0.041968,1.026264,0.420000,4.620000,-0.700000
65.043080,-0.139568,-0.010736,0.960384,1.400000,2.380000,-1.120000
65.051167,-0.184464,-0.011224,0.985760,0.980000,3.500000,-0.280000
65.059255,-0.197640,0.018544,1.013576,1.120000,5.040000,-1.540000
65.067342,-0.189344,0.029280,0.938424,0.840000,3.500000,-0.700000
65.075429,-0.146888,-0.033672,1.072136,-0.560000,3.500000,-0.420000
65.083516,-0.167872,0.030256,0.941840,2.380000,5.180000,-1.400000
65.091603,-0.183000,0.026352,0.926712,0.420000,2.660000,-0.840000
65.099691,-0.160552,-0.021472,1.055544,0.140000,1.960000,-1.540000
65.107778,-0.172264,0.000000,0.934520,1.540000,5.040000,-0.980000
65.115865,-0.192760,0.072712,1.053104,0.420000,3.780000,-0.420000
65.123952,-0.132736,-0.025376,1.002352,0.560000,3.780000,-1.680000
65.132039,-0.204960,0.012200,0.962336,1.260000,5.040000,-0.700000
65.140127,-0.222528,0.034160,1.014064,0.840000,3.780000,-0.840000
65.148214,-0.129808,0.003904,0.986736,1.260000,2.660000,-0.700000
65.156301,-0.164944,-0.004880,1.015040,1.680000,4.900000,-0.840000
65.164388,-0.206424,0.049288,1.053592,0.420000,4.900000,-0.980000
65.172476,-0.163968,-0.010736,0.946720,1.680000,5.460000,-0.560000
65.180563,-0.182024,-0.009760,1.003816,0.560000,4.340000,-1.400000
65.188650,-0.199104,0.026352,0.954528,1.820000,4.480000,-0.840000
65.196737,-0.189344,0.007808,1.020408,0.700000,3.080000,-0.280000
65.204824,-0.145424,0.002440,0.975024,0.840000,3.080000,-1.260000
65.212912,-0.183000,0.014640,0.984784,2.100000,4.480000,-0.700000
65.220999,-0.217648,0.024888,1.040416,0.000000,5.180000,-1.120000
65.229086,-0.143960,-0.035624,0.918416,0.840000,2.940000,-0.980000
65.237173,-0.180072,0.019520,1.004792,1.820000,5.040000,-0.700000
65.245260,-0.216184,0.036600,1.017480,-0.140000,5.460000,-1.400000
65.253348,-0.152744,-0.010736,0.923296,0.840000,4.060000,-0.420000
65.261435,-0.183000,0.004880,0.996984,1.680000,3.500000,-0.700000
65.269522,-0.194712,0.032696,1.018944,0.420000,3.500000,-1.260000
65.277609,-0.182024,0.002440,0.937936,1.260000,4.200000,-0.280000
65.285697,-0.177632,-0.010736,1.017480,1.120000,2.520000,-1.120000
65.293784,-0.156160,0.046848,0.994056,0.420000,5.180000,-1.120000
65.301871,-0.202032,-0.000488,0.992592,2.240000,3.920000,-0.980000
65.309958,-0.234728,-0.002440,0.971120,0.000000,4.340000,-0.980000
65.318045,-0.149816,0.032208,1.049200,0.840000,3.220000,-0.980000
65.326133,-0.202520,0.013176,0.961848,1.400000,4.200000,-0.700000
65.334220,-0.207888,-0.000976,0.986736,0.140000,3.780000,-0.980000
65.342307,-0.149328,0.009272,0.999912,1.680000,3.360000,-0.840000
65.350394,-0.213256,0.038552,1.024312,1.120000,5.180000,-0.840000
65.358482,-0.233752,-0.007320,0.975024,0.420000,4.760000,-1.400000
65.366569,-0.161040,-0.013176,0.973560,1.820000,1.820000,-0.560000
65.374656,-0.164944,0.027328,1.017968,0.700000,4.760000,-0.560000
65.382743,-0.224968,0.032696,0.979416,0.840000,5.460000,-1.820000
65.390830,-0.175192,-0.026352,0.960872,0.840000,2.380000,-0.280000
65.398918,-0.209840,0.013176,1.066768,1.260000,4.200000,-0.280000
65.407005,-0.210328,0.052704,0.991128,1.400000,5.180000,-1.960000
65.415092,-0.170800,-0.018544,0.920368,0.560000,3.220000,-0.560000
65.423179,-0.165920,-0.005368,1.062376,0.700000,4.760000,-1.260000
65.431266,-0.210816,0.028304,0.895968,1.260000,4.900000,-1.120000
65.439354,-0.201544,0.005856,0.963800,0.840000,3.220000,-0.840000
65.447441,-0.162504,-0.004392,1.031632,0.700000,2.660000,-1.260000
65.455528,-0.182024,0.021960,0.945744,1.260000,5.040000,-0.560000
65.463615,-0.241560,0.008784,1.004792,1.120000,3.920000,-0.840000
65.471703,-0.166896,0.011712,1.016992,0.140000,3.780000,-1.260000
65.479790,-0.193248,-0.002440,0.978928,1.400000,5.600000,-0.560000
65.487877,-0.233264,0.039528,0.978440,1.820000,4.060000,-0.840000
65.495964,-0.167384,0.020008,0.966240,-0.280000,3.220000,-1.120000
65.504051,-0.182512,-0.038064,1.043344,1.260000,5.740000,-0.700000
65.512139,-0.261080,0.056608,0.968192,1.260000,6.300000,-1.400000
65.520226,-0.183976,0.021472,0.949160,0.840000,2.800000,-0.420000
65.528313,-0.183000,-0.004392,1.060424,1.120000,2.380000,-0.700000
65.536400,-0.231800,0.026352,0.961360,1.680000,4.620000,-0.980000
65.544487,-0.219600,0.008296,0.999912,0.140000,3.920000,-0.420000
65.552575,-0.132736,-0.011712,0.974048,1.400000,1.820000,-1.120000
65.560662,-0.208864,0.009760,0.978928,1.400000,4.900000,-0.840000
65.568749,-0.249856,0.014152,1.007720,0.700000,4.900000,-1.400000
65.576836,-0.170800,-0.012200,0.948184,0.980000,2.800000,-0.560000
65.584924,-0.186904,0.018056,1.045296,1.260000,4.620000,-0.560000
65.593011,-0.244488,0.056608,0.941352,0.700000,6.160000,-1.540000
65.601098,-0.188856,-0.027328,0.991128,1.820000,1.960000,-0.560000
65.609185,-0.179584,-0.016104,1.001376,0.420000,4.480000,-0.560000
65.617272,-0.227896,0.041968,0.938912,1.680000,6.720000,-1.120000
65.625360,-0.194712,0.003904,0.996984,0.980000,3.780000,-0.840000
65.633447,-0.185440,0.000000,1.035048,-1.260000,4.760000,-0.840000
65.641534,-0.240584,0.004392,0.918904,3.220000,6.300000,-0.700000
65.649621,-0.258640,0.073200,0.991616,0.000000,2.660000,-0.980000
65.657708,-0.152256,-0.010736,1.011624,-0.420000,1.960000,-0.560000
65.665796,-0.221552,-0.010736,1.003328,3.080000,5.180000,-0.840000
65.673883,-0.243024,0.069296,0.980392,-0.280000,3.080000,-1.120000
65.681970,-0.163968,-0.022448,1.008696,1.400000,3.080000,-1.120000
65.690057,-0.245952,-0.008296,0.977464,0.980000,6.020000,-1.120000
65.698145,-0.242048,0.047336,0.985760,0.700000,4.340000,-1.120000
65.706232,-0.165432,-0.018544,1.006744,1.960000,2.660000,-0.420000
65.714319,-0.185440,-0.010248,0.973560,0.000000,5.180000,-0.980000
65.722406,-0.228384,0.033184,0.938912,2.380000,4.620000,-1.260000
65.730493,-0.237656,0.008296,0.974048,0.560000,2.940000,-0.700000
65.738581,-0.162016,-0.028304,0.983808,-0.140000,3.220000,-0.700000
65.746668,-0.225944,0.044896,0.935496,2.940000,4.060000,-0.980000
65.754755,-0.232288,0.038552,1.062864,-0.700000,2.800000,-0.980000
65.762842,-0.169336,-0.045872,0.965752,0.980000,3.080000,-0.980000
65.770930,-0.215208,0.032208,0.985272,2.520000,4.200000,-0.140000
65.779017,-0.275232,0.049288,0.975024,0.700000,5.040000,-1.120000
65.787104,-0.201056,-0.011224,0.956968,-0.280000,2.660000,-0.980000
65.795191,-0.196664,-0.012200,1.040416,1.540000,3.780000,-0.700000
65.803278,-0.245952,0.059536,0.982832,1.120000,3.920000,-1.680000
65.811366,-0.174216,-0.001464,0.949160,0.840000,1.820000,-0.140000
65.819453,-0.225944,-0.014152,1.029192,0.840000,5.600000,-0.980000
65.827540,-0.237656,0.046360,0.949160,1.400000,4.200000,-1.120000
65.835627,-0.222040,0.010736,1.011624,1.120000,3.080000,-0.280000
65.843714,-0.237656,-0.018056,1.003816,0.560000,2.940000,-1.120000
65.851802,-0.205936,0.014640,0.934520,1.540000,2.940000,-0.420000
65.859889,-0.243024,0.062464,1.074088,0.840000,3.360000,-1.120000
65.867976,-0.187392,-0.038552,0.897920,0.280000,2.100000,-0.840000
65.876063,-0.198616,-0.002440,1.011136,3.220000,2.800000,-0.420000
65.884151,-0.244976,0.045384,1.003328,-0.280000,5.320000,-1.680000
65.892238,-0.201056,-0.030744,0.885232,0.560000,4.340000,-0.700000
65.900325,-0.243024,-0.003416,0.999424,1.540000,3.220000,-0.700000
65.908412,-0.192272,0.059536,0.971608,0.700000,3.080000,-1.260000
65.916499,-0.240584,0.005368,1.004304,0.840000,3.360000,-0.560000
65.924587,-0.218624,-0.022448,0.965752,0.700000,2.380000,-0.980000
65.932674,-0.232776,0.041480,1.015040,1.820000,3.360000,-0.700000
65.940761,-0.254248,0.057096,1.002352,0.000000,2.940000,-0.980000
65.948848,-0.212768,-0.041968,0.969656,1.260000,2.240000,-0.700000
65.956935,-0.216672,0.038064,1.027240,1.260000,3.640000,-1.120000
65.965023,-0.234728,0.037088,0.925736,0.420000,3.080000,-0.280000
65.973110,-0.190808,-0.019520,1.068232,1.400000,2.380000,-0.840000
65.981197,-0.231312,-0.018056,0.900848,0.980000,4.200000,-1.400000
65.989284,-0.223992,0.031232,0.955504,1.120000,3.220000,-0.420000
65.997372,-0.249368,-0.000488,0.953064,0.980000,2.240000,-1.400000
66.005459,-0.187392,-0.017568,0.923784,0.420000,1.260000,-0.840000
66.013546,-0.203496,0.045872,1.057008,0.840000,0.980000,-0.140000
66.021633,-0.235216,0.008296,0.941840,0.700000,3.360000,-1.680000
66.029720,-0.236680,0.000976,0.961848,2.380000,-0.140000,-0.560000
66.037808,-0.221064,0.010736,1.077016,0.000000,2.940000,-0.840000
66.045895,-0.242536,0.032696,0.946720,1.680000,2.940000,-0.700000
66.053982,-0.253760,0.019520,0.993080,0.560000,3.500000,-1.120000
66.062069,-0.233752,0.000488,0.979416,0.840000,0.840000,-0.980000
66.070157,-0.212280,0.015616,1.023336,0.980000,2.100000,0.000000
66.078244,-0.233752,0.024400,0.966728,0.700000,2.660000,-1.680000
66.086331,-0.246928,-0.006832,0.936472,1.680000,1.260000,-0.560000
66.094418,-0.241072,0.003416,1.068232,-0.140000,3.360000,-0.420000
66.102505,-0.205448,0.015616,0.890600,1.400000,3.080000,-1.400000
66.110593,-0.221064,0.001464,0.957456,1.120000,0.000000,-0.280000
66.118680,-0.218624,0.004880,1.075064,-0.140000,3.360000,-1.540000
66.126767,-0.260592,-0.001464,0.884256,2.240000,3.360000,-0.700000
66.134854,-0.197152,0.033184,1.030656,0.840000,0.980000,-0.560000
66.142941,-0.194712,0.007808,0.996984,0.140000,2.800000,-1.260000
66.151029,-0.241560,0.003904,0.973560,1.960000,4.200000,-0.280000
66.159116,-0.250344,0.031720,0.982344,0.700000,2.100000,-1.260000
66.167203,-0.198128,0.021960,0.989664,0.980000,1.960000,-0.560000
66.175290,-0.228872,0.002440,1.013576,1.260000,4.060000,-0.700000
66.183378,-0.259128,0.010736,0.909144,0.840000,3.640000,-1.540000
66.191465,-0.195200,0.020496,1.049200,1.540000,0.980000,-0.140000
66.199552,-0.266448,0.014640,0.986736,0.140000,3.920000,-0.980000
66.207639,-0.253272,0.023424,0.949160,1.540000,3.080000,-0.840000
66.215726,-0.219600,-0.006832,0.998448,0.280000,2.100000,-0.840000
66.223814,-0.214232,-0.002928,0.990640,1.120000,3.080000,-0.840000
66.231901,-0.277672,0.016104,0.977464,0.980000,3.920000,-1.120000
66.239988,-0.178120,-0.011712,0.898408,0.560000,1.680000,-1.120000
66.248075,-0.219600,0.004392,0.983808,1.400000,2.240000,-0.420000
66.256162,-0.245464,0.043920,0.981368,0.280000,3.080000,-1.120000
66.264250,-0.255712,-0.013176,0.929152,1.820000,2.800000,-1.260000
66.272337,-0.217160,0.023424,1.029680,-0.140000,1.960000,-0.560000
66.280424,-0.218136,0.022936,1.022848,0.560000,4.340000,-1.120000
66.288511,-0.271816,-0.001464,0.923784,2.520000,3.780000,-0.840000
66.296599,-0.203008,0.020008,1.049688,-0.140000,1.960000,-0.560000
66.304686,-0.200080,0.020008,0.983808,1.820000,4.340000,-0.420000
66.312773,-0.335744,0.052216,0.978440,1.120000,4.620000,-1.400000
66.320860,-0.210816,-0.004880,0.962824,0.000000,-0.280000,-0.560000
66.328947,-0.185440,-0.017080,1.077992,1.820000,2.380000,0.000000
66.337035,-0.293776,0.040016,0.889624,1.260000,4.340000,-1.540000
66.345122,-0.266936,0.007320,0.944768,1.120000,1.680000,-1.120000
66.353209,-0.187392,-0.027816,1.012600,0.000000,1.120000,-0.700000
66.361296,-0.256200,0.038064,0.966728,1.260000,3.780000,-0.980000
66.369384,-0.253272,0.005368,0.989176,1.260000,1.820000,-0.560000
66.377471,-0.182512,0.014152,1.027240,-0.560000,2.940000,-0.700000
66.385558,-0.260104,0.007808,0.935008,2.100000,4.620000,-0.840000
66.393645,-0.281088,0.027816,0.934032,1.540000,1.540000,-0.560000
66.401732,-0.182024,-0.019032,1.015040,-0.560000,0.280000,-1.120000
66.409820,-0.246928,0.010248,0.963800,2.240000,3.640000,-0.840000
66.417907,-0.303536,0.012200,0.940864,1.120000,2.520000,-0.980000
66.425994,-0.180560,0.004392,1.025288,-0.140000,0.280000,-0.840000
66.434081,-0.205448,0.009272,1.024800,1.260000,4.620000,-0.840000
66.442168,-0.303536,0.023424,0.866200,1.960000,2.800000,-0.700000
66.450256,-0.234240,0.005368,0.979904,-0.420000,0.280000,-0.980000
66.458343,-0.211792,0.004880,1.025776,0.980000,3.780000,-1.260000
66.466430,-0.266936,0.041968,0.903776,0.840000,1.120000,-0.980000
66.474517,-0.204472,0.001952,1.062864,1.120000,-1.400000,-0.420000
66.482605,-0.273768,0.000488,0.980880,1.680000,3.500000,-0.840000
66.490692,-0.278648,0.046360,0.950136,0.980000,2.240000,-0.980000
66.498779,-0.183000,-0.005368,1.045784,0.560000,-0.700000,-0.840000
66.506866,-0.245952,0.003904,0.968680,0.980000,5.040000,-0.980000
66.514953,-0.295240,0.039528,0.941352,0.980000,2.380000,-0.980000
66.523041,-0.167384,0.006832,1.017968,0.560000,0.560000,-0.840000
66.531128,-0.257664,-0.009760,0.981856,2.100000,4.340000,-0.980000
66.539215,-0.314760,0.049288,0.914512,0.700000,3.220000,-0.980000
66.547302,-0.193736,-0.010248,1.025288,0.980000,0.700000,-1.120000
66.555389,-0.225944,-0.002928,0.959896,0.980000,2.940000,-1.260000
66.563477,-0.281576,0.047336,0.944280,1.960000,1.820000,-0.840000
66.571564,-0.222528,0.017080,1.033096,0.560000,1.820000,-1.120000
66.579651,-0.219112,-0.019520,0.955016,1.400000,2.660000,-1.260000
66.587738,-0.267912,0.049288,0.942328,1.680000,1.680000,-0.840000
66.595826,-0.231312,-0.015616,1.028216,0.560000,0.840000,-0.980000
66.603913,-0.217648,-0.025864,0.939888,1.400000,3.920000,-0.980000
66.612000,-0.263032,0.061976,0.918904,1.260000,0.700000,-0.280000
66.620087,-0.235704,0.004880,1.052128,0.980000,0.140000,-1.120000
66.628174,-0.259616,-0.041480,0.902800,0.560000,3.360000,-0.980000
66.636262,-0.255224,0.061976,0.982832,1.680000,0.000000,-0.280000
66.644349,-0.239120,0.007808,1.046760,0.980000,0.700000,-1.400000
66.652436,-0.230336,-0.041480,0.938424,0.700000,3.360000,-0.980000
66.660523,-0.246440,0.066368,1.015528,1.820000,1.400000,-0.420000
66.668611,-0.237656,0.017080,0.977464,0.700000,1.680000,-1.260000
66.676698,-0.250344,-0.012200,0.928176,1.960000,0.700000,-0.980000
66.684785,-0.273280,0.043432,1.010648,0.980000,2.800000,-0.700000
66.692872,-0.273768,-0.012200,0.942816,-0.280000,2.520000,-0.980000
66.700959,-0.192760,-0.008784,0.989664,2.240000,-0.840000,-0.980000
66.709047,-0.253760,0.069784,1.052128,1.400000,2.520000,-0.840000
66.717134,-0.258640,-0.012688,0.933056,0.560000,2.940000,-0.840000
66.725221,-0.255224,0.010248,0.909632,0.840000,-0.280000,-0.280000
66.733308,-0.223016,0.033672,1.033096,1.540000,-0.420000,-0.980000
66.741395,-0.309392,0.034648,0.934032,0.280000,2.800000,-1.400000
66.749483,-0.192760,-0.039528,0.930616,-0.140000,-2.100000,-0.840000
66.757570,-0.213256,0.033672,1.019920,1.960000,-0.280000,-1.120000
66.765657,-0.293776,0.008784,0.961360,0.700000,3.360000,-1.260000
66.773744,-0.195688,-0.032696,0.982344,0.700000,-0.420000,-0.700000
66.781832,-0.295728,0.037088,0.999912,2.100000,2.660000,-1.120000
66.789919,-0.246928,-0.000976,0.908656,-0.140000,0.280000,-0.700000
66.798006,-0.186416,0.015616,1.042856,1.400000,-0.840000,-0.840000
66.806093,-0.273768,0.040992,1.008696,1.820000,2.660000,-1.680000
66.814180,-0.287920,-0.000488,0.913048,-0.140000,0.280000,-1.260000
66.822268,-0.185928,0.010736,1.054080,1.820000,-1.540000,-0.840000
66.830355,-0.286456,0.044408,0.976488,1.400000,3.780000,-1.820000
66.838442,-0.281576,-0.005856,0.924272,0.140000,0.000000,-1.120000
66.846529,-0.198128,-0.012200,1.035536,0.840000,-0.560000,-0.420000
66.854616,-0.266448,0.060024,0.982344,1.260000,4.480000,-1.400000
66.862704,-0.256688,0.008296,0.922808,0.700000,-0.840000,-0.980000
66.870791,-0.175680,-0.006344,1.025288,1.260000,0.000000,-0.280000
66.878878,-0.300608,0.030256,0.969168,1.960000,4.200000,-1.120000
66.886965,-0.256200,-0.007808,0.880840,0.140000,0.420000,-0.840000
66.895053,-0.195688,-0.001952,1.047736,0.560000,1.260000,-0.700000
66.903140,-0.284992,0.023424,0.928176,1.820000,3.360000,-1.260000
66.911227,-0.229848,0.023912,0.923784,0.980000,-0.980000,-0.840000
66.919314,-0.205448,-0.004880,1.065304,-0.280000,1.260000,-0.980000
66.927401,-0.297192,0.002928,0.908656,2.100000,2.100000,-0.700000
66.935489,-0.232776,0.033184,0.977464,1.260000,-1.960000,-0.840000
66.943576,-0.215696,-0.016104,1.022848,1.820000,1.260000,-1.120000
66.951663,-0.297680,0.028304,0.915488,0.980000,3.080000,-1.260000
66.959750,-0.250832,0.025864,1.034560,0.980000,-1.120000,-1.540000
66.967838,-0.194712,-0.018544,1.006744,1.540000,0.840000,-1.400000
66.975925,-0.306464,0.041480,0.937448,0.420000,2.380000,-0.980000
66.984012,-0.248880,0.005368,0.988688,1.400000,0.000000,-1.120000
66.992099,-0.263032,-0.005368,0.989664,0.980000,1.260000,-1.120000
67.000186,-0.271328,0.053192,0.930128,0.280000,1.820000,-0.980000
67.008274,-0.194224,-0.001464,0.978928,0.280000,-1.400000,-1.120000
67.016361,-0.235216,-0.024888,0.998936,1.820000,0.420000,-1.400000
67.024448,-0.279136,0.044896,0.909144,0.980000,1.540000,-0.980000
67.032535,-0.243024,0.039528,1.024800,0.420000,-1.820000,-1.400000
67.040622,-0.222528,-0.026840,0.985760,0.140000,-0.560000,-1.680000
67.048710,-0.312320,0.024888,0.962824,2.100000,0.140000,-1.120000
67.056797,-0.258640,0.038552,0.921832,0.000000,-2.660000,-0.840000
67.064884,-0.230336,-0.003416,0.921344,-0.140000,-4.760000,-1.680000
67.072971,-0.227896,0.025864,0.904264,0.420000,-4.900000,-2.660000
67.081059,-0.312320,0.006344,1.006744,0.000000,-6.720000,-1.680000
67.089146,-0.215696,-0.019032,1.000400,-0.140000,-5.320000,-2.240000
67.097233,-0.224480,0.016104,0.927200,1.540000,-7.000000,-1.540000
67.105320,-0.267424,0.032208,1.058472,0.560000,-7.140000,-0.840000
67.113407,-0.221064,-0.023424,1.028704,1.820000,-4.060000,-1.120000
67.121495,-0.267912,0.009760,0.935496,0.140000,-2.100000,-0.700000
67.129582,-0.233752,0.044408,1.066280,0.840000,-3.360000,-0.980000
67.137669,-0.211304,-0.000488,0.936472,0.980000,-3.500000,-0.980000
67.145756,-0.242536,-0.009760,0.995520,0.420000,-1.120000,-0.700000
67.153843,-0.249368,0.018056,0.960872,1.540000,-1.540000,-0.700000
67.161931,-0.207400,0.036112,0.950624,-0.280000,-2.800000,-0.420000
67.170018,-0.221552,-0.024400,0.979416,1.960000,-3.360000,-0.840000
67.178105,-0.253272,0.036600,0.996984,0.280000,-1.680000,-1.120000
67.186192,-0.240584,0.007320,0.928664,1.260000,-3.220000,-0.560000
67.194280,-0.236680,0.009272,1.018456,0.560000,-3.640000,-0.700000
67.202367,-0.199592,0.017080,0.974536,0.420000,-2.660000,-0.840000
67.210454,-0.278648,0.023424,1.008696,1.120000,-1.120000,-0.280000
67.218541,-0.274256,0.010736,0.964288,0.000000,-0.980000,-1.260000
67.226628,-0.192272,0.009272,0.967704,1.260000,-3.640000,-0.420000
67.234716,-0.256688,0.027816,1.063840,0.140000,-1.540000,-0.420000
67.242803,-0.274256,0.008296,0.907680,1.120000,-2.660000,-1.400000
67.250890,-0.232288,0.006344,0.978928,1.680000,-5.460000,-0.420000
67.258977,-0.197152,-0.010248,0.989664,-0.560000,-3.500000,-0.420000
67.267065,-0.245464,0.017080,1.011136,1.820000,-0.980000,-1.120000
67.275152,-0.246440,0.014640,0.918416,0.140000,-2.800000,-0.840000
67.283239,-0.177144,-0.001952,1.014552,0.000000,-3.920000,-0.420000
67.291326,-0.263520,0.018544,0.973072,1.820000,-1.120000,-0.980000
67.299413,-0.219112,0.025376,0.891088,-0.140000,-4.200000,-0.980000
67.307501,-0.211304,-0.027328,1.035048,1.540000,-3.360000,-0.560000
67.315588,-0.237656,0.032208,0.996984,0.280000,-1.540000,-0.420000
67.323675,-0.223016,0.047824,0.967216,0.840000,-3.360000,-1.120000
67.331762,-0.209840,-0.026840,0.965752,1.540000,-3.920000,-0.560000
67.339849,-0.237656,0.028792,1.040904,-0.980000,-2.100000,-0.560000
67.347937,-0.242048,0.035136,0.950136,2.380000,-1.260000,-1.120000
67.356024,-0.236680,0.010736,0.996496,0.840000,-5.600000,-0.420000
67.364111,-0.213744,-0.006832,1.038952,-0.420000,-1.540000,-0.700000
67.372198,-0.267424,0.019520,0.943792,2.800000,-0.560000,-1.120000
67.380286,-0.254248,0.021960,0.958920,-0.280000,-3.220000,-0.560000
67.388373,-0.173240,-0.008296,1.025776,0.280000,-3.920000,-1.120000
67.396460,-0.243512,0.012688,0.950624,1.960000,-2.380000,-0.280000
67.404547,-0.254248,0.048800,0.978440,0.140000,-2.660000,-1.120000
67.412634,-0.162992,-0.023424,0.988200,0.280000,-4.060000,-0.420000
67.420722,-0.224480,0.011224,1.007232,2.380000,-2.380000,-0.700000
67.428809,-0.287432,0.033184,0.967704,0.000000,-0.700000,-1.260000
67.436896,-0.168848,-0.002928,1.030168,0.280000,-4.480000,-0.420000
67.444983,-0.207888,-0.001952,0.975512,1.680000,-0.980000,-0.560000
67.453070,-0.290848,0.044408,0.977464,1.260000,-0.560000,-0.840000
67.461158,-0.183976,-0.003416,0.991616,-0.280000,-2.100000,-0.980000
67.469245,-0.182512,-0.036600,0.907680,1.540000,-1.960000,-0.420000
67.477332,-0.266936,0.053680,0.997960,1.260000,-0.980000,-0.980000
67.485419,-0.208376,-0.006344,0.976976,0.420000,-2.940000,-1.120000
67.493507,-0.162992,-0.012200,0.997960,0.420000,-1.960000,0.000000
67.501594,-0.226432,0.029768,1.000888,1.680000,0.140000,-1.120000
67.509681,-0.267424,0.018544,0.965264,0.420000,-0.280000,-0.840000
67.517768,-0.185928,-0.008296,1.008208,0.000000,-1.680000,-0.140000
67.525855,-0.208864,0.028304,0.979904,2.660000,0.000000,-1.120000
67.533943,-0.255224,0.042456,0.994544,0.000000,0.560000,-0.840000
67.542030,-0.189832,-0.034648,1.006256,0.700000,0.560000,-1.260000
67.550117,-0.232288,0.003904,0.885232,1.120000,0.420000,-0.140000
67.558204,-0.202520,0.061488,1.062864,0.140000,-0.420000,-0.840000
67.566292,-0.223016,0.008784,0.911096,2.100000,0.420000,-1.540000
67.574379,-0.230336,-0.019032,0.998936,-0.280000,-1.820000,-0.140000
67.582466,-0.223016,0.039040,1.050664,1.540000,-0.280000,-1.400000
67.590553,-0.236192,0.022936,0.945256,1.120000,0.000000,-0.280000
67.598640,-0.201056,-0.009272,1.028704,-0.420000,-0.420000,-0.700000
67.606728,-0.203984,0.025376,0.989176,2.100000,0.280000,-1.680000
67.614815,-0.269864,0.049776,0.981368,0.280000,-0.420000,-0.140000
67.622902,-0.212280,-0.045872,0.974536,0.840000,-1.400000,-1.120000
67.630989,-0.192760,0.014640,0.963800,2.380000,-0.840000,-0.700000
67.639076,-0.220088,0.050264,1.066768,-0.420000,1.680000,-0.700000
67.647164,-0.232288,-0.024888,0.913048,1.120000,0.140000,-1.400000
67.655251,-0.186416,0.011224,0.981368,0.840000,-1.540000,-0.140000
67.663338,-0.238144,0.018544,1.024312,0.840000,1.400000,-0.980000
67.671425,-0.247904,0.018056,0.957456,0.420000,1.400000,-1.400000
67.679513,-0.183976,-0.013176,0.936472,0.700000,-1.820000,-0.420000
67.687600,-0.239120,0.016592,1.029680,1.400000,0.140000,-0.980000
67.695687,-0.251320,0.023424,0.949648,0.140000,1.260000,-0.840000
67.703774,-0.192760,-0.004392,0.939888,1.120000,-1.820000,-0.700000
67.711861,-0.200080,0.000488,1.027240,1.540000,-1.120000,-0.560000
67.719949,-0.247416,0.038064,0.996496,-0.700000,2.240000,-1.540000
67.728036,-0.188856,-0.001464,0.941840,1.540000,-1.540000,-0.700000
67.736123,-0.185928,-0.008296,1.037488,1.120000,-1.260000,-0.280000
67.744210,-0.217160,0.049288,0.999424,0.840000,2.520000,-1.260000
67.752298,-0.248880,0.005368,0.864248,1.400000,1.120000,-0.560000
67.760385,-0.208864,-0.006832,1.075064,0.280000,-2.380000,-0.700000
67.768472,-0.195200,0.026352,0.994544,0.560000,0.700000,-0.700000
67.776559,-0.254736,0.035624,0.974048,1.680000,0.700000,-0.700000
67.784646,-0.212768,0.010248,1.005280,-0.140000,-1.820000,-0.840000
67.792734,-0.216184,-0.018056,0.992592,2.380000,0.280000,-0.560000
67.800821,-0.289384,0.042456,0.976488,-0.140000,1.540000,-0.840000
67.808908,-0.161040,-0.004392,0.965752,0.840000,-1.400000,-1.120000
67.816995,-0.172752,-0.022448,1.030656,1.120000,0.420000,-0.700000
67.825082,-0.261568,0.028304,0.956968,0.420000,2.380000,-0.840000
67.833170,-0.240584,0.020008,0.927688,1.960000,0.000000,-0.700000
67.841257,-0.162016,-0.001952,1.013576,-0.840000,-1.540000,-0.700000
67.849344,-0.223504,-0.004880,0.971608,2.520000,1.120000,-1.120000
67.857431,-0.268888,0.027816,0.929152,0.840000,-0.560000,-0.980000
67.865519,-0.170312,0.007808,1.011624,-0.560000,-2.520000,-0.560000
67.873606,-0.185928,0.008784,1.059448,2.240000,0.140000,-0.700000
67.881693,-0.262056,0.057584,0.967704,0.280000,1.960000,-0.840000
67.889780,-0.202520,-0.012688,0.983320,1.120000,0.000000,-0.560000
67.897867,-0.222528,0.003416,0.987224,0.700000,0.840000,-0.840000
67.905955,-0.252296,0.041480,0.956968,0.280000,0.000000,-0.560000
67.914042,-0.218136,-0.008784,0.975512,2.100000,-2.100000,-0.980000
67.922129,-0.162504,0.003416,1.021384,0.280000,-1.680000,-0.700000
67.930216,-0.236192,0.000976,1.006744,0.980000,3.080000,-0.840000
67.938304,-0.260592,0.020984,0.924760,0.700000,0.980000,-1.120000
67.946391,-0.151280,0.000488,0.971120,1.260000,-3.780000,-0.280000
67.954478,-0.226920,0.025376,1.065792,1.400000,1.680000,-0.840000
67.962565,-0.247416,0.026352,0.943304,0.280000,0.560000,-1.260000
67.970652,-0.182512,-0.020984,0.979904,1.680000,-1.540000,-0.420000
67.978740,-0.222528,0.003416,1.004304,0.000000,1.680000,-0.560000
67.986827,-0.225456,0.047824,0.924760,1.120000,1.540000,-1.260000
67.994914,-0.199104,-0.009760,1.001864,1.400000,-0.700000,-0.980000
68.003001,-0.201544,0.000000,0.991616,-1.260000,1.540000,-0.980000
68.011088,-0.226432,0.002440,0.909144,2.520000,0.700000,-0.280000
68.019176,-0.247904,0.071736,1.075552,0.420000,-1.120000,-0.980000
68.027263,-0.183976,-0.027816,0.936472,-0.280000,-0.560000,-0.980000
68.035350,-0.191784,0.008296,1.042856,3.360000,0.140000,-0.420000
68.043437,-0.264008,0.062952,0.979416,-0.980000,1.260000,-1.120000
68.051525,-0.181048,-0.020008,0.985760,0.980000,-0.980000,-0.980000
68.059612,-0.221064,-0.009272,0.972584,1.960000,0.140000,-0.280000
68.067699,-0.276208,0.058072,1.023824,-0.420000,2.240000,-1.260000
68.075786,-0.196664,0.002928,0.920856,1.540000,-1.540000,-0.840000
68.083873,-0.194224,-0.003904,1.054568,0.140000,-0.980000,-0.560000
68.091961,-0.250832,0.015616,0.971608,1.540000,1.260000,-1.400000
68.100048,-0.188368,0.026840,0.946232,0.700000,-2.520000,0.140000
68.108135,-0.190808,-0.019032,1.013088,1.120000,0.420000,-0.980000
68.116222,-0.274256,0.018544,0.955992,0.980000,1.820000,-1.400000
68.124310,-0.192272,0.029280,0.984784,-1.120000,-1.400000,-0.280000
68.132397,-0.188368,-0.028304,0.973560,2.800000,-1.120000,-0.700000
68.140484,-0.247904,0.042944,0.984784,0.840000,0.000000,-0.560000
68.148571,-0.214720,0.012200,1.018456,-0.420000,0.000000,-0.980000
68.156658,-0.187392,-0.021960,0.949160,1.960000,-0.560000,-0.700000
68.164746,-0.206424,0.020008,1.033096,0.420000,0.420000,-0.420000
68.172833,-0.221064,0.032208,0.982832,1.540000,0.700000,-1.820000
68.180920,-0.222528,-0.009760,0.925248,1.120000,-0.140000,0.000000
68.189007,-0.185440,-0.014152,0.999912,0.280000,0.560000,-1.120000
68.197094,-0.211792,0.044408,0.947696,2.100000,-0.280000,-0.840000
68.205182,-0.207400,0.000488,0.998936,-0.980000,0.140000,-0.140000
68.213269,-0.183488,-0.017568,0.985272,2.380000,-1.120000,-1.400000
68.221356,-0.229360,0.063440,0.966240,0.980000,-0.140000,-0.560000
68.229443,-0.253272,-0.000976,0.997472,-0.140000,-0.420000,-1.120000
68.237531,-0.198616,-0.015128,0.931104,1.400000,-1.260000,-0.840000
68.245618,-0.190808,0.035136,1.060912,-0.280000,-0.560000,-0.420000
68.253705,-0.265960,0.023912,0.992104,1.260000,1.540000,-1.960000
68.261792,-0.200568,-0.006832,0.927200,0.420000,-1.820000,-0.140000
68.269879,-0.196664,0.016104,1.098000,1.400000,0.840000,-0.560000
68.277967,-0.227408,0.043920,0.945256,0.560000,0.980000,-1.260000
68.286054,-0.204472,-0.018056,0.947696,0.840000,0.700000,-0.420000
68.294141,-0.240584,-0.016104,1.018456,1.820000,-0.420000,-0.980000
68.302228,-0.223016,0.046848,0.963312,-0.420000,0.280000,-0.140000
68.310316,-0.199592,-0.006344,1.050664,1.820000,0.420000,-1.260000
68.318403,-0.193248,0.013176,0.906704,0.420000,-0.700000,-0.980000
68.326490,-0.189832,0.002440,0.983320,1.960000,-1.820000,-0.560000
68.334577,-0.239608,0.014152,0.992592,0.560000,0.000000,-0.980000
68.342664,-0.165920,0.014152,0.990152,-0.140000,-0.700000,-0.420000
68.350752,-0.172752,0.013664,1.044320,2.940000,-0.280000,-0.840000
68.358839,-0.311344,0.040992,0.994544,0.000000,4.620000,-1.120000
68.366926,-0.171288,-0.018544,0.969656,-0.140000,0.840000,-0.700000
68.375013,-0.158600,-0.002440,0.978928,2.240000,0.840000,-0.560000
68.383100,-0.224480,0.045384,0.990152,0.420000,3.500000,-0.840000
68.391188,-0.245952,-0.002928,0.905240,0.840000,1.960000,-1.260000
68.399275,-0.172752,-0.004880,1.038952,1.540000,0.420000,-0.420000
68.407362,-0.227408,0.030256,0.997472,-0.280000,4.060000,-0.980000
68.415449,-0.247416,0.025376,0.954528,2.240000,1.260000,-1.120000
68.423537,-0.207400,-0.012688,1.004304,-0.140000,1.680000,-0.140000
68.431624,-0.200568,0.022448,1.031144,0.840000,2.380000,-1.260000
68.439711,-0.251320,0.028792,0.961360,2.240000,3.220000,-0.840000
68.447798,-0.217160,0.014152,1.002352,-0.700000,1.820000,-0.840000
68.455885,-0.162992,-0.015128,0.984296,1.680000,1.960000,-0.560000
68.463973,-0.267912,0.014640,0.978440,1.540000,3.500000,-0.840000
68.472060,-0.198616,0.033672,0.928664,0.000000,1.260000,-1.120000
68.480147,-0.162504,-0.041968,1.048224,1.680000,0.980000,-0.420000
68.488234,-0.235704,0.031232,0.979416,1.120000,4.200000,-1.120000
68.496321,-0.252784,0.040016,0.911584,1.260000,3.780000,-1.120000
68.504409,-0.202520,-0.031720,1.010648,0.140000,-0.420000,-0.700000
68.512496,-0.169824,0.017080,1.007720,1.120000,2.380000,-0.560000
68.520583,-0.274256,0.052704,0.968680,0.980000,3.920000,-0.840000
68.528670,-0.214232,0.004880,0.968680,0.980000,-0.420000,-0.840000
68.536758,-0.183000,-0.009272,1.061400,0.560000,1.680000,-0.700000
68.544845,-0.276208,0.032208,0.937448,1.260000,4.200000,-1.260000
68.552932,-0.238144,-0.000488,0.967216,1.120000,0.980000,-0.840000
68.561019,-0.153232,-0.006344,1.012600,-0.420000,1.400000,-0.980000
68.569106,-0.230336,-0.004880,0.975512,2.240000,4.480000,-0.840000
68.577194,-0.247416,0.054168,0.950624,-0.140000,1.960000,-0.700000
68.585281,-0.165432,-0.027816,1.014064,1.120000,1.260000,-0.840000
68.593368,-0.234240,0.007808,0.957944,0.980000,3.080000,-0.980000
68.601455,-0.248880,0.041968,0.932568,1.400000,2.660000,-0.980000
68.609543,-0.200080,0.016592,1.011136,0.000000,-0.420000,-0.980000
68.617630,-0.194224,-0.013664,1.013088,0.700000,1.400000,-0.560000
68.625717,-0.250344,0.041480,1.008208,1.260000,3.220000,-0.560000
68.633804,-0.234728,0.043432,0.951112,1.400000,0.980000,-1.400000
68.641891,-0.197152,-0.048312,1.013088,0.280000,-0.140000,-0.280000
68.649979,-0.242048,0.024888,0.986248,1.400000,1.960000,-1.120000
68.658066,-0.240584,0.033672,0.943304,1.260000,0.560000,-0.420000
68.666153,-0.171776,0.001464,1.044320,0.280000,-1.120000,-0.980000
68.674240,-0.206424,-0.018056,0.905728,1.820000,2.380000,-0.980000
68.682327,-0.275232,0.026352,0.959896,1.260000,0.420000,-0.840000
68.690415,-0.175192,0.014640,0.981856,-0.840000,-1.400000,-0.980000
68.698502,-0.188368,-0.041480,0.991128,1.820000,1.120000,-0.560000
68.706589,-0.283528,0.057584,0.937936,0.000000,2.380000,-1.260000
68.714676,-0.195688,0.025376,1.000888,0.980000,-0.840000,-0.840000
68.722764,-0.170800,-0.029280,1.010648,1.540000,-0.560000,-0.280000
68.730851,-0.257176,0.039040,0.970632,0.560000,2.380000,-1.400000
68.738938,-0.227408,0.019520,0.976976,1.680000,-0.560000,-0.560000
68.747025,-0.211304,-0.004880,1.043344,-0.280000,0.980000,-0.700000
68.755112,-0.214720,0.020984,0.953064,0.420000,1.820000,-0.840000
68.763200,-0.239608,0.038552,1.007720,2.800000,0.280000,-0.840000
68.771287,-0.249368,0.016104,0.972096,-1.540000,-0.140000,-0.980000
68.779374,-0.190320,-0.023912,0.977464,1.680000,0.280000,-0.560000
68.787461,-0.279624,0.045872,1.005768,1.960000,0.560000,-1.260000
68.795548,-0.180072,0.011712,0.964776,-0.840000,-2.380000,-0.280000
68.803636,-0.189832,-0.026840,1.035536,2.520000,0.840000,-0.420000
68.811723,-0.275720,0.018056,0.901336,0.840000,0.980000,-1.120000
68.819810,-0.216184,0.026352,0.957456,0.280000,-2.240000,-0.980000
68.827897,-0.170800,-0.052704,0.998448,1.820000,-2.240000,-0.840000
68.835985,-0.201056,0.046848,1.029680,-0.280000,1.680000,-0.560000
68.844072,-0.271328,0.022936,0.957456,1.540000,0.700000,-0.980000
68.852159,-0.210328,-0.016592,0.949648,0.420000,-0.140000,-0.840000
68.860246,-0.195688,-0.000976,0.970632,0.560000,0.280000,-0.840000
68.868333,-0.223504,0.045384,0.965264,1.960000,-0.280000,-0.420000
68.876421,-0.210328,0.025376,1.031632,-0.840000,0.980000,-1.120000
68.884508,-0.167384,-0.032696,0.924760,1.260000,-1.120000,-0.840000
68.892595,-0.236192,0.047336,1.033584,1.400000,0.280000,-0.280000
68.900682,-0.244000,0.023912,1.013576,0.280000,1.400000,-1.540000
68.908769,-0.225944,0.004880,0.928664,0.560000,-0.280000,-0.700000
68.916857,-0.182024,0.000488,1.067744,1.540000,0.000000,-0.280000
68.924944,-0.270840,0.073688,0.969656,0.140000,1.400000,-1.540000
68.933031,-0.225456,-0.026840,0.977464,0.840000,-0.560000,-0.280000
68.941118,-0.195688,0.008296,0.999424,1.680000,-0.560000,-0.980000
68.949206,-0.219112,0.031720,0.964288,1.400000,1.120000,-0.420000
68.957293,-0.236680,-0.012688,0.984784,0.000000,0.280000,-0.700000
68.965380,-0.154696,-0.020008,0.958920,1.960000,0.420000,-1.120000
68.973467,-0.224968,0.025376,1.005280,0.280000,1.680000,-0.420000
68.981554,-0.246928,0.022448,0.920368,1.120000,0.840000,-1.260000
68.989642,-0.214720,-0.005368,0.953064,0.560000,-1.540000,-0.980000
68.997729,-0.186904,0.020008,1.048224,1.260000,-0.700000,-0.560000
69.005816,-0.225944,0.033184,1.031144,0.560000,1.400000,-0.840000
69.013903,-0.235216,0.018544,0.944768,0.980000,1.540000,-1.120000
69.021990,-0.215208,-0.015128,1.025288,1.120000,-0.420000,-0.560000
69.030078,-0.213744,0.026840,0.992104,0.140000,1.680000,-0.420000
69.038165,-0.214232,0.019520,1.025776,1.680000,0.700000,-1.120000
69.046252,-0.242048,-0.008784,0.841312,0.840000,0.700000,-0.840000
69.054339,-0.182512,0.002440,1.063352,0.560000,-1.260000,-0.980000
69.062427,-0.241072,0.006344,0.900848,0.700000,1.680000,-0.560000
69.070514,-0.206424,0.045872,1.031632,0.980000,-0.700000,-1.120000
69.078601,-0.183488,0.000976,0.976000,0.280000,-0.700000,-0.560000
69.086688,-0.227896,-0.002440,1.079944,0.980000,1.960000,-0.420000
69.094775,-0.252784,0.043432,0.916952,1.820000,2.380000,-1.400000
69.102863,-0.217160,0.012200,1.008696,0.140000,-1.960000,-0.420000
69.110950,-0.206912,-0.017080,0.968680,1.120000,0.700000,-0.840000
69.119037,-0.248880,0.020984,0.968680,1.120000,0.700000,-0.700000
69.127124,-0.195688,0.006832,0.926712,0.000000,-1.120000,-0.700000
69.135212,-0.189832,-0.019032,1.028216,1.820000,-0.420000,-1.260000
69.143299,-0.210816,0.026352,0.982344,-0.140000,1.400000,-0.980000
69.151386,-0.247416,-0.006344,0.972584,1.820000,1.960000,-0.840000
69.159473,-0.216672,0.020496,0.972096,-0.420000,-0.420000,-0.420000
69.167560,-0.176168,0.020008,1.017480,1.260000,0.420000,-0.560000
69.175648,-0.277184,0.040016,0.958920,1.260000,1.540000,-1.400000
69.183735,-0.243024,0.020008,0.970632,1.120000,-1.540000,-0.700000
69.191822,-0.160552,-0.002440,1.039928,0.280000,-2.380000,0.000000
69.199909,-0.233752,0.019520,1.005280,2.520000,2.520000,-1.260000
69.207996,-0.240584,0.010736,0.963800,0.140000,0.140000,-0.980000
69.216084,-0.146888,-0.014640,1.024312,0.840000,0.140000,-0.560000
69.224171,-0.230824,-0.008784,0.961360,1.820000,2.240000,-0.840000
69.232258,-0.263520,0.059048,0.905240,0.980000,0.980000,-0.980000
69.240345,-0.170312,-0.041480,1.009184,-0.280000,-1.400000,-0.280000
69.248433,-0.172752,0.016104,0.996008,1.680000,1.960000,-1.540000
69.256520,-0.277184,0.048800,0.945744,0.840000,1.820000,-1.120000
69.264607,-0.241072,0.026840,1.004304,-0.140000,-0.140000,-0.840000
69.272694,-0.163968,-0.011224,1.027728,1.540000,-1.540000,-0.700000
69.280781,-0.237656,0.033184,1.017968,0.980000,1.540000,-0.980000
69.288869,-0.259616,0.020496,0.989176,1.540000,2.520000,-0.980000
69.296956,-0.198616,-0.020984,0.910120,0.140000,-0.700000,-0.560000
69.305043,-0.203008,-0.008296,0.965752,1.260000,0.140000,-0.560000
69.313130,-0.249368,0.033672,0.933056,1.400000,-1.540000,-1.120000
69.321217,-0.185440,0.008296,1.019920,0.140000,-0.700000,-0.560000
69.329305,-0.167384,-0.035624,1.002840,0.980000,-0.140000,-0.840000
69.337392,-0.249368,0.064904,0.976000,1.400000,1.960000,-0.700000
69.345479,-0.240096,0.019032,0.989664,0.140000,0.000000,-0.560000
69.353566,-0.187880,-0.020984,0.959896,0.140000,-0.700000,-0.980000
69.361654,-0.225944,0.018544,1.017480,1.540000,0.560000,-0.700000
69.369741,-0.246928,0.075640,1.053592,0.980000,0.840000,-1.120000
69.377828,-0.217160,-0.030256,0.964776,1.120000,-0.560000,-0.840000
69.385915,-0.212768,0.003904,1.007232,0.140000,1.820000,-0.560000
69.394002,-0.232776,0.028304,0.909632,1.400000,1.120000,-0.560000
69.402090,-0.203008,-0.003904,0.975512,1.260000,-1.260000,-0.980000
69.410177,-0.169336,-0.031232,0.988688,0.000000,0.280000,-0.980000
69.418264,-0.244976,0.017568,0.969168,1.820000,1.680000,-0.420000
69.426351,-0.234240,0.058560,0.960384,0.000000,-0.420000,-0.840000
69.434439,-0.161528,-0.034648,1.004792,0.280000,-0.980000,-0.980000
69.442526,-0.226920,0.020984,0.985272,1.680000,1.680000,-0.980000
69.450613,-0.244488,0.050752,0.987712,0.700000,0.420000,-0.700000
69.458700,-0.197640,0.017080,0.975512,0.700000,-0.420000,-1.120000
69.466787,-0.218136,-0.022936,1.000400,1.120000,0.840000,-0.560000
69.474875,-0.239120,0.047824,1.021872,0.280000,1.260000,-0.980000
69.482962,-0.218624,0.022448,0.964288,1.680000,-0.840000,-0.840000
69.491049,-0.217648,-0.033184,1.034560,0.280000,-1.120000,-0.280000
69.499136,-0.213256,0.009760,0.920856,1.680000,0.980000,-1.120000
69.507224,-0.233752,0.038064,0.974048,0.840000,-0.420000,-0.700000
69.515311,-0.200568,-0.018544,0.936960,-0.280000,-2.240000,-1.120000
69.523398,-0.212280,-0.012200,0.980392,1.820000,-0.980000,-0.840000
69.531485,-0.198616,0.046360,1.002352,0.420000,-1.400000,-0.560000
69.539572,-0.208376,0.002928,0.970144,1.120000,-0.420000,-0.700000
69.547660,-0.236192,0.000000,0.975024,0.700000,-0.140000,-0.980000
69.555747,-0.195688,0.031720,0.997960,0.000000,-1.260000,-0.700000
69.563834,-0.244488,0.008784,1.013576,1.820000,0.140000,-1.120000
69.571921,-0.199104,0.019520,0.972584,0.140000,-1.540000,-0.420000
69.580008,-0.196176,0.005368,1.055056,1.680000,0.000000,-0.700000
69.588096,-0.289872,0.050264,0.949160,0.840000,1.540000,-1.540000
69.596183,-0.203008,-0.028792,0.915976,0.140000,-2.660000,-0.140000
69.604270,-0.182512,-0.001952,1.038464,1.960000,-2.520000,-0.840000
69.612357,-0.227896,0.029768,0.958432,0.840000,-0.140000,-0.980000
69.620445,-0.202032,0.003904,1.027728,-0.140000,-0.840000,-0.840000
69.628532,-0.144936,-0.027816,0.922808,1.260000,-1.960000,-0.420000
69.636619,-0.227896,0.069296,1.021384,2.380000,-0.700000,-0.700000
69.644706,-0.247904,0.010248,0.951112,-0.140000,-1.260000,-1.400000
69.652793,-0.189344,-0.023424,0.980392,1.120000,-1.540000,-0.420000
69.660881,-0.211304,0.040016,1.044320,0.280000,-1.260000,-0.700000
69.668968,-0.234240,0.037088,0.978440,1.260000,-0.420000,-0.980000
69.677055,-0.224968,-0.013664,0.956480,1.260000,-1.680000,-0.840000
69.685142,-0.192272,0.014152,1.016504,-0.420000,-0.840000,-0.560000
69.693230,-0.219600,0.013176,0.998448,2.240000,0.280000,-0.560000
69.701317,-0.203984,0.019520,0.956480,1.120000,-1.400000,-1.400000
69.709404,-0.220088,0.002928,1.016016,0.000000,-2.240000,-0.140000
69.717491,-0.196176,0.005368,1.060424,1.260000,0.700000,-0.840000
69.725578,-0.224968,0.026840,0.901824,-0.280000,0.840000,-1.120000
69.733666,-0.156648,-0.013176,1.007232,1.540000,-1.680000,-0.420000
69.741753,-0.233264,0.008784,0.936472,1.400000,0.140000,-1.680000
69.749840,-0.235216,0.019032,0.935984,0.000000,-0.280000,-0.980000
69.757927,-0.209352,0.018544,0.968192,0.420000,-2.660000,-0.560000
69.766014,-0.211792,0.000488,0.980880,1.820000,-4.060000,-0.840000
69.774102,-0.213256,0.050752,1.093608,-0.140000,-2.800000,-0.280000
69.782189,-0.198616,-0.021960,0.941840,1.680000,0.420000,-1.400000
69.790276,-0.213744,0.027816,0.991616,0.140000,-3.360000,-0.840000
69.798363,-0.183976,-0.003904,1.049200,1.120000,-1.680000,-0.280000
69.806451,-0.262056,0.015128,0.971120,1.680000,-0.140000,-1.120000
69.814538,-0.201056,0.017080,0.901824,0.280000,-1.680000,-1.400000
69.822625,-0.144448,-0.023424,0.990152,0.700000,-3.640000,-0.700000
69.830712,-0.202520,0.023424,0.935496,1.120000,-1.260000,-1.260000
69.838799,-0.221064,0.013176,0.955016,1.120000,-2.100000,-0.840000
69.846887,-0.164944,0.020496,1.012112,0.420000,-3.920000,-1.260000
69.854974,-0.223504,0.005856,0.999912,1.260000,-1.400000,-0.560000
69.863061,-0.287432,0.024400,0.991128,1.120000,-1.960000,-1.260000
69.871148,-0.158112,0.014640,1.002352,-0.280000,-3.220000,-0.560000
69.879236,-0.170800,0.005368,1.036024,1.400000,-0.840000,-0.840000
69.887323,-0.263520,0.039040,0.969656,0.280000,-0.700000,-1.400000
69.895410,-0.191784,-0.000488,0.976976,1.680000,-3.220000,-0.420000
69.903497,-0.173728,0.000976,1.058472,1.400000,-2.520000,-0.700000
69.911584,-0.224480,0.030744,0.930616,0.140000,0.000000,-0.840000
69.919672,-0.202520,-0.009272,1.004304,1.960000,-2.380000,-0.700000
69.927759,-0.187880,0.008784,0.975512,-0.700000,-2.800000,-0.560000
69.935846,-0.176168,0.022448,1.014552,1.540000,-1.120000,-0.700000
69.943933,-0.274256,0.023424,0.926712,1.540000,-2.380000,-1.400000
69.952021,-0.174216,-0.024400,0.970144,-0.700000,-4.760000,-0.280000
69.960108,-0.134688,-0.016104,1.018456,1.680000,-2.940000,-0.560000
69.968195,-0.264984,0.060024,0.949160,1.540000,-0.840000,-1.260000
69.976282,-0.211792,-0.003416,1.005280,-0.980000,-3.360000,-0.420000
69.984369,-0.126392,-0.020008,1.012600,2.380000,-2.520000,-0.700000
69.992457,-0.229848,0.040992,0.965752,0.000000,-0.700000,-0.980000
70.000544,-0.248392,0.040504,0.983320,1.120000,-3.220000,-0.980000
70.008631,-0.152744,-0.021960,1.033584,-0.280000,-3.920000,-0.280000
70.016718,-0.183976,0.006344,1.018456,2.100000,-0.560000,-0.980000
70.024805,-0.257664,0.053192,0.975512,0.560000,-0.560000,-1.120000
70.032893,-0.159088,-0.037088,0.931104,0.560000,-2.660000,-0.560000
70.040980,-0.151280,-0.013664,1.008696,0.420000,-1.540000,-0.980000
70.049067,-0.230336,0.035136,0.934520,2.100000,-0.840000,-0.980000
70.057154,-0.202520,0.048800,1.019920,-0.700000,-2.240000,-0.420000
70.065242,-0.158112,-0.033184,0.956968,1.820000,-3.080000,-0.840000
70.073329,-0.259616,0.035624,1.033584,0.560000,-0.980000,-0.700000
70.081416,-0.226920,0.031720,0.980880,0.280000,-2.380000,-0.980000
70.089503,-0.187880,0.017568,0.983320,0.560000,-4.900000,-0.700000
70.097590,-0.157624,-0.043920,0.990640,1.120000,-4.200000,-0.700000
70.105678,-0.196176,0.033184,0.972584,1.120000,-2.100000,-0.840000
70.113765,-0.185440,0.017568,0.935984,0.280000,-3.360000,-0.840000
70.121852,-0.162504,-0.028792,1.059448,0.840000,-3.920000,-0.840000
70.129939,-0.223016,0.033672,0.972584,1.540000,-1.260000,-1.120000
70.138027,-0.205448,0.027328,0.981368,0.420000,-2.240000,-0.140000
70.146114,-0.182024,-0.003416,0.996008,0.000000,-2.800000,-0.980000
70.154201,-0.181536,-0.001464,0.944280,1.680000,-2.380000,-0.980000
70.162288,-0.184952,0.039040,1.075552,0.280000,-2.240000,0.000000
70.170375,-0.171776,0.011224,0.952576,1.260000,-2.520000,-1.260000
70.178463,-0.205936,-0.004392,0.995520,0.700000,-3.640000,-0.420000
70.186550,-0.228384,0.026352,0.976976,1.120000,-2.800000,-0.700000
70.194637,-0.208864,0.031232,1.017968,1.540000,-5.320000,-0.840000
70.202724,-0.162504,-0.018056,0.996496,0.000000,-3.780000,-0.700000
70.210812,-0.181536,0.000976,0.997960,0.840000,-0.420000,-0.840000
70.218899,-0.174704,0.030744,1.002840,0.280000,-2.660000,-1.120000
70.226986,-0.173240,-0.008784,0.842288,0.840000,-3.780000,-0.980000
70.235073,-0.170312,-0.016104,1.031144,1.820000,-6.020000,-1.120000
70.243160,-0.170800,0.059048,1.012600,-0.840000,-3.360000,-0.980000
70.251248,-0.180072,-0.027328,1.036024,1.820000,-2.520000,-0.980000
70.259335,-0.185928,0.015616,0.938424,0.840000,-2.240000,-1.120000
70.267422,-0.176656,0.049776,1.016992,0.280000,-3.780000,-0.840000
70.275509,-0.210328,0.000976,1.032608,2.380000,-2.240000,-0.560000
70.283596,-0.176656,0.020984,0.982832,-0.700000,-2.940000,-0.840000
70.291684,-0.145424,0.008296,1.028704,1.960000,-1.260000,-0.840000
70.299771,-0.223992,0.021960,0.983320,0.420000,0.000000,-1.260000
70.307858,-0.178120,0.010736,0.963312,-0.140000,-2.940000,-0.560000
70.315945,-0.162504,-0.008296,1.031144,2.660000,-1.820000,-0.560000
70.324033,-0.175192,0.068320,1.026264,-0.280000,-2.100000,-0.840000
70.332120,-0.202520,-0.024888,0.995520,2.100000,0.000000,-1.260000
70.340207,-0.215208,-0.004880,0.893040,0.560000,-1.680000,-1.260000
70.348294,-0.144448,-0.001464,1.024312,-0.280000,-4.060000,-0.560000
70.356381,-0.162016,0.002440,1.027728,2.380000,-0.560000,-1.680000
70.364469,-0.169824,0.002928,0.909632,0.420000,-1.540000,-0.420000
70.372556,-0.139080,0.022448,1.069696,1.400000,-0.560000,-0.420000
70.380643,-0.224480,0.032696,0.962336,0.420000,1.260000,-1.820000
70.388730,-0.203984,-0.008784,0.943792,0.560000,-0.700000,-0.280000
70.396818,-0.136640,0.018544,1.071160,0.560000,-2.240000,-0.420000
70.404905,-0.161528,0.031232,0.985272,1.260000,0.700000,-1.260000
70.412992,-0.223992,0.005368,0.992592,0.560000,0.700000,-0.420000
70.421079,-0.157624,0.004392,1.013088,1.540000,-2.100000,-0.700000
70.429166,-0.200080,0.022936,0.999424,2.240000,-0.840000,-0.700000
70.437254,-0.232288,0.022448,0.933056,-0.280000,-0.700000,-1.120000
70.445341,-0.145424,-0.029280,1.014552,1.540000,-2.800000,-1.400000
70.453428,-0.124928,0.015616,1.016504,0.140000,-2.240000,-0.560000
70.461515,-0.183488,0.007808,0.960384,1.400000,1.400000,-1.120000
70.469602,-0.206424,0.007320,0.966240,1.400000,-0.280000,-1.260000
70.477690,-0.103944,0.001464,1.051640,-0.700000,-0.140000,-0.980000
70.485777,-0.200568,0.009272,0.962824,2.800000,1.960000,-0.980000
70.493864,-0.223016,0.060024,0.959896,-0.700000,-0.140000,-0.700000
70.501951,-0.138592,-0.024888,1.055056,1.260000,-0.560000,-1.120000
70.510039,-0.213256,0.020496,0.972584,0.000000,0.560000,-0.980000
70.518126,-0.202520,0.019520,0.986736,1.260000,0.280000,-0.980000
70.526213,-0.178120,0.006344,0.979904,1.680000,-2.240000,-0.700000
70.534300,-0.111264,-0.000976,1.039440,0.140000,-0.980000,-0.280000
70.542387,-0.195200,0.037576,1.041392,1.260000,2.380000,-1.260000
70.550475,-0.176656,0.018544,0.892552,1.260000,-0.420000,-0.420000
70.558562,-0.145424,-0.030256,1.098000,0.140000,-1.260000,-0.420000
70.566649,-0.169336,0.006832,0.950624,1.820000,4.060000,-1.400000
70.574736,-0.219112,0.048312,0.940864,0.840000,1.400000,-0.560000
70.582824,-0.160064,-0.025376,0.986248,0.980000,-1.960000,-1.120000
70.590911,-0.179096,0.025864,1.043344,0.560000,0.840000,-0.560000
70.598998,-0.198616,0.040992,0.964776,1.400000,1.680000,-0.980000
70.607085,-0.161040,0.000976,1.007720,0.560000,0.140000,-0.840000
70.615172,-0.137128,-0.017080,1.003328,1.260000,0.140000,-0.700000
70.623260,-0.205448,0.017568,1.026264,1.120000,3.220000,-0.700000
70.631347,-0.185440,0.036600,0.953064,0.420000,0.700000,-1.120000
70.639434,-0.124440,-0.027328,1.021872,1.260000,0.420000,-0.560000
70.647521,-0.187880,0.019520,0.967704,0.980000,1.960000,-0.840000
70.655608,-0.224480,0.021960,0.956968,0.840000,1.820000,-1.120000
70.663696,-0.178608,0.017568,0.956480,0.140000,-0.840000,-0.700000
70.671783,-0.128832,-0.014640,1.067256,1.400000,-0.700000,-0.560000
70.679870,-0.200080,0.044896,0.935008,1.540000,2.240000,-0.840000
70.687957,-0.181048,-0.008784,1.001864,0.420000,0.000000,-0.980000
70.696045,-0.172264,-0.001952,1.026264,0.140000,0.420000,-0.700000
70.704132,-0.184464,0.024400,1.009184,1.680000,2.240000,-0.700000
70.712219,-0.188856,0.009760,0.967704,0.140000,0.560000,-1.120000
70.720306,-0.145912,0.004880,0.992592,1.680000,-0.700000,-0.420000
70.728393,-0.180072,0.024888,1.020896,0.980000,1.540000,-0.560000
70.736481,-0.202032,0.004392,0.939400,0.980000,1.400000,-1.400000
70.744568,-0.161040,0.000488,0.977952,0.420000,-1.120000,-0.700000
70.752655,-0.136640,-0.018544,0.994056,0.560000,0.280000,-0.420000
70.760742,-0.223016,0.047824,1.011136,1.820000,1.540000,-1.120000
70.768829,-0.200080,0.027328,0.949160,0.980000,-0.980000,-0.840000
70.776917,-0.142496,-0.016592,1.073600,-0.560000,-0.840000,-0.280000
70.785004,-0.152256,0.016592,0.981368,1.820000,1.960000,-1.400000
70.793091,-0.223016,0.041480,0.989664,1.400000,1.400000,-0.700000
70.801178,-0.186416,-0.004392,1.027240,-0.700000,0.280000,-0.700000
70.809266,-0.159088,-0.030744,0.950624,2.100000,1.680000,-0.700000
70.817353,-0.209352,0.063440,0.996496,0.280000,0.980000,-0.980000
70.825440,-0.169336,-0.011224,0.969656,0.560000,0.000000,-0.840000
70.833527,-0.146888,-0.017568,0.997960,0.700000,-0.280000,-0.840000
70.841614,-0.195200,0.024400,0.937936,1.680000,0.980000,-0.840000
70.849702,-0.192272,0.046848,1.030168,-0.280000,-0.700000,-0.700000
70.857789,-0.110288,-0.018544,0.984296,1.120000,-0.980000,-0.840000
70.865876,-0.204472,-0.003416,1.011624,1.680000,0.700000,-0.980000
70.873963,-0.221064,0.055632,0.998936,0.140000,0.280000,-0.700000
70.882051,-0.144448,-0.009760,0.988688,2.240000,-1.260000,-0.560000
70.890138,-0.205936,0.000976,1.017968,-0.420000,1.540000,-0.980000
70.898225,-0.207400,0.029280,0.991128,0.980000,2.520000,-1.120000
70.906312,-0.161040,-0.000488,0.970632,0.980000,-0.980000,-0.560000
70.914399,-0.148352,-0.005368,1.000888,-0.280000,-0.840000,-0.840000
70.922487,-0.209352,0.028792,0.972096,2.940000,1.260000,-1.120000
70.930574,-0.162504,0.038064,1.013576,-0.840000,-1.540000,-0.420000
70.938661,-0.106872,-0.043432,0.995032,1.120000,-0.140000,-0.980000
70.946748,-0.210816,0.006344,0.939888,2.660000,0.700000,-0.980000
70.954835,-0.183000,0.049288,1.047736,-1.820000,0.420000,-0.700000
70.962923,-0.157136,-0.040992,0.955504,2.940000,0.700000,-0.560000
70.971010,-0.207400,0.046360,1.013576,0.140000,1.120000,-0.840000
70.979097,-0.164456,0.021960,0.966728,0.140000,-0.280000,-1.260000
70.987184,-0.183000,0.003416,0.984784,1.540000,-1.120000,-0.420000
70.995272,-0.150304,0.002928,1.035048,0.840000,-0.840000,-0.560000
71.003359,-0.206912,0.040504,1.016504,1.960000,0.840000,-0.980000
71.011446,-0.165920,0.010736,0.941840,-0.280000,-0.280000,-0.560000
71.019533,-0.151280,-0.021960,1.035536,1.260000,-1.120000,-0.980000
71.027620,-0.209840,0.022936,0.987224,1.120000,1.400000,-1.120000
71.035708,-0.165920,0.020008,0.993080,0.000000,0.280000,-0.280000
71.043795,-0.176168,-0.019032,0.996008,0.560000,0.700000,-0.980000
71.051882,-0.140056,0.009272,0.963800,1.260000,0.560000,-0.840000
71.059969,-0.169336,0.020008,1.021384,1.260000,1.260000,-0.420000
71.068057,-0.165432,-0.003416,0.961360,-0.420000,1.400000,-1.400000
71.076144,-0.171288,0.003416,0.953552,3.080000,0.420000,-0.700000
71.084231,-0.180560,0.043432,1.068232,-0.980000,1.540000,-0.700000
71.092318,-0.163480,-0.001952,0.985760,1.960000,1.820000,-1.260000
71.100405,-0.219112,0.012200,0.944768,0.700000,0.980000,-0.840000
71.108493,-0.164456,0.024888,1.027240,0.700000,-1.680000,-0.560000
71.116580,-0.218136,0.031232,0.985272,1.400000,-0.140000,-0.980000
71.124667,-0.182512,-0.011224,0.982344,0.700000,-1.260000,-1.120000
71.132754,-0.114680,0.010248,1.025776,0.560000,-1.400000,-0.420000
71.140841,-0.175680,0.006832,0.982344,2.240000,-0.140000,-0.560000
71.148929,-0.239608,0.011224,0.976488,-0.280000,1.960000,-1.120000
71.157016,-0.153232,-0.021960,0.933544,1.120000,-2.240000,-1.120000
71.165103,-0.142008,0.010736,1.035048,0.560000,-1.540000,0.140000
71.173190,-0.203984,0.039040,1.037976,1.120000,2.100000,-1.400000
71.181278,-0.162016,0.003416,0.930616,0.420000,-0.420000,-0.980000
71.189365,-0.119072,-0.001464,1.026264,0.560000,-0.560000,-0.280000
71.197452,-0.247416,0.015616,0.983320,1.960000,2.380000,-1.120000
71.205539,-0.156648,0.029280,0.963312,0.000000,-0.280000,-0.700000
71.213626,-0.135664,-0.018544,1.013576,0.980000,0.000000,-0.560000
71.221714,-0.204960,0.001952,1.026752,0.700000,1.680000,-1.260000
71.229801,-0.201056,0.040992,0.937936,0.700000,0.980000,-0.840000
71.237888,-0.127368,0.018056,1.066768,1.120000,-1.120000,-0.280000
71.245975,-0.145912,0.016104,1.019920,0.280000,1.960000,-1.400000
71.254062,-0.224480,0.016592,0.949160,1.960000,2.800000,-0.700000
71.262150,-0.197640,0.021472,0.968680,0.420000,-0.700000,-0.700000
71.270237,-0.132248,-0.016592,1.025288,0.980000,-0.560000,-0.560000
71.278324,-0.205936,0.000000,0.968680,0.840000,1.820000,-1.260000
71.286411,-0.199104,0.026840,0.966240,1.260000,0.420000,-0.840000
71.294499,-0.126392,-0.018544,1.006256,-0.140000,-1.960000,-0.560000
71.302586,-0.171288,0.010248,0.984296,2.240000,0.840000,-1.260000
71.310673,-0.207888,0.041480,0.958432,0.000000,-0.840000,-0.700000
71.318760,-0.133224,-0.001464,1.037976,0.560000,-1.400000,-0.420000
71.326847,-0.151280,0.007808,1.010160,1.540000,0.280000,-0.700000
71.334935,-0.232288,0.047824,0.982832,0.980000,1.680000,-1.400000
71.343022,-0.154208,-0.015128,0.936472,0.560000,-2.240000,-0.420000
71.351109,-0.148840,-0.010248,1.041392,1.120000,-0.140000,-0.980000
71.359196,-0.222040,0.045384,0.956968,0.420000,0.700000,-1.400000
71.367284,-0.149816,0.017080,1.002352,1.260000,-2.100000,-0.700000
71.375371,-0.146888,-0.038064,1.055544,0.840000,0.560000,-0.980000
71.383458,-0.181536,0.033672,0.970632,0.840000,1.820000,-0.980000
71.391545,-0.188856,0.047824,0.978928,1.820000,-0.420000,-0.280000
71.399632,-0.184952,-0.008296,1.024800,0.700000,-1.960000,-0.840000
71.407720,-0.153720,-0.006344,0.985760,0.560000,1.120000,-1.120000
71.415807,-0.219112,0.032208,1.017480,2.380000,1.120000,-0.700000
71.423894,-0.161528,0.003904,0.975512,-0.840000,-1.960000,-0.560000
71.431981,-0.139080,-0.007320,0.995520,1.400000,1.260000,-1.260000
71.440069,-0.206424,0.037088,0.987712,1.260000,0.700000,-0.840000
71.448156,-0.142496,0.018544,1.009672,-0.560000,-0.140000,-0.420000
71.456243,-0.145912,-0.040992,0.971608,2.940000,0.420000,-0.980000
71.464330,-0.219112,0.049776,0.989664,0.420000,0.560000,-0.700000
71.472417,-0.216184,-0.001952,0.968192,0.280000,0.280000,-0.980000
71.480505,-0.152256,-0.028792,0.935496,0.420000,-1.540000,-0.840000
71.488592,-0.114192,0.002440,0.978440,0.560000,-1.960000,-0.980000
71.496679,-0.188856,0.060512,1.053104,1.820000,0.280000,-0.840000
71.504766,-0.133224,-0.006832,1.003328,-0.140000,-0.140000,-1.260000
71.512853,-0.184952,0.006344,0.966728,2.520000,-0.980000,-1.260000
71.520941,-0.198616,0.052216,1.021872,0.140000,0.560000,-0.700000
71.529028,-0.173728,-0.001952,0.948672,0.840000,-0.840000,-0.840000
71.537115,-0.187880,0.001952,0.978928,1.820000,-1.680000,-0.700000
71.545202,-0.165432,0.044896,1.093608,-0.140000,-0.140000,-1.260000
71.553290,-0.193248,-0.001464,0.940376,1.400000,0.560000,-1.120000
71.561377,-0.174704,-0.010736,1.007232,0.420000,-2.660000,-0.280000
71.569464,-0.161040,0.010248,1.064328,1.400000,0.980000,-1.400000
71.577551,-0.161528,0.039528,0.918904,0.280000,0.840000,-0.420000
71.585638,-0.184952,-0.017080,1.007232,0.840000,-0.140000,-0.840000
71.593726,-0.181048,-0.001464,1.012112,1.260000,-0.140000,-0.980000
71.601813,-0.149328,0.043920,0.965752,-0.420000,0.280000,-0.280000
71.609900,-0.184464,-0.024888,1.023824,2.940000,-1.680000,-1.400000
71.617987,-0.131760,0.013664,0.966728,0.000000,-1.260000,-0.840000
71.626075,-0.152744,0.001952,1.032120,1.960000,1.400000,-0.140000
71.634162,-0.215208,0.021960,0.883280,0.700000,0.700000,-1.540000
71.642249,-0.148840,0.002440,0.969656,0.280000,-2.660000,-0.840000
71.650336,-0.165920,-0.011224,1.060424,1.540000,-1.260000,-0.700000
71.658423,-0.172752,0.041480,0.990152,-0.700000,0.840000,-0.700000
71.666511,-0.171288,-0.004392,1.011136,1.820000,0.840000,-1.400000
71.674598,-0.162016,0.023912,0.982344,0.140000,0.140000,-1.120000
71.682685,-0.160552,0.038552,1.002840,0.560000,-0.560000,0.140000
71.690772,-0.166896,-0.003904,0.998936,2.520000,0.000000,-1.540000
71.698860,-0.141520,0.017080,0.965752,-0.560000,-0.700000,-0.560000
71.706947,-0.179584,0.008784,1.087264,1.540000,1.540000,-0.420000
71.715034,-0.224480,0.025376,0.921832,0.840000,1.540000,-1.820000
71.723121,-0.154696,0.007808,0.991128,-0.560000,-2.100000,0.140000
71.731208,-0.156160,-0.019520,1.057008,2.520000,-1.540000,-1.120000
71.739296,-0.180072,0.035136,0.924760,0.280000,0.840000,-1.120000
71.747383,-0.128832,-0.030256,1.077992,0.700000,-0.140000,-0.140000
71.755470,-0.144448,0.031720,0.975024,2.240000,0.560000,-1.120000
71.763557,-0.230824,0.052216,0.889136,0.000000,0.980000,-0.840000
71.771644,-0.189344,-0.039040,0.978440,1.120000,-4.620000,-1.120000
71.779732,-0.136640,0.002440,1.044808,1.260000,-1.260000,-0.560000
71.787819,-0.154696,0.046360,1.037976,-0.980000,1.400000,-0.420000
71.795906,-0.180560,-0.013176,0.901824,2.800000,-0.420000,-1.540000
71.803993,-0.173240,0.030744,1.005768,0.140000,-2.940000,-0.140000
71.812081,-0.174216,-0.020984,1.048712,0.000000,1.120000,-1.260000
71.820168,-0.191296,0.021960,0.939888,2.240000,-0.280000,-0.980000
71.828255,-0.134200,0.028304,1.057496,-0.700000,-0.840000,-0.140000
71.836342,-0.169336,0.002928,1.001376,1.540000,0.840000,-1.400000
71.844429,-0.237656,0.011712,0.927688,1.120000,-0.280000,-0.980000
71.852517,-0.147864,-0.001952,1.041392,0.280000,-2.940000,-0.840000
71.860604,-0.094184,0.017568,1.035536,0.980000,-0.420000,-0.700000
71.868691,-0.223016,0.024400,0.978440,1.820000,1.540000,-1.400000
71.876778,-0.161040,0.012688,0.994544,-0.140000,-0.980000,-0.420000
71.884866,-0.103456,-0.004392,0.997472,2.380000,-1.120000,-0.420000
71.892953,-0.201544,0.019032,1.006256,0.420000,1.120000,-1.260000
71.901040,-0.154696,0.002928,0.946232,1.120000,0.140000,-0.700000
71.909127,-0.113704,-0.009760,1.019920,1.260000,-1.120000,-0.140000
71.917214,-0.193248,0.034648,1.034560,0.000000,3.080000,-1.540000
71.925302,-0.203008,0.013664,0.928176,2.380000,0.700000,-0.980000
71.933389,-0.128344,-0.004880,1.046272,0.000000,-0.980000,0.280000
71.941476,-0.142008,0.027328,0.993080,2.100000,2.240000,-1.540000
71.949563,-0.200568,0.027328,0.966728,0.700000,1.400000,-0.980000
71.957650,-0.172752,-0.016104,0.997960,0.700000,0.140000,-0.700000
71.965738,-0.150304,0.007808,0.998448,1.260000,-0.700000,-0.700000
71.973825,-0.212768,0.024888,1.001376,1.120000,1.260000,-1.120000
71.981912,-0.212280,0.020984,0.968680,-0.140000,0.000000,-1.400000
71.989999,-0.088328,-0.047824,0.975512,1.680000,-3.360000,-0.280000
71.998087,-0.159576,0.027816,1.050664,0.560000,2.380000,-0.840000
72.006174,-0.188368,0.036112,0.929152,0.840000,1.540000,-1.820000
72.014261,-0.119072,-0.014640,1.003816,0.700000,-2.240000,0.000000
72.022348,-0.146888,0.005368,1.049688,1.540000,2.380000,-1.400000
72.030435,-0.212280,0.073200,0.915000,0.700000,1.540000,-0.840000
72.038523,-0.141520,-0.002440,1.056032,-0.280000,-1.540000,-0.560000
72.046610,-0.141520,-0.013664,0.984296,2.240000,0.140000,-1.120000
72.054697,-0.209352,0.031720,0.980392,0.840000,0.980000,-0.420000
72.062784,-0.207888,0.020496,0.971120,0.840000,-0.980000,-1.120000
72.070872,-0.133712,-0.012200,1.018944,0.840000,-3.780000,-0.840000
72.078959,-0.191784,0.007808,1.014552,0.980000,0.280000,-0.700000
72.087046,-0.189832,0.024888,0.984784,2.100000,-0.560000,-1.540000
72.095133,-0.125904,0.014640,0.982344,-0.840000,-2.660000,-1.260000
72.103220,-0.139568,-0.047336,1.018944,1.400000,0.700000,-0.840000
72.111308,-0.214720,0.043432,0.954528,1.540000,1.540000,-0.980000
72.119395,-0.114680,0.024400,0.936472,-0.280000,-1.960000,-0.840000
72.127482,-0.123464,-0.020008,1.077016,1.120000,-0.840000,-0.700000
72.135569,-0.195200,0.025864,0.970144,1.680000,1.120000,-0.840000
72.143657,-0.206424,0.028304,0.989664,0.140000,-0.280000,-0.560000
72.151744,-0.154208,0.023424,0.993568,1.120000,-2.100000,-1.120000
72.159831,-0.168848,-0.006832,1.025776,0.700000,-1.960000,-0.840000
72.167918,-0.203008,0.033184,0.957944,1.120000,-0.560000,-0.700000
72.176005,-0.136640,0.016592,0.990640,0.420000,-4.340000,-0.840000
72.184093,-0.122976,-0.031232,1.021872,0.980000,-1.820000,-0.980000
72.192180,-0.150792,0.042456,1.013576,1.540000,-0.840000,-0.560000
72.200267,-0.185928,0.001952,0.979416,1.120000,-1.680000,-0.560000
72.208354,-0.155184,-0.026352,1.018456,0.140000,0.560000,-1.260000
72.216441,-0.163968,0.031720,0.979416,1.120000,0.420000,-0.700000
72.224529,-0.172752,0.011712,0.993080,0.840000,-0.700000,-0.700000
72.232616,-0.149816,-0.015616,0.971120,0.000000,-1.680000,-0.980000
72.240703,-0.126392,0.009272,0.974048,2.100000,-0.980000,-0.280000
72.248790,-0.203984,0.067344,1.019920,0.280000,0.000000,-0.700000
72.256878,-0.130784,-0.037088,0.985760,0.420000,-1.960000,-1.260000
72.264965,-0.157136,-0.009760,0.992104,1.960000,-0.140000,-0.280000
72.273052,-0.198128,0.058560,1.025776,-0.420000,1.260000,-0.980000
72.281139,-0.146888,0.003904,0.944280,0.560000,-1.260000,-1.120000
72.289226,-0.119072,-0.034648,1.024800,1.120000,-0.840000,-0.560000
72.297314,-0.144448,0.069784,0.997472,0.980000,-0.840000,-0.980000
72.305401,-0.203008,0.021472,0.979416,1.260000,-0.280000,-0.840000
72.313488,-0.167872,-0.011712,1.033584,0.140000,-1.960000,-0.980000
72.321575,-0.156160,0.014152,0.985760,2.240000,-0.560000,-0.280000
72.329663,-0.175680,0.041968,1.045296,0.140000,-0.420000,-0.980000
72.337750,-0.131760,-0.028792,0.964288,0.560000,-0.280000,-1.260000
72.345837,-0.131760,0.010248,1.015528,2.100000,-1.260000,-0.420000
72.353924,-0.197152,0.038552,1.031144,0.000000,1.260000,-0.840000
72.362011,-0.152744,-0.003904,0.925248,1.540000,0.420000,-1.260000
72.370099,-0.142008,-0.000976,1.050176,1.120000,0.000000,-0.560000
72.378186,-0.146400,-0.010736,0.967704,-0.560000,1.680000,-0.980000
72.386273,-0.186416,0.030256,0.963800,2.380000,1.400000,-0.840000
72.394360,-0.161040,0.002928,0.991616,-0.840000,-0.560000,-0.420000
72.402447,-0.134688,0.007808,1.034560,1.400000,0.980000,-0.980000
72.410535,-0.201056,0.016104,0.948672,1.400000,1.400000,-1.120000
72.418622,-0.169824,0.003904,0.906704,-0.280000,-2.660000,-0.420000
72.426709,-0.101992,0.011224,1.074576,0.840000,-2.240000,-1.120000
72.434796,-0.209840,0.038064,1.001864,1.540000,0.700000,-1.400000
72.442884,-0.145424,0.000976,1.006256,0.140000,-1.120000,-0.420000
72.450971,-0.111264,0.005368,1.022360,2.100000,-1.540000,-1.120000
72.459058,-0.208376,0.032208,0.976000,1.540000,0.140000,-0.560000
72.467145,-0.191784,-0.005856,1.024800,-0.560000,0.000000,-1.120000
72.475232,-0.104920,-0.004392,0.971608,1.400000,-1.680000,-0.420000
72.483320,-0.148840,0.028792,1.016992,0.840000,-0.280000,-0.560000
72.491407,-0.196176,0.010736,1.009672,0.420000,0.560000,-1.260000
72.499494,-0.115168,-0.027816,0.922320,1.960000,-1.680000,-0.700000
72.507581,-0.128344,0.028304,1.064328,0.000000,0.840000,-0.700000
72.515669,-0.190320,0.006344,0.911584,0.420000,0.980000,-1.260000
72.523756,-0.141032,0.000000,0.975512,1.400000,-2.240000,-0.980000
72.531843,-0.128832,0.035136,1.037000,-0.420000,-0.420000,-1.260000
72.539930,-0.163968,0.012688,1.000888,2.240000,0.700000,-0.980000
72.548017,-0.195688,0.022936,1.017480,0.420000,0.840000,-1.120000
72.556105,-0.115168,0.001464,1.014064,0.840000,-1.400000,-0.420000
72.564192,-0.165432,0.033672,1.034560,1.540000,1.540000,-0.420000
72.572279,-0.225456,0.026352,0.983808,0.700000,1.680000,-1.540000
72.580366,-0.136640,-0.016104,0.908168,0.140000,-1.260000,-0.420000
72.588454,-0.089792,-0.005856,1.102880,1.540000,-1.820000,-0.420000
72.596541,-0.181048,0.048312,0.988688,0.560000,2.660000,-1.260000
72.604628,-0.161528,-0.011224,0.976976,1.820000,-0.420000,-0.420000
72.612715,-0.141032,-0.016104,1.026752,0.420000,0.560000,-1.120000
72.620802,-0.166408,0.015128,0.954528,1.400000,1.820000,-0.840000
72.628890,-0.178120,0.036112,0.985760,0.700000,0.140000,-0.280000
72.636977,-0.098088,-0.012200,0.993080,0.140000,-0.420000,-0.980000
72.645064,-0.150792,-0.003904,0.977464,1.540000,1.120000,-0.840000
72.653151,-0.209840,0.050264,0.982344,0.000000,0.980000,-0.980000
72.661238,-0.110776,-0.014640,0.981368,1.680000,-2.100000,-0.420000
72.669326,-0.159088,0.016104,1.028704,0.420000,0.700000,-0.980000
72.677413,-0.186904,0.011224,0.955016,1.820000,0.560000,-1.120000
72.685500,-0.148352,0.004392,1.011624,0.420000,-0.840000,-0.140000
72.693587,-0.103944,0.005856,1.083360,0.280000,1.400000,-1.120000
72.701675,-0.215696,0.052704,0.955016,1.120000,3.220000,-0.980000
72.709762,-0.197640,0.002928,1.001376,1.260000,-0.280000,-0.560000
72.717849,-0.101992,-0.006344,1.043344,0.140000,-1.400000,-0.700000
72.725936,-0.178608,0.014640,0.980392,2.240000,1.820000,-1.120000
72.734023,-0.185928,0.021960,0.946232,-0.700000,0.420000,-0.700000
72.742111,-0.100528,-0.024400,1.049688,2.240000,-0.700000,-1.120000
72.750198,-0.142496,0.010248,0.961360,0.420000,1.260000,-0.980000
72.758285,-0.177144,0.021472,0.962336,0.280000,1.680000,-1.120000
72.766372,-0.111752,-0.014640,1.037976,1.820000,0.280000,-0.560000
72.774460,-0.099552,0.021960,1.014064,-0.560000,1.820000,-0.700000
72.782547,-0.176656,0.026840,1.012112,2.240000,5.460000,-0.700000
72.790634,-0.223992,0.050264,0.967704,0.700000,2.520000,-1.400000
72.798721,-0.161040,-0.003416,0.981856,0.140000,-0.280000,-0.560000
72.806808,-0.146400,-0.015128,1.006744,1.820000,-0.140000,-0.700000
72.814896,-0.217160,0.035136,0.985272,1.120000,1.680000,-1.260000
72.822983,-0.104920,0.013664,1.013088,0.280000,-0.420000,-0.560000
72.831070,-0.132736,-0.023912,1.050664,1.680000,2.380000,-0.700000
72.839157,-0.194712,0.035624,0.947208,0.980000,3.360000,-1.680000
72.847244,-0.145424,0.000488,0.960872,-0.280000,0.140000,-0.140000
72.855332,-0.121024,-0.030744,1.080432,1.680000,0.700000,-0.700000
72.863419,-0.136152,0.058560,0.956968,0.700000,4.060000,-0.980000
72.871506,-0.181048,0.017568,0.998448,1.120000,3.220000,-0.700000
72.879593,-0.179584,-0.020496,0.999912,0.000000,2.100000,-1.120000
72.887681,-0.120536,0.000000,0.973072,1.820000,2.520000,-0.700000
72.895768,-0.209840,0.050264,1.011136,0.840000,3.640000,-0.980000
72.903855,-0.147376,-0.005368,0.940376,-0.280000,1.820000,-0.560000
72.911942,-0.142008,0.009760,1.028216,1.260000,1.680000,-0.980000
72.920029,-0.185928,0.016104,0.993568,1.960000,1.680000,-0.840000
72.928117,-0.164456,0.032696,1.033584,0.140000,1.120000,-0.700000
72.936204,-0.118096,-0.028304,0.983320,1.120000,1.400000,-0.980000
72.944291,-0.174216,0.017080,1.007720,1.400000,2.240000,-0.700000
72.952378,-0.186416,0.016592,0.993080,0.700000,2.800000,-1.120000
72.960466,-0.136640,-0.004392,0.948672,0.700000,1.540000,-0.420000
72.968553,-0.153720,0.017080,1.059448,0.840000,2.520000,-0.840000
72.976640,-0.171776,0.013176,0.974536,0.980000,3.780000,-1.400000
72.984727,-0.152256,-0.005856,0.956480,0.000000,2.660000,-0.280000
72.992814,-0.132736,0.006832,0.976976,1.400000,1.400000,-1.260000
73.000902,-0.200568,0.058072,0.988200,1.680000,2.100000,-0.840000
73.008989,-0.184952,0.012200,1.016992,0.420000,0.140000,-0.700000
73.017076,-0.142496,-0.041480,0.988688,0.840000,0.980000,-1.260000
73.025163,-0.175192,0.052704,1.004792,1.120000,1.120000,-0.700000
73.033251,-0.204472,0.009272,1.013576,0.280000,1.680000,-0.840000
73.041338,-0.128344,-0.016104,0.986248,1.120000,0.980000,-1.400000
73.049425,-0.131760,0.015616,0.987224,1.120000,1.400000,-0.420000
73.057512,-0.174704,0.019032,1.056032,1.540000,1.960000,-0.840000
73.065599,-0.143960,0.002928,0.983808,0.140000,4.060000,-1.120000
73.073687,-0.150304,-0.002928,0.935496,1.260000,1.680000,-0.420000
73.081774,-0.194224,0.032208,1.016504,0.980000,2.100000,-0.840000
73.089861,-0.148840,0.017080,0.966240,0.420000,2.380000,-1.260000
73.097948,-0.136152,-0.041968,1.003328,1.400000,1.820000,-0.560000
73.106035,-0.155672,0.049288,1.013576,0.840000,2.660000,-0.980000
73.114123,-0.199592,0.032208,0.947696,0.980000,2.520000,-0.840000
73.122210,-0.168360,-0.023912,1.004792,0.700000,-0.280000,-0.840000
73.130297,-0.117608,0.023912,1.044808,1.260000,2.240000,-0.840000
73.138384,-0.210816,0.020984,0.979416,0.840000,3.220000,-0.420000
73.146472,-0.169336,0.014640,0.966240,-0.420000,2.520000,-1.400000
73.154559,-0.157624,-0.010248,1.017968,2.940000,0.560000,-0.980000
73.162646,-0.190808,0.040504,1.045296,-0.980000,4.200000,-0.280000
73.170733,-0.144448,0.010736,0.927200,1.400000,2.940000,-1.540000
73.178820,-0.166896,-0.022448,0.958432,1.960000,-0.560000,-0.560000
73.186908,-0.165432,0.002440,1.022848,-0.140000,1.540000,-0.840000
73.194995,-0.162504,0.017568,0.999912,1.260000,1.960000,-1.400000
73.203082,-0.184952,0.024400,0.959408,0.980000,0.700000,-0.840000
73.211169,-0.133224,-0.008296,1.043344,0.140000,-0.140000,-0.280000
73.219257,-0.170800,0.032208,0.965264,2.380000,2.100000,-1.260000
73.227344,-0.175680,0.003416,0.951112,0.420000,0.560000,-0.560000
73.235431,-0.122488,0.009760,1.074088,0.560000,0.280000,-1.120000
73.243518,-0.165920,0.019032,0.968680,1.120000,2.380000,-0.700000
73.251605,-0.199104,0.009760,0.997960,1.400000,2.660000,-0.700000
73.259693,-0.147376,0.024888,1.028216,0.560000,0.560000,-0.980000
73.267780,-0.165432,0.003416,0.998448,1.260000,2.520000,-0.420000
73.275867,-0.221552,0.033184,0.993568,0.840000,2.100000,-1.260000
73.283954,-0.127368,-0.002440,0.955504,0.840000,-0.560000,-0.840000
73.292041,-0.138104,-0.010248,1.079456,0.700000,1.960000,-0.420000
73.300129,-0.219600,0.035136,0.959896,1.680000,3.080000,-1.400000
73.308216,-0.176168,-0.002440,0.908656,0.560000,0.420000,-0.700000
73.316303,-0.122000,-0.010736,1.048712,0.420000,-1.960000,-0.700000
73.324390,-0.194712,0.009272,0.938424,0.840000,2.520000,-1.120000
73.332478,-0.177144,0.004392,1.008208,0.840000,0.560000,-0.840000
73.340565,-0.126880,0.026840,0.992104,0.840000,-0.980000,-0.980000
73.348652,-0.170800,0.009760,0.966240,1.540000,-0.280000,-0.420000
73.356739,-0.206424,0.032208,1.011624,0.840000,-0.280000,-1.400000
73.364826,-0.126392,-0.015128,0.993080,0.700000,-0.140000,-0.700000
73.372914,-0.149328,0.007320,1.057496,0.840000,1.820000,-0.420000
73.381001,-0.216672,0.033184,0.945744,0.700000,3.500000,-1.960000
73.389088,-0.184464,0.030256,0.948184,0.840000,-1.400000,0.000000
73.397175,-0.144448,-0.017568,1.082872,0.000000,-0.560000,-0.420000
73.405263,-0.191296,0.032208,0.966240,1.260000,1.400000,-1.260000
73.413350,-0.168360,0.025376,0.997472,2.100000,-0.840000,-0.980000
73.421437,-0.121512,-0.020008,1.002352,-0.420000,-2.100000,-0.980000
73.429524,-0.175680,0.001464,1.028216,2.520000,2.380000,-0.840000
73.437611,-0.198128,0.040016,0.941352,0.560000,0.700000,-1.260000
73.445699,-0.153720,-0.016104,0.950624,0.420000,-1.680000,-0.280000
73.453786,-0.134688,-0.002928,1.052128,1.260000,-0.700000,-0.560000
73.461873,-0.184952,0.046360,0.925736,1.120000,0.980000,-1.400000
73.469960,-0.164944,-0.021472,1.005768,1.120000,-1.260000,-0.420000
73.478048,-0.116632,0.009272,1.051152,0.000000,0.700000,-0.840000
73.486135,-0.206912,0.034648,0.949160,1.680000,3.080000,-1.120000
73.494222,-0.187392,0.034160,1.001376,0.980000,-1.540000,-0.700000
73.502309,-0.113704,-0.032208,1.006256,0.000000,-1.260000,-0.420000
73.510396,-0.188856,0.015616,1.008696,2.940000,1.680000,-0.980000
73.518484,-0.182512,0.058560,0.975024,-0.700000,0.700000,-1.120000
73.526571,-0.117120,-0.037088,1.005280,1.540000,-1.400000,-0.420000
73.534658,-0.209840,0.021472,1.050176,1.120000,3.220000,-1.260000
73.542745,-0.218624,0.054168,0.968192,0.560000,0.980000,-0.980000
73.550832,-0.134688,-0.017080,0.984784,0.840000,-1.540000,-0.280000
73.558920,-0.158112,-0.016104,1.002840,1.120000,-0.980000,-1.400000
73.567007,-0.198128,0.042944,0.931104,1.540000,0.000000,-0.840000
73.575094,-0.138592,-0.025864,0.996008,0.140000,-1.680000,-0.840000
73.583181,-0.111752,-0.015616,1.027728,1.120000,-0.700000,-0.980000
73.591269,-0.204960,0.048312,1.002840,1.540000,0.560000,-0.700000
73.599356,-0.175192,0.015616,1.015528,0.280000,0.980000,-0.560000
73.607443,-0.132736,-0.001952,0.992592,0.980000,1.120000,-0.980000
73.615530,-0.183000,0.018056,0.948672,1.400000,1.680000,-0.840000
73.623617,-0.172752,0.020008,1.000888,0.700000,-0.840000,-0.700000
73.631705,-0.121024,0.008784,0.957456,0.420000,-0.560000,-0.980000
73.639792,-0.161528,0.000976,1.035048,0.840000,-0.560000,-0.840000
73.647879,-0.169336,0.041480,0.989664,1.680000,0.980000,-0.840000
73.655966,-0.180072,0.005856,0.994056,0.280000,0.560000,-0.420000
73.664054,-0.181048,-0.010736,1.006744,0.560000,0.420000,-1.400000
73.672141,-0.172752,0.035624,1.001864,1.540000,1.120000,-0.840000
73.680228,-0.180560,0.004880,1.024312,0.000000,0.420000,0.000000
73.688315,-0.123952,-0.003904,0.956480,1.400000,-0.280000,-1.260000
73.696402,-0.172752,0.011224,1.033096,1.260000,0.840000,-0.840000
73.704490,-0.204960,0.024888,0.997960,-0.560000,2.380000,-0.700000
73.712577,-0.141520,-0.017080,0.933056,2.380000,0.280000,-0.980000
73.720664,-0.144448,0.034160,1.037488,0.840000,0.140000,-0.840000
73.728751,-0.181048,0.012688,0.962336,0.420000,1.680000,-0.980000
73.736838,-0.171776,-0.011712,0.955504,0.280000,0.000000,-0.700000
73.744926,-0.126392,-0.007808,1.009184,1.960000,-0.420000,-0.840000
73.753013,-0.189344,0.045872,1.039440,0.140000,1.260000,-0.560000
73.761100,-0.186416,0.005368,0.984296,1.120000,1.680000,-1.260000
73.769187,-0.171776,0.001464,0.996496,1.120000,0.140000,-0.560000
73.777275,-0.143960,0.029768,0.999912,0.140000,0.140000,-0.420000
73.785362,-0.140056,0.040504,1.055544,1.540000,0.700000,-0.980000
73.793449,-0.176656,0.012200,0.954528,1.120000,0.140000,-1.400000
73.801536,-0.164944,-0.029768,1.017968,1.820000,-0.280000,-0.280000
73.809623,-0.166408,0.016592,0.967216,0.700000,1.400000,-1.120000
73.817711,-0.159576,0.007808,0.966728,0.840000,1.120000,-1.260000
73.825798,-0.152744,-0.016104,0.958432,0.420000,-0.140000,-0.840000
73.833885,-0.147376,0.023424,1.045296,1.400000,0.000000,-0.560000
73.841972,-0.201056,0.026840,0.961360,0.000000,2.380000,-0.980000
73.850060,-0.146888,-0.016104,0.995032,1.400000,0.560000,-0.840000
73.858147,-0.152256,0.033184,1.026264,0.840000,2.100000,-0.700000
73.866234,-0.182512,0.045872,0.988200,-0.420000,1.820000,-0.700000
73.874321,-0.163968,-0.019032,1.028216,2.520000,0.980000,-1.260000
73.882408,-0.159576,0.014640,0.982344,0.560000,1.260000,-0.560000
73.890496,-0.175680,0.003416,1.027728,0.420000,3.220000,-0.700000
73.898583,-0.209352,-0.005368,0.944768,1.260000,1.680000,-1.400000
73.906670,-0.128344,0.024888,0.978928,0.980000,0.140000,-0.420000
73.914757,-0.137616,-0.002440,1.105320,0.980000,2.240000,-0.140000
73.922844,-0.187880,0.030256,0.902800,1.540000,3.360000,-1.820000
73.930932,-0.192272,0.014640,0.935008,0.560000,0.420000,-0.840000
73.939019,-0.117608,-0.008784,0.986736,0.140000,-0.280000,-0.980000
73.947106,-0.174704,0.021960,1.032120,1.960000,1.400000,-0.980000
73.955193,-0.175680,0.024400,1.008696,0.000000,1.540000,-1.120000
73.963281,-0.133712,0.001952,0.976000,1.120000,0.140000,-0.700000
73.971368,-0.183488,0.025376,1.049200,1.540000,1.680000,-0.700000
73.979455,-0.250344,0.019032,0.976976,0.280000,3.080000,-1.400000
73.987542,-0.145424,0.003416,0.942816,1.820000,-1.680000,-0.280000
73.995629,-0.145424,0.013176,1.088240,-0.280000,0.420000,-0.280000
74.003717,-0.225944,0.004392,0.952576,2.100000,2.520000,-1.680000
74.011804,-0.161040,-0.012200,0.881816,0.420000,-1.820000,-0.560000
74.019891,-0.085888,-0.005856,1.089216,0.000000,-0.280000,-1.400000
74.027978,-0.189832,0.015128,0.948184,1.680000,2.240000,-1.540000
74.036066,-0.181048,0.031720,1.018944,0.140000,0.280000,-0.420000
74.044153,-0.097600,-0.003416,1.041392,1.680000,0.560000,-0.840000
74.052240,-0.209352,0.019520,0.946720,1.540000,4.200000,-0.560000
74.060327,-0.211792,0.015616,1.015040,-0.840000,2.520000,-0.840000
74.068414,-0.116144,-0.007320,0.972096,2.520000,1.120000,-0.980000
74.076502,-0.159576,0.035136,1.012600,-0.560000,2.100000,-0.420000
74.084589,-0.207400,0.005368,0.978440,2.380000,2.940000,-1.820000
74.092676,-0.187880,0.007808,0.955992,-0.560000,0.420000,-0.280000
74.100763,-0.121512,-0.002440,1.077504,1.400000,-0.700000,-0.700000
74.108851,-0.171776,0.051728,0.965752,1.400000,1.960000,-0.700000
74.116938,-0.167872,0.014640,1.051640,1.540000,1.540000,-0.980000
74.125025,-0.148840,-0.026352,0.943792,0.560000,0.840000,-1.400000
74.133112,-0.163968,0.009272,0.978440,1.540000,1.680000,-0.560000
74.141199,-0.192272,0.030744,0.956968,0.420000,1.260000,-1.120000
74.149287,-0.160552,-0.016592,1.019920,0.840000,0.700000,-0.420000
74.157374,-0.133224,0.012688,1.034560,0.000000,2.520000,-0.980000
74.165461,-0.219112,0.043920,0.924760,1.820000,2.660000,-0.840000
74.173548,-0.161528,0.009272,1.032608,1.400000,-1.400000,-0.420000
74.181635,-0.142984,-0.010248,1.022848,-0.560000,1.820000,-1.120000
74.189723,-0.206912,0.021472,0.976000,2.240000,3.220000,-0.980000
74.197810,-0.179096,0.033184,0.969656,-0.140000,0.280000,-0.700000
74.205897,-0.119072,-0.020008,1.024312,1.680000,-0.140000,-0.980000
74.213984,-0.221552,0.014640,0.979904,0.980000,4.200000,-0.980000
74.222072,-0.178120,0.052216,1.035536,-0.560000,1.120000,-0.840000
74.230159,-0.105896,-0.030256,1.008696,2.520000,0.560000,-0.840000
74.238246,-0.222040,0.016592,1.005280,0.280000,3.640000,-1.120000
74.246333,-0.168848,0.018056,0.953064,0.980000,2.660000,-0.840000
74.254420,-0.146400,-0.000488,0.967704,1.260000,0.420000,-0.420000
74.262508,-0.158112,-0.003416,1.035048,0.420000,1.260000,-1.540000
74.270595,-0.204960,0.021960,0.917928,1.820000,3.360000,-0.560000
74.278682,-0.164944,-0.002928,1.013088,0.700000,0.980000,-0.700000
74.286769,-0.126392,0.008784,0.981368,0.560000,1.400000,-1.400000
74.294857,-0.189832,0.007808,0.990152,1.680000,2.380000,-0.280000
74.302944,-0.211792,0.038552,1.034072,0.280000,1.820000,-1.400000
74.311031,-0.129808,-0.011712,0.947696,1.540000,1.400000,-1.120000
74.319118,-0.170312,-0.000976,1.064816,0.000000,2.240000,0.140000
74.327205,-0.194712,0.067832,0.978928,1.680000,3.780000,-1.680000
74.335293,-0.205936,-0.009760,0.905728,0.840000,0.140000,-0.280000
74.343380,-0.166408,-0.014640,1.042368,0.140000,-0.980000,-0.840000
74.351467,-0.187392,0.033184,0.986248,2.940000,1.260000,-1.400000
74.359554,-0.155672,0.041968,0.997960,-0.560000,-1.540000,-0.280000
74.367642,-0.142008,-0.051728,1.024312,1.680000,1.540000,-0.840000
74.375729,-0.247904,0.040992,0.935008,1.120000,2.380000,-1.260000
74.383816,-0.123464,0.040016,1.080432,-0.980000,-0.280000,-0.560000
74.391903,-0.115168,-0.036112,0.971608,3.220000,0.980000,-1.120000
74.399990,-0.204960,0.023912,0.939400,0.140000,2.240000,-0.420000
74.408078,-0.195688,0.023424,1.033584,0.560000,1.400000,-1.120000
74.416165,-0.158600,-0.013176,0.965264,2.240000,0.280000,-0.980000
74.424252,-0.149328,0.015616,1.023824,0.280000,1.260000,-0.420000
74.432339,-0.171288,0.025864,0.978440,1.120000,2.940000,-1.260000
74.440426,-0.192272,-0.012688,0.949160,-0.420000,2.240000,-0.700000
74.448514,-0.128832,0.006344,1.000400,1.400000,-0.420000,-0.840000
74.456601,-0.169336,0.027816,1.036512,1.960000,1.540000,-0.560000
74.464688,-0.199592,0.038552,0.997472,0.280000,1.680000,-0.980000
74.472775,-0.212768,-0.021472,0.961848,1.540000,1.260000,-0.700000
74.480863,-0.161528,0.034160,1.049200,-0.280000,1.960000,-0.840000
74.488950,-0.188368,0.026352,0.980880,2.100000,1.960000,-1.260000
74.497037,-0.174704,-0.016104,0.975024,-0.280000,1.820000,-0.560000
74.505124,-0.152256,0.014152,1.031632,0.840000,0.280000,-0.980000
74.513211,-0.158600,0.011224,0.974536,2.660000,1.400000,-0.420000
74.521299,-0.214232,0.032696,1.005768,-0.420000,1.680000,-0.840000
74.529386,-0.113704,-0.018056,0.955016,1.820000,0.980000,-1.260000
74.537473,-0.192272,-0.005856,0.994544,1.540000,1.820000,-0.560000
74.545560,-0.212280,0.007320,0.987712,-0.700000,2.660000,-0.980000
74.553648,-0.146400,0.000000,0.935496,1.820000,1.260000,-0.560000
74.561735,-0.179096,0.053192,1.076528,0.420000,1.680000,-0.980000
74.569822,-0.192272,0.007808,0.932568,0.000000,2.380000,-1.260000
74.577909,-0.142008,-0.017568,1.032608,1.680000,-0.140000,-0.280000
74.585996,-0.152256,0.029768,0.999424,0.560000,2.520000,-0.980000
74.594084,-0.197152,0.032696,0.994056,1.680000,3.080000,-0.840000
74.602171,-0.226432,0.016104,0.965264,0.560000,1.960000,-0.980000
74.610258,-0.165432,-0.011224,1.006256,0.980000,-0.280000,-0.560000
74.618345,-0.170800,0.030744,1.023336,0.700000,0.980000,-0.420000
74.626433,-0.184952,0.008296,0.968680,1.680000,1.260000,-0.980000
74.634520,-0.152256,-0.005368,1.007720,0.700000,0.980000,-0.700000
74.642607,-0.174216,0.007808,1.008208,1.120000,2.100000,-0.980000
74.650694,-0.218136,0.008784,0.965752,1.400000,2.520000,-0.980000
74.658781,-0.152256,0.005368,0.976488,-0.140000,2.100000,-0.980000
74.666869,-0.141520,-0.003416,1.004304,1.820000,1.540000,-0.560000
74.674956,-0.193736,0.029280,0.982832,-0.280000,3.500000,-0.980000
74.683043,-0.188368,0.001464,0.918904,1.400000,1.400000,-0.560000
74.691130,-0.160552,0.025376,1.042368,0.560000,-0.420000,-0.700000
74.699218,-0.179096,0.024400,0.984784,0.980000,1.540000,-0.980000
74.707305,-0.216184,0.002928,0.991128,0.700000,0.700000,-0.840000
74.715392,-0.129320,0.002440,1.019432,0.980000,-0.140000,-0.840000
74.723479,-0.196664,0.024888,1.046760,1.260000,3.220000,-0.280000
74.731566,-0.212768,0.014152,0.978928,0.700000,3.780000,-1.260000
74.739654,-0.152256,-0.011224,0.928176,1.960000,0.000000,-0.980000
74.747741,-0.162992,-0.003416,1.074576,-0.560000,2.660000,-0.560000
74.755828,-0.183488,0.026352,0.941840,1.960000,3.220000,-1.120000
74.763915,-0.188856,0.019032,0.940864,1.120000,0.980000,-1.120000
74.772003,-0.159576,-0.006344,0.991616,0.420000,0.980000,-0.840000
74.780090,-0.178120,0.015616,1.031632,1.120000,0.840000,-0.980000
74.788177,-0.196664,0.020008,0.944768,1.680000,2.100000,-0.840000
74.796264,-0.155672,0.008296,1.019432,-0.140000,-0.560000,-0.700000
74.804351,-0.180072,0.013176,1.020408,0.980000,1.960000,-0.980000
74.812439,-0.224968,0.018544,0.955504,1.960000,1.260000,-0.980000
74.820526,-0.164456,0.004880,1.055544,0.420000,0.560000,-0.700000
74.828613,-0.164944,0.011224,0.984784,0.280000,2.660000,-0.840000
74.836700,-0.215208,0.038064,0.963312,1.540000,1.680000,-0.700000
74.844787,-0.160552,0.008784,1.012600,0.000000,0.000000,-0.980000
74.852875,-0.169336,0.000976,0.986736,1.540000,0.280000,-0.420000
74.860962,-0.238632,0.008296,0.988688,0.560000,3.220000,-0.840000
74.869049,-0.166408,0.026840,1.013088,1.260000,-1.120000,-1.540000
74.877136,-0.122976,-0.007808,0.998448,0.700000,0.700000,-0.140000
74.885224,-0.232776,0.016104,0.986248,1.680000,2.940000,-1.260000
74.893311,-0.189344,0.017568,0.940376,0.000000,1.260000,-1.400000
74.901398,-0.117120,-0.009760,1.005768,1.540000,-1.960000,-0.700000
74.909485,-0.195688,-0.006344,0.975512,2.520000,0.840000,-0.700000
74.917572,-0.207888,0.028304,0.986736,-0.140000,1.260000,-1.260000
74.925660,-0.148352,-0.000488,0.991128,0.560000,0.280000,-0.280000
74.933747,-0.162992,-0.008296,1.010648,1.400000,1.540000,-0.840000
74.941834,-0.223504,0.052704,0.984784,0.840000,2.380000,-1.120000
74.949921,-0.135664,-0.002928,1.002840,-0.280000,-0.140000,-0.420000
74.958009,-0.184464,-0.017568,0.980880,2.100000,2.660000,-1.120000
74.966096,-0.202520,0.042944,0.981856,0.000000,3.220000,-0.840000
74.974183,-0.168360,0.016592,1.009672,1.260000,0.420000,-0.840000
74.982270,-0.175680,-0.027328,0.988200,1.400000,2.380000,-0.840000
74.990357,-0.192272,0.051240,0.972096,0.280000,1.960000,-0.700000
74.998445,-0.178608,0.007320,1.010648,2.100000,0.840000,-0.840000
75.006532,-0.183000,-0.008296,0.973560,-0.280000,2.240000,-0.840000
75.014619,-0.169824,0.020496,0.982344,0.840000,2.100000,-0.980000
75.022706,-0.181536,0.031720,0.982832,1.960000,0.560000,-0.700000
75.030794,-0.183488,-0.011712,1.039928,0.140000,0.840000,-0.840000
75.038881,-0.166408,0.015128,0.980880,2.100000,2.380000,-0.560000
