Time [s],lsm6dsv16x_acc_x [g],lsm6dsv16x_acc_y [g],lsm6dsv16x_acc_z [g],lsm6dsv16x_gyro_x [dps],lsm6dsv16x_gyro_y [dps],lsm6dsv16x_gyro_z [dps]
48.076111,-0.054168,-0.029768,1.002840,1.260000,-1.400000,-0.560000
48.084199,-0.072712,0.020984,1.032608,0.420000,1.540000,-0.700000
48.092286,-0.117120,0.041480,0.986248,1.540000,1.680000,-1.120000
48.100373,-0.103944,0.024400,1.008696,0.000000,-1.120000,-0.840000
48.108460,-0.048800,-0.035624,1.081896,1.120000,-0.980000,-1.260000
48.116547,-0.106872,0.021960,0.959896,0.700000,0.840000,-0.560000
48.124635,-0.077592,0.000976,1.025776,0.980000,0.420000,-0.700000
48.132722,-0.026840,0.019032,0.956480,0.420000,-0.140000,-1.120000
48.140809,-0.091256,-0.007320,1.045296,1.120000,0.980000,-0.840000
48.148896,-0.122000,0.037088,0.963800,0.420000,0.560000,-0.700000
48.156983,-0.029280,0.016104,1.077992,1.680000,-1.680000,-0.700000
48.165071,-0.032696,0.016104,1.044808,-0.420000,1.400000,-0.980000
48.173158,-0.101504,-0.009760,0.948672,2.380000,3.080000,-1.260000
48.181245,-0.098576,0.017080,0.978928,0.420000,0.140000,-0.280000
48.189332,-0.021472,-0.008296,1.074576,0.000000,0.560000,-0.420000
48.197419,-0.097112,0.017568,0.988200,2.240000,2.660000,-1.540000
48.205507,-0.109312,0.008784,0.919880,0.840000,0.000000,-1.120000
48.213594,-0.054168,-0.019032,0.996496,-0.560000,-1.820000,-0.700000
48.221681,-0.090280,-0.001464,1.054080,2.520000,0.700000,-0.840000
48.229768,-0.089792,0.063440,1.031144,-0.560000,2.380000,-0.980000
48.237855,-0.044408,-0.010736,0.991616,1.260000,-0.420000,-1.260000
48.245943,-0.075640,-0.007808,1.009184,0.980000,1.680000,-0.280000
48.254030,-0.116144,0.052704,1.031144,0.560000,2.800000,-0.980000
48.262117,-0.079056,0.022448,1.001864,1.820000,0.420000,-1.120000
48.270204,-0.045384,-0.015616,1.037488,-1.120000,0.560000,-0.280000
48.278291,-0.086376,-0.036112,1.029680,3.360000,3.780000,-1.400000
48.286379,-0.129320,0.065392,0.950136,-0.560000,2.660000,-0.560000
48.294466,-0.010736,-0.027816,1.021384,1.400000,0.700000,-0.980000
48.302553,-0.066856,0.010248,1.009184,0.560000,2.660000,-1.260000
48.310640,-0.121512,0.005368,1.004792,2.240000,4.060000,-1.260000
48.318728,-0.085888,0.020984,0.987224,-0.420000,1.260000,-0.280000
48.326815,-0.015128,-0.027328,1.023824,1.260000,2.800000,-0.980000
48.334902,-0.129808,0.042456,0.928664,1.540000,2.520000,-1.400000
48.342989,-0.101992,0.041480,1.034072,0.280000,-0.420000,-0.840000
48.351076,-0.004392,-0.037088,1.064328,0.840000,-0.420000,-0.420000
48.359164,-0.114680,0.028304,1.044808,2.380000,3.780000,-1.120000
48.367251,-0.077592,0.032208,1.018456,-0.140000,3.360000,-0.840000
48.375338,-0.047336,-0.028304,0.981856,2.240000,2.380000,-0.980000
48.383425,-0.122000,0.006344,0.968680,0.280000,3.500000,-0.840000
48.391512,-0.067344,0.036112,1.007720,1.400000,2.240000,-0.840000
48.399600,-0.062464,0.004392,1.015040,0.280000,1.400000,-0.560000
48.407687,-0.073688,-0.021472,1.012600,1.120000,3.640000,-0.840000
48.415774,-0.122000,0.017080,0.985760,1.260000,4.200000,-1.120000
48.423861,-0.092232,0.033184,1.007720,0.700000,2.520000,-0.560000
48.431948,-0.028304,-0.011712,0.990152,0.560000,1.400000,-0.980000
48.440036,-0.103456,-0.000488,1.015528,1.400000,4.200000,-1.120000
48.448123,-0.163968,0.053192,0.993568,0.280000,3.080000,-0.700000
48.456210,-0.039040,-0.016104,1.024312,0.840000,-0.280000,-0.700000
48.464297,-0.041968,-0.014640,1.021384,0.700000,2.380000,-0.980000
48.472384,-0.103456,0.026352,0.991128,2.520000,3.220000,-1.120000
48.480472,-0.087352,0.014152,1.003816,0.000000,2.240000,-0.140000
48.488559,-0.056608,-0.023912,0.982344,1.540000,2.660000,-1.120000
48.496646,-0.090280,0.020008,1.001376,1.400000,2.800000,-0.980000
48.504733,-0.076616,0.036112,0.980392,0.000000,3.080000,-0.560000
48.512820,-0.060024,0.005856,1.078480,1.260000,2.660000,-1.260000
48.520908,-0.097112,0.016104,0.981856,0.560000,3.780000,-1.260000
48.528995,-0.081984,0.040992,1.061888,1.400000,2.660000,-0.280000
48.537082,-0.121024,-0.002928,0.936472,0.980000,2.940000,-1.120000
48.545169,-0.091256,-0.025376,0.993568,0.980000,0.280000,-0.840000
48.553256,-0.105408,0.014152,0.993568,1.820000,2.100000,-0.980000
48.561344,-0.074664,0.031720,1.005280,-1.120000,0.140000,-0.700000
48.569431,-0.044408,-0.055632,1.037976,2.100000,2.100000,-1.400000
48.577518,-0.089792,0.051728,0.999424,0.700000,4.480000,-0.840000
48.585605,-0.104432,0.019520,0.941352,0.000000,2.100000,-0.560000
48.593692,-0.108336,-0.003416,1.043344,1.820000,0.700000,-0.560000
48.601780,-0.089792,-0.002440,0.966240,0.840000,1.400000,-0.980000
48.609867,-0.091744,0.041968,1.045784,0.140000,3.220000,-0.560000
48.617954,-0.084912,0.002928,1.038464,0.560000,1.540000,-1.540000
48.626041,-0.092232,0.006832,1.028704,2.100000,2.240000,-0.560000
48.634128,-0.113216,0.013176,1.037976,0.140000,4.060000,-0.420000
48.642216,-0.081496,0.012200,0.953552,0.980000,2.660000,-1.120000
48.650303,-0.083448,-0.037576,0.976488,0.980000,2.380000,-0.980000
48.658390,-0.078080,0.006344,0.961360,1.400000,1.680000,-0.840000
48.666477,-0.088328,0.040504,1.029192,0.280000,1.820000,-0.840000
48.674564,-0.081984,-0.012688,1.030168,1.960000,2.520000,-1.260000
48.682652,-0.041968,0.012688,0.985272,-0.700000,3.920000,-0.420000
48.690739,-0.102480,0.006832,1.032120,2.940000,4.620000,-1.260000
48.698826,-0.157624,0.054168,1.002840,-0.840000,4.200000,-0.840000
48.706913,-0.091744,-0.037576,1.031632,1.820000,2.800000,-0.700000
48.715000,-0.091256,0.033184,0.934032,1.960000,3.360000,-0.980000
48.723088,-0.062952,0.024400,0.920856,-0.840000,0.420000,-1.120000
48.731175,-0.073200,-0.004392,1.047248,1.540000,-1.400000,-1.120000
48.739262,-0.095648,-0.000976,1.019432,0.980000,2.380000,-0.840000
48.747349,-0.116632,0.048312,1.057008,0.700000,1.960000,-0.980000
48.755436,-0.105408,-0.000488,0.937936,0.280000,0.700000,-0.700000
48.763524,-0.043432,-0.023424,1.058472,2.660000,0.000000,-0.560000
48.771611,-0.151280,0.056608,1.042368,0.560000,2.940000,-1.260000
48.779698,-0.080520,-0.012688,1.006744,0.000000,2.520000,-0.560000
48.787785,-0.099552,-0.009272,0.998448,2.240000,3.080000,-0.980000
48.795873,-0.073200,0.040016,1.023336,0.140000,2.100000,-0.420000
48.803960,-0.100528,0.009760,1.049200,2.240000,4.760000,-0.980000
48.812047,-0.095160,-0.013664,0.921344,-0.560000,3.220000,-0.980000
48.820134,-0.070760,-0.022936,0.979904,1.680000,1.680000,-0.700000
48.828221,-0.092720,0.053192,0.985272,0.700000,1.400000,-1.120000
48.836309,-0.112240,0.002440,1.027240,0.980000,1.820000,-1.120000
48.844396,-0.097600,-0.016104,0.984296,0.700000,1.540000,-0.560000
48.852483,-0.057096,0.009272,1.066280,1.120000,2.660000,-0.980000
48.860570,-0.135176,0.037576,0.925248,0.280000,2.660000,-0.840000
48.868657,-0.067344,-0.017568,1.087264,1.680000,1.400000,-0.420000
48.876745,-0.128832,0.057584,1.031144,1.400000,3.500000,-1.400000
48.884832,-0.133712,0.012688,0.968192,0.420000,2.800000,-0.560000
48.892919,-0.101504,-0.037088,0.966240,1.120000,1.400000,-1.120000
48.901006,-0.065392,0.003416,0.986248,1.540000,0.000000,-0.700000
48.909093,-0.055144,0.021960,1.081896,-0.700000,4.340000,-0.560000
48.917181,-0.133224,-0.009760,0.929640,2.240000,3.780000,-1.400000
48.925268,-0.102968,0.018056,0.948184,-0.140000,0.560000,-0.420000
48.933355,-0.063440,0.015616,1.058960,0.700000,1.960000,-1.120000
48.941442,-0.102480,0.040504,1.026264,0.700000,1.960000,-0.980000
48.949529,-0.100528,-0.002928,0.981856,2.240000,1.960000,-0.980000
48.957617,-0.090280,0.000000,1.062376,0.000000,1.540000,-0.280000
48.965704,-0.082472,0.021960,1.010160,1.260000,3.920000,-0.840000
48.973791,-0.138592,0.003416,0.987224,1.120000,4.340000,-1.120000
48.981878,-0.097112,0.009272,1.021384,0.280000,2.660000,-0.420000
48.989965,-0.049776,0.002440,1.042856,1.540000,2.940000,-1.120000
48.998053,-0.137128,0.025864,0.945744,0.840000,4.480000,-0.840000
49.006140,-0.088328,-0.012688,0.957456,0.560000,2.940000,-1.120000
49.014227,-0.071736,-0.000488,0.990640,2.240000,2.100000,-0.840000
49.022314,-0.113216,0.049288,1.061400,-0.840000,3.080000,-0.420000
49.030401,-0.162504,-0.004392,0.971608,3.920000,3.220000,-1.540000
49.038489,-0.082960,0.030256,0.989664,-1.820000,0.560000,-0.140000
49.046576,-0.086864,-0.052216,1.077016,1.960000,3.780000,-1.680000
49.054663,-0.181536,0.061000,0.914024,0.280000,3.780000,-0.980000
49.062750,-0.038064,-0.017568,1.051152,0.700000,0.280000,-0.560000
49.070837,-0.070760,0.014152,1.038952,1.260000,3.080000,-0.980000
49.078925,-0.110288,-0.000976,0.981368,0.840000,5.180000,-0.980000
49.087012,-0.093696,0.017080,0.924760,1.400000,1.960000,-0.980000
49.095099,-0.109800,0.006832,1.034072,1.680000,0.980000,-0.840000
49.103186,-0.115168,0.018056,1.029192,0.700000,2.800000,-0.700000
49.111274,-0.137128,0.003904,0.969168,1.540000,3.220000,-0.980000
49.119361,-0.055632,0.025376,1.065792,-0.420000,1.120000,-0.420000
49.127448,-0.116632,0.005368,1.007720,1.960000,3.780000,-1.260000
49.135535,-0.159576,0.024400,0.980392,-0.140000,2.240000,-0.560000
49.143622,-0.064416,-0.007320,0.982832,1.680000,-0.140000,-0.840000
49.151710,-0.082472,0.006344,1.053104,1.540000,1.260000,-0.560000
49.159797,-0.135176,0.012200,0.974048,0.560000,3.780000,-1.260000
49.167884,-0.110776,0.006344,1.010160,1.260000,2.660000,-0.980000
49.175971,-0.061976,-0.002928,1.013088,-0.140000,1.400000,-0.420000
49.184058,-0.115656,0.006832,0.997472,2.520000,4.900000,-1.260000
49.192146,-0.142984,0.025864,0.932080,0.000000,2.380000,-0.700000
49.200233,-0.043920,-0.004392,1.056032,0.840000,1.120000,-0.700000
49.208320,-0.108336,0.021960,0.999912,0.980000,3.500000,-0.980000
49.216407,-0.180072,0.022448,0.992592,1.820000,3.220000,-0.840000
49.224494,-0.093696,0.015616,0.976976,-0.140000,0.280000,-0.560000
49.232582,-0.044896,-0.020984,1.049688,1.820000,2.380000,-1.260000
49.240669,-0.137128,0.031720,0.987224,0.280000,3.500000,-0.700000
49.248756,-0.128344,0.002928,1.042368,1.400000,2.800000,-0.700000
49.256843,-0.076616,0.017080,1.006744,0.840000,2.240000,-0.840000
49.264930,-0.126392,0.001952,1.016992,1.400000,4.340000,-1.120000
49.273018,-0.150792,0.019032,0.883768,0.560000,3.640000,-1.120000
49.281105,-0.068320,0.006344,1.021384,0.700000,-0.280000,-0.840000
49.289192,-0.102480,-0.016104,1.033096,0.700000,1.680000,-0.420000
49.297279,-0.182512,0.054656,1.004304,1.120000,2.940000,-1.120000
49.305366,-0.116632,0.010736,0.989176,0.840000,-0.840000,-0.700000
49.313454,-0.063928,-0.015616,1.088728,0.700000,0.000000,-0.980000
49.321541,-0.122000,0.030744,0.977952,1.120000,3.500000,-1.120000
49.329628,-0.100528,0.000000,0.976976,1.820000,0.980000,-0.840000
49.337715,-0.067344,-0.010736,0.977464,0.140000,0.420000,-1.400000
49.345802,-0.130784,0.000000,1.006256,1.820000,2.660000,-0.840000
49.353890,-0.150304,0.059048,0.936472,0.420000,0.980000,-1.400000
49.361977,-0.111752,-0.034160,1.004792,0.700000,-0.840000,-0.980000
49.370064,-0.080520,0.004880,1.043344,0.420000,0.560000,-0.280000
49.378151,-0.130296,0.027328,0.987712,1.400000,2.660000,-1.260000
49.386239,-0.101992,0.023912,0.994544,-0.560000,0.000000,-0.700000
49.394326,-0.081008,-0.038064,1.031144,2.100000,1.680000,-0.840000
49.402413,-0.156160,0.048312,0.992592,0.700000,2.940000,-1.120000
49.410500,-0.106872,0.021472,1.028216,1.120000,0.700000,-0.700000
49.418587,-0.081496,-0.001464,0.996008,0.980000,0.280000,-0.420000
49.426675,-0.096136,-0.020008,0.987224,1.540000,1.960000,-0.840000
49.434762,-0.163480,0.025864,0.933056,1.540000,1.680000,-1.400000
49.442849,-0.092232,0.005856,1.029192,-0.560000,-0.700000,-0.280000
49.450936,-0.069784,-0.020496,1.019432,1.820000,0.840000,-0.700000
49.459023,-0.150304,0.059536,0.981856,0.980000,2.240000,-0.840000
49.467111,-0.120536,0.014640,1.007232,0.420000,-0.280000,-0.700000
49.475198,-0.096136,-0.013664,1.035536,0.700000,-0.560000,-0.700000
49.483285,-0.123952,0.013176,1.007720,1.400000,1.540000,-0.840000
49.491372,-0.144448,0.043920,0.993080,1.260000,0.140000,-1.120000
49.499459,-0.078568,-0.044408,0.969168,0.420000,-1.540000,-0.420000
49.507547,-0.085400,0.002440,1.063840,1.540000,0.700000,-0.980000
49.515634,-0.141520,0.057096,0.930616,0.280000,2.380000,-1.260000
49.523721,-0.074176,-0.029768,1.039440,1.260000,-0.140000,0.000000
49.531808,-0.120048,0.024400,1.008696,0.560000,1.960000,-1.400000
49.539895,-0.138104,0.007808,0.973072,1.260000,1.820000,-1.120000
49.547983,-0.117608,0.034648,0.989664,-0.140000,-1.400000,-0.280000
49.556070,-0.068808,-0.029280,1.021872,1.680000,-1.400000,-0.840000
49.564157,-0.156160,0.035136,0.976000,0.700000,0.700000,-0.700000
49.572244,-0.122488,0.029280,1.095072,0.980000,0.560000,-0.700000
49.580331,-0.091256,0.001464,0.974536,0.840000,-0.420000,-0.980000
49.588419,-0.110288,0.001952,0.999912,1.120000,0.700000,-0.700000
49.596506,-0.140056,0.002928,0.944280,0.700000,0.140000,-0.840000
49.604593,-0.090768,-0.012200,1.007232,1.120000,-0.840000,-0.140000
49.612680,-0.066368,0.011712,1.015528,0.280000,0.000000,-1.120000
49.620768,-0.167872,0.020496,0.991616,1.400000,1.960000,-1.400000
49.628855,-0.118584,0.013176,0.958920,-0.560000,-1.400000,-0.140000
49.636942,-0.073200,-0.000976,1.043344,1.540000,-1.820000,-0.840000
49.645029,-0.121512,0.041480,0.984296,0.420000,-0.840000,-0.840000
49.653116,-0.132736,-0.011712,1.029192,0.980000,-0.280000,-0.840000
49.661204,-0.116632,-0.005856,0.976488,0.140000,-0.840000,-0.840000
49.669291,-0.114192,0.032696,1.025776,0.980000,-0.840000,-0.700000
49.677378,-0.137128,0.018544,0.997960,1.260000,-1.400000,-1.400000
49.685465,-0.060024,-0.000488,1.020408,-0.140000,-2.520000,-0.140000
49.693552,-0.083936,-0.018056,1.001376,2.660000,0.420000,-0.980000
49.701640,-0.151280,0.053680,1.010648,0.560000,0.420000,-0.840000
49.709727,-0.078080,-0.016592,0.982344,0.000000,-0.140000,-0.700000
49.717814,-0.099552,-0.027816,1.006744,2.660000,-0.700000,-0.980000
49.725901,-0.119072,0.043920,0.994544,-0.280000,0.280000,-0.700000
49.733988,-0.114192,0.021472,1.032120,1.260000,0.420000,-0.700000
49.742076,-0.121512,-0.004880,0.927200,0.280000,-1.960000,-1.120000
49.750163,-0.098088,0.012688,1.000888,1.260000,-1.680000,-0.700000
49.758250,-0.081496,0.039528,1.046760,0.700000,-1.820000,-0.560000
49.766337,-0.112728,-0.021472,1.000888,0.700000,-0.980000,-0.980000
49.774424,-0.085400,-0.005856,1.055056,1.260000,0.840000,-0.560000
49.782512,-0.138592,0.056120,0.977464,0.700000,0.840000,-0.840000
49.790599,-0.132248,0.007808,0.992592,0.700000,-0.280000,-0.840000
49.798686,-0.098576,-0.019520,1.011136,1.120000,-0.700000,-0.840000
49.806773,-0.112728,0.025864,1.002352,0.700000,0.560000,-0.420000
49.814860,-0.098576,0.009272,1.052128,0.700000,0.420000,-1.260000
49.822948,-0.070760,-0.023424,0.953064,0.280000,1.820000,-0.980000
49.831035,-0.107848,0.022448,1.085312,2.100000,1.680000,-0.280000
49.839122,-0.148840,0.029280,0.935496,0.280000,2.940000,-1.120000
49.847209,-0.085888,-0.018056,0.907680,0.560000,0.280000,-0.980000
49.855297,-0.094672,-0.001464,0.997472,1.120000,-0.140000,-0.700000
49.863384,-0.109800,0.056120,1.068232,0.700000,0.140000,-1.120000
49.871471,-0.110776,0.027328,0.999912,1.260000,0.140000,-0.840000
49.879558,-0.101992,-0.040016,1.029192,1.820000,0.140000,-1.260000
49.887645,-0.094672,0.018544,1.028704,0.140000,0.840000,-0.280000
49.895733,-0.131272,0.041480,1.047248,1.540000,3.220000,-1.120000
49.903820,-0.117608,-0.004880,0.955504,0.560000,1.120000,-1.260000
49.911907,-0.065392,-0.003904,1.041880,0.840000,2.660000,-0.420000
49.919994,-0.118096,0.008296,1.047736,1.960000,3.780000,-0.700000
49.928081,-0.137128,0.027328,0.937448,-0.140000,3.500000,-0.980000
49.936169,-0.042944,-0.029768,1.058472,1.540000,1.400000,-0.560000
49.944256,-0.120536,0.037576,0.978440,1.260000,3.640000,-1.260000
49.952343,-0.151280,0.008784,0.945744,0.420000,2.660000,-1.120000
49.960430,-0.111264,-0.023912,0.964776,1.260000,1.260000,-0.700000
49.968517,-0.053680,0.045384,1.056032,-0.280000,1.260000,-0.280000
49.976605,-0.132736,0.027328,1.048712,3.220000,3.220000,-1.680000
49.984692,-0.158112,0.010248,0.950136,-1.680000,2.520000,-0.560000
49.992779,-0.068320,-0.053192,1.063840,2.800000,2.380000,-1.120000
50.000866,-0.135664,0.065392,0.957944,0.420000,3.220000,-0.840000
50.008953,-0.111752,-0.004880,0.996496,-0.280000,2.520000,-0.980000
50.017041,-0.114192,-0.009760,0.887672,1.960000,0.280000,-1.120000
50.025128,-0.098088,0.040992,1.080432,0.840000,-0.980000,-0.700000
50.033215,-0.135664,0.020984,1.027240,1.400000,1.680000,-1.540000
50.041302,-0.116632,-0.006832,0.992592,0.280000,1.680000,-0.980000
50.049389,-0.069296,0.000000,1.028704,1.120000,1.260000,-0.560000
50.057477,-0.162016,0.043432,1.055544,1.680000,3.780000,-0.980000
50.065564,-0.114680,0.011712,0.977464,-0.420000,1.820000,-0.700000
50.073651,-0.045384,-0.023424,1.056520,2.520000,2.380000,-0.840000
50.081738,-0.134200,0.022936,0.965752,0.980000,4.480000,-1.820000
50.089825,-0.150792,-0.010736,0.952576,0.280000,3.780000,-0.840000
50.097913,-0.080520,-0.000976,0.985272,1.540000,1.120000,-0.980000
50.106000,-0.098088,0.017568,1.033584,1.400000,2.800000,-0.840000
50.114087,-0.140544,0.034648,0.974048,0.140000,3.360000,-0.560000
50.122174,-0.124440,-0.019032,0.978928,0.560000,2.100000,-1.400000
50.130261,-0.083936,0.012688,1.011624,0.420000,0.700000,-0.280000
50.138349,-0.116144,0.020496,1.091168,1.960000,3.500000,-0.840000
50.146436,-0.172752,0.031720,0.934520,-0.280000,3.920000,-1.120000
50.154523,-0.085400,-0.011712,1.001376,1.960000,1.400000,-0.700000
50.162610,-0.114192,0.014152,1.049688,0.560000,1.960000,-0.700000
50.170698,-0.144936,0.014152,0.968192,0.980000,4.200000,-0.980000
50.178785,-0.107360,-0.017568,0.973072,1.260000,1.540000,-1.260000
50.186872,-0.060512,0.003416,1.009184,-0.420000,1.960000,-0.980000
50.194959,-0.102968,0.000488,1.021384,1.820000,5.040000,-0.980000
50.203046,-0.138592,0.025376,0.907680,0.140000,3.080000,-1.120000
50.211134,-0.089304,0.028304,1.066768,1.820000,1.120000,-0.840000
50.219221,-0.140544,0.013664,1.017968,-0.280000,2.800000,-0.980000
50.227308,-0.140544,-0.005856,0.996984,2.100000,3.080000,-1.260000
50.235395,-0.130296,0.026840,0.971608,1.260000,1.400000,-0.280000
50.243482,-0.085888,0.015616,1.126304,0.000000,3.220000,-0.700000
50.251570,-0.153720,0.021472,0.903776,2.520000,3.640000,-1.820000
50.259657,-0.121024,0.008784,1.017968,-0.280000,0.420000,-0.420000
50.267744,-0.088328,-0.027816,1.016992,1.680000,1.960000,-0.980000
50.275831,-0.121024,0.021960,0.967216,1.120000,3.360000,-0.840000
50.283918,-0.127856,0.006344,0.984296,0.980000,3.080000,-1.260000
50.292006,-0.109312,0.008296,1.014552,-0.280000,1.680000,-0.560000
50.300093,-0.111752,-0.008784,1.007720,2.100000,3.500000,-1.120000
50.308180,-0.192272,0.050264,1.001376,0.560000,2.800000,-0.980000
50.316267,-0.104920,-0.011224,1.005768,1.120000,1.680000,-0.700000
50.324354,-0.084424,0.008784,1.016992,0.000000,2.240000,-0.420000
50.332442,-0.142984,0.016592,0.961848,2.100000,3.500000,-1.540000
50.340529,-0.130296,0.006832,0.986736,-0.280000,0.700000,-0.560000
50.348616,-0.059048,-0.019520,1.041880,1.680000,1.540000,-0.560000
50.356703,-0.155672,0.031232,1.006256,1.820000,3.780000,-0.980000
50.364790,-0.155672,0.008784,0.939888,-0.280000,2.660000,-0.980000
50.372878,-0.052704,-0.007320,1.050664,1.680000,1.680000,-0.700000
50.380965,-0.127368,0.023912,1.013088,0.000000,3.640000,-0.980000
50.389052,-0.163968,0.001464,0.996496,2.240000,3.640000,-0.980000
50.397139,-0.153232,0.050752,0.984784,0.700000,1.680000,-0.420000
50.405226,-0.073688,-0.017568,1.044320,0.560000,2.100000,-0.560000
50.413314,-0.161528,0.013664,0.949648,1.680000,3.920000,-1.680000
50.421401,-0.167384,0.026352,0.992592,0.280000,1.260000,-0.700000
50.429488,-0.057584,-0.042944,1.038952,1.680000,0.840000,-0.700000
50.437575,-0.144936,0.026352,1.028704,0.560000,4.620000,-1.120000
50.445662,-0.136640,0.023912,0.932080,1.400000,3.360000,-1.260000
50.453750,-0.064904,-0.003416,1.043344,0.840000,0.980000,-0.700000
50.461837,-0.134200,0.020008,0.975512,0.980000,3.640000,-1.120000
50.469924,-0.168848,0.034648,0.984784,0.700000,2.660000,-0.700000
50.478011,-0.118584,0.015128,0.996008,1.120000,0.840000,-0.980000
50.486099,-0.114192,-0.001952,1.024312,0.140000,0.000000,-0.980000
50.494186,-0.163480,-0.000488,1.016504,1.820000,3.500000,-1.120000
50.502273,-0.155672,0.024400,0.992104,0.140000,2.800000,-0.700000
50.510360,-0.075640,-0.013176,1.021384,0.140000,0.000000,-0.840000
50.518447,-0.139080,0.001464,0.993568,2.660000,2.800000,-0.980000
50.526535,-0.141520,0.037576,0.962336,0.000000,2.380000,-0.840000
50.534622,-0.080032,-0.029280,1.002352,1.680000,0.420000,-0.700000
50.542709,-0.114192,0.015616,1.021384,0.980000,3.360000,-1.120000
50.550796,-0.134200,0.043920,0.954528,-0.140000,3.500000,-1.120000
50.558883,-0.119560,0.000488,1.042368,1.960000,1.120000,-0.980000
50.566971,-0.108336,-0.012688,1.010160,-0.140000,2.940000,-0.560000
50.575058,-0.155184,0.041480,1.035048,2.240000,5.600000,-0.700000
50.583145,-0.172752,0.043920,0.927688,0.420000,1.820000,-1.260000
50.591232,-0.108336,-0.042944,1.016504,0.420000,-0.840000,-1.120000
50.599319,-0.179584,-0.008296,0.975512,2.380000,1.260000,-0.700000
50.607407,-0.129808,0.035624,1.030168,0.280000,1.260000,-0.700000
50.615494,-0.059536,0.006832,1.025288,0.840000,1.540000,-1.400000
50.623581,-0.128344,-0.000976,1.012112,0.980000,3.780000,-0.840000
50.631668,-0.183000,0.000488,0.971608,1.120000,4.900000,-1.120000
50.639755,-0.092232,0.015128,0.988200,0.000000,2.240000,-0.420000
50.647843,-0.089304,-0.002928,1.028216,1.960000,4.620000,-0.840000
50.655930,-0.178608,0.033672,0.935984,0.280000,4.200000,-1.260000
50.664017,-0.143960,0.002440,1.019920,0.700000,2.240000,-0.700000
50.672104,-0.116632,0.007320,0.996496,0.700000,1.960000,-0.840000
50.680191,-0.138104,0.018056,1.025776,1.260000,3.500000,-0.980000
50.688279,-0.122488,0.016592,1.023336,0.420000,2.240000,-0.980000
50.696366,-0.128344,-0.008784,0.999912,1.120000,3.500000,-0.420000
50.704453,-0.147864,0.027328,1.010160,1.820000,3.920000,-0.560000
50.712540,-0.171776,0.053192,0.966728,0.420000,2.520000,-1.260000
50.720627,-0.085888,-0.054168,1.023336,0.840000,1.680000,-0.700000
50.728715,-0.131760,0.008784,1.008696,1.400000,4.900000,-0.840000
50.736802,-0.161528,0.033184,0.983320,1.400000,4.480000,-0.840000
50.744889,-0.126880,0.010736,1.005768,0.140000,3.220000,-1.120000
50.752976,-0.106872,-0.011712,0.983808,0.840000,3.360000,-0.560000
50.761063,-0.150304,0.016104,1.050664,1.960000,4.620000,-0.840000
50.769151,-0.122000,0.031232,0.945256,0.280000,5.180000,-0.980000
50.777238,-0.132248,-0.029280,1.014552,0.560000,4.620000,-0.420000
50.785325,-0.182512,0.016104,0.955504,1.120000,4.760000,-1.260000
50.793412,-0.150304,0.038064,0.982832,1.120000,2.520000,-1.260000
50.801500,-0.132248,-0.002440,0.999424,0.420000,1.820000,-0.560000
50.809587,-0.103944,-0.003904,1.036024,0.000000,2.940000,-0.560000
50.817674,-0.159088,0.036112,1.021384,3.080000,3.920000,-0.980000
50.825761,-0.155184,0.013176,0.984784,-0.840000,3.640000,-0.280000
50.833848,-0.128344,-0.008784,1.002840,2.800000,2.800000,-1.120000
50.841936,-0.158112,0.014640,0.956480,1.260000,3.640000,-0.980000
50.850023,-0.146888,-0.001952,0.963800,-0.420000,2.520000,-0.840000
50.858110,-0.114192,-0.004392,1.015528,0.560000,1.960000,-0.980000
50.866197,-0.122488,0.020984,1.007232,1.260000,3.220000,-0.840000
50.874284,-0.172752,0.043920,1.049688,1.120000,3.360000,-0.980000
50.882372,-0.137616,-0.005856,0.950136,0.280000,2.380000,-0.420000
50.890459,-0.122488,-0.002440,1.066768,1.540000,3.080000,-0.420000
50.898546,-0.179584,0.057584,0.963800,0.980000,3.500000,-1.540000
50.906633,-0.157136,-0.011712,1.008208,0.560000,2.380000,-0.700000
50.914720,-0.142984,-0.016104,0.980392,1.120000,1.820000,-0.840000
50.922808,-0.129320,0.027328,1.008696,1.820000,2.520000,-0.560000
50.930895,-0.125904,0.012200,1.058960,0.280000,5.040000,-1.120000
50.938982,-0.112728,-0.030744,0.951600,0.420000,4.760000,-0.980000
50.947069,-0.145912,0.004880,1.021872,2.100000,5.460000,-0.700000
50.955156,-0.194712,0.067832,0.951600,0.280000,4.760000,-0.980000
50.963244,-0.113704,-0.014152,0.955992,0.980000,2.380000,-0.840000
50.971331,-0.131760,-0.009760,0.961360,1.820000,1.820000,-1.120000
50.979418,-0.182024,0.047824,1.063352,0.000000,2.940000,-0.840000
50.987505,-0.161528,0.009760,1.019920,1.680000,3.080000,-0.700000
50.995592,-0.122000,-0.024888,1.004792,-0.980000,2.940000,-0.700000
51.003680,-0.177632,0.034160,1.017480,3.220000,4.200000,-1.260000
51.011767,-0.180072,0.008784,0.940864,0.140000,3.360000,-0.560000
51.019854,-0.097112,-0.014640,0.976976,0.280000,1.400000,-0.980000
51.027941,-0.143960,-0.015616,0.976488,2.520000,1.820000,-1.680000
51.036029,-0.179584,0.045872,1.019920,-0.280000,2.660000,0.000000
51.044116,-0.132736,-0.014152,1.030656,1.260000,4.480000,-1.540000
51.052203,-0.125416,0.021960,0.978440,0.420000,2.800000,-0.980000
51.060290,-0.132248,0.035624,1.036024,1.260000,4.340000,-0.560000
51.068377,-0.215696,0.015128,0.942328,1.540000,3.920000,-1.540000
51.076465,-0.156648,-0.019520,0.948184,0.280000,1.260000,-0.700000
51.084552,-0.134200,0.017568,1.007720,0.980000,0.420000,-0.700000
51.092639,-0.166896,0.027816,1.055056,1.400000,2.100000,-0.840000
51.100726,-0.150792,0.007808,0.969168,0.700000,1.400000,-1.120000
51.108813,-0.123952,0.004880,1.007720,0.000000,2.380000,-0.420000
51.116901,-0.174704,0.012200,1.053104,1.820000,3.640000,-0.700000
51.124988,-0.166896,0.015128,0.932080,0.980000,2.800000,-1.260000
51.133075,-0.109800,0.002440,1.020896,0.700000,0.700000,-0.280000
51.141162,-0.159088,-0.009272,1.017968,1.540000,3.780000,-1.120000
51.149249,-0.175680,0.028304,0.903776,0.140000,3.360000,-0.980000
51.157337,-0.097112,-0.015128,1.036512,0.840000,0.000000,-0.840000
51.165424,-0.144936,0.020984,0.961848,1.540000,1.540000,-0.840000
51.173511,-0.209352,0.035136,1.041880,1.400000,1.960000,-0.980000
51.181598,-0.163480,0.022448,0.957456,0.840000,0.700000,-1.260000
51.189685,-0.128344,-0.004880,1.048224,0.980000,0.980000,-0.560000
51.197773,-0.156160,0.033672,1.035048,0.700000,3.080000,-0.980000
51.205860,-0.163968,-0.013176,0.935984,2.100000,2.100000,-0.840000
51.213947,-0.157136,0.000000,0.994056,0.140000,1.540000,-0.840000
51.222034,-0.143960,0.011712,1.034072,0.840000,3.080000,-0.980000
51.230121,-0.195688,0.017568,0.974048,1.260000,3.640000,-0.980000
51.238209,-0.123952,-0.001464,0.976488,0.560000,0.700000,-0.700000
51.246296,-0.131760,0.005368,1.082384,0.980000,2.520000,-0.560000
51.254383,-0.209352,0.028792,0.922320,0.700000,4.340000,-1.400000
51.262470,-0.165432,-0.000488,0.935984,1.120000,0.560000,-0.840000
51.270558,-0.094184,-0.013176,1.030168,0.140000,-0.840000,-0.280000
51.278645,-0.170312,0.041480,1.051640,1.680000,3.780000,-1.260000
51.286732,-0.183000,0.007808,0.935984,0.980000,1.960000,-0.980000
51.294819,-0.101504,-0.008296,1.009184,0.140000,-0.980000,-0.140000
51.302906,-0.159576,0.001464,1.029192,2.940000,2.940000,-1.120000
51.310994,-0.197152,0.046848,0.948184,-0.560000,3.640000,-0.980000
51.319081,-0.124928,-0.015128,1.025288,1.120000,1.540000,-0.700000
51.327168,-0.174216,0.033672,1.002352,1.400000,2.800000,-1.260000
51.335255,-0.216184,0.020496,0.931592,0.000000,0.560000,-1.120000
51.343342,-0.146888,-0.007320,1.043344,1.400000,-0.980000,-0.980000
51.351430,-0.108824,-0.002440,1.015528,0.980000,0.280000,-0.280000
51.359517,-0.191296,0.027816,1.023336,1.400000,3.640000,-1.260000
51.367604,-0.147864,0.022448,0.941840,0.560000,1.120000,-0.700000
51.375691,-0.128344,-0.036600,1.023336,1.960000,0.280000,-0.700000
51.383778,-0.192760,0.021472,0.975512,-0.560000,3.780000,-1.260000
51.391866,-0.157624,0.023912,0.972584,2.100000,1.400000,-0.840000
51.399953,-0.154696,-0.000976,1.020408,-0.140000,0.840000,-0.560000
51.408040,-0.111264,0.002928,1.039928,1.260000,1.960000,-0.840000
51.416127,-0.218624,0.018544,0.930616,2.660000,2.380000,-0.840000
51.424214,-0.108824,0.012688,1.057496,-1.680000,0.700000,-0.700000
51.432302,-0.136152,-0.021960,0.972584,2.800000,4.480000,-0.980000
51.440389,-0.247904,0.053192,0.949648,0.980000,3.500000,-1.260000
51.448476,-0.161528,0.015128,0.970632,-0.560000,-0.700000,-0.560000
51.456563,-0.094672,-0.033184,1.093120,1.260000,0.280000,-0.420000
51.464650,-0.182512,0.040992,0.973072,2.380000,3.780000,-1.120000
51.472738,-0.173240,0.039528,1.015040,0.000000,2.100000,-0.560000
51.480825,-0.136152,-0.035136,1.022848,1.120000,2.240000,-1.820000
51.488912,-0.186904,-0.003904,0.947696,1.540000,3.780000,-0.560000
51.496999,-0.168848,0.040016,1.013576,-0.280000,3.640000,-0.700000
51.505087,-0.110776,-0.001464,0.956480,2.240000,0.840000,-0.980000
51.513174,-0.180560,0.000976,1.037488,0.000000,3.220000,-0.280000
51.521261,-0.170312,0.019032,0.957456,2.380000,3.220000,-1.680000
51.529348,-0.144936,0.018056,0.939400,0.420000,0.280000,-0.700000
51.537435,-0.137128,-0.014152,1.050176,0.560000,1.680000,-0.980000
51.545523,-0.199104,0.038064,0.979416,2.240000,3.500000,-1.260000
51.553610,-0.172264,0.033672,1.000888,0.000000,0.840000,-0.280000
51.561697,-0.116144,-0.036600,1.023336,1.400000,1.680000,-0.700000
51.569784,-0.189832,0.045872,1.029680,0.840000,5.180000,-1.120000
51.577871,-0.177632,0.019520,0.965752,0.840000,3.360000,-0.840000
51.585959,-0.155672,-0.020984,1.033584,0.420000,1.820000,-0.560000
51.594046,-0.157136,0.011712,0.972584,0.840000,3.780000,-1.260000
51.602133,-0.166896,0.028792,1.012112,1.680000,3.640000,-0.560000
51.610220,-0.171288,0.007320,0.976976,0.280000,3.080000,-1.120000
51.618307,-0.145424,-0.020496,0.984296,1.680000,2.660000,-0.700000
51.626395,-0.189344,0.035136,0.966240,0.700000,3.360000,-0.560000
51.634482,-0.159576,0.024400,0.975512,1.120000,1.680000,-1.260000
51.642569,-0.136640,-0.043920,1.010648,-0.280000,2.520000,-0.420000
51.650656,-0.182512,0.016592,0.988688,1.680000,4.060000,-1.260000
51.658743,-0.197152,0.034648,0.965264,0.140000,2.240000,-0.420000
51.666831,-0.117120,0.008784,1.047736,0.840000,1.960000,-1.400000
51.674918,-0.177144,-0.004392,0.965264,1.820000,4.060000,-0.560000
51.683005,-0.200080,0.062952,1.042368,0.140000,4.060000,-0.700000
51.691092,-0.140056,-0.030744,0.967704,1.260000,3.080000,-1.120000
51.699180,-0.176168,0.008296,1.021384,1.540000,3.780000,-0.700000
51.707267,-0.200080,0.032208,0.991128,0.420000,3.500000,-0.980000
51.715354,-0.169336,-0.002928,0.998448,1.400000,3.080000,-1.120000
51.723441,-0.155184,0.006832,0.982344,0.140000,2.380000,-0.700000
51.731528,-0.197640,-0.011224,0.982344,1.820000,4.200000,-0.700000
51.739616,-0.192760,0.060512,0.983808,0.840000,1.820000,-0.840000
51.747703,-0.125416,-0.037576,0.967216,-0.280000,1.400000,-0.840000
51.755790,-0.152744,0.003904,1.056032,2.100000,2.940000,-0.980000
51.763877,-0.208864,0.050264,0.940376,0.980000,3.920000,-0.700000
51.771964,-0.155184,-0.023424,1.021384,-0.140000,1.960000,-0.420000
51.780052,-0.150304,0.032696,0.962336,2.240000,2.800000,-1.400000
51.788139,-0.169824,0.026352,1.015528,-0.140000,3.640000,-0.560000
51.796226,-0.202520,-0.024888,0.966728,0.840000,2.940000,-1.400000
51.804313,-0.191296,0.026352,0.995520,2.100000,1.820000,-0.560000
51.812400,-0.154208,0.037088,1.067744,-1.540000,2.800000,-0.700000
51.820488,-0.188368,-0.010736,0.983320,2.800000,4.340000,-1.540000
51.828575,-0.196664,0.012200,0.972096,-0.560000,2.520000,-0.560000
51.836662,-0.153720,-0.007320,0.987712,1.820000,0.420000,-1.260000
51.844749,-0.164944,0.032208,0.993568,1.540000,2.520000,-0.840000
51.852836,-0.165432,-0.003416,0.969656,0.140000,1.820000,-0.840000
51.860924,-0.154208,-0.013664,0.980880,2.240000,2.100000,-0.700000
51.869011,-0.202032,0.035136,1.026752,-0.700000,3.780000,-1.120000
51.877098,-0.180072,0.006832,0.942328,1.400000,2.520000,-0.980000
51.885185,-0.161528,-0.027816,0.996984,1.680000,1.540000,-0.420000
51.893272,-0.172752,0.041968,1.034560,-0.280000,4.340000,-1.260000
51.901360,-0.172264,0.000000,0.935008,1.540000,3.500000,-1.260000
51.909447,-0.170312,-0.016592,0.976488,0.280000,2.240000,-0.420000
51.917534,-0.148352,0.059536,1.031144,0.560000,2.660000,-1.260000
51.925621,-0.223016,0.014152,0.997960,1.820000,2.940000,-0.700000
51.933709,-0.204472,0.019032,0.991128,0.560000,1.260000,-1.260000
51.941796,-0.162992,-0.011224,0.976000,1.960000,1.400000,-0.700000
51.949883,-0.194224,0.038064,1.017968,-0.700000,2.380000,-0.700000
51.957970,-0.161528,0.008784,0.959896,1.540000,1.400000,-1.260000
51.966057,-0.153720,-0.013664,1.006744,0.560000,0.280000,-0.560000
51.974145,-0.183000,0.018056,1.049200,0.140000,3.360000,-0.840000
51.982232,-0.223016,0.027328,0.952088,2.800000,3.220000,-1.260000
51.990319,-0.148352,-0.013664,1.047248,-0.840000,1.400000,-0.420000
51.998406,-0.179096,0.028304,0.981856,2.100000,4.340000,-1.120000
52.006493,-0.231312,0.008296,0.894504,1.120000,1.820000,-1.120000
52.014581,-0.143960,-0.008296,0.965264,-0.280000,-1.120000,-1.680000
52.022668,-0.136640,-0.017080,1.022360,2.240000,1.120000,-1.260000
52.030755,-0.202032,0.040504,0.989664,0.280000,0.840000,-0.980000
52.038842,-0.183488,-0.021960,1.017480,1.540000,2.240000,-0.560000
52.046929,-0.139568,0.041480,0.999912,0.840000,2.100000,-0.980000
52.055017,-0.186416,0.031232,0.965264,0.700000,2.240000,-0.700000
52.063104,-0.210328,0.008784,1.006256,1.820000,1.120000,-0.980000
52.071191,-0.177632,-0.004392,0.992104,0.420000,1.540000,-0.560000
52.079278,-0.183488,0.014152,1.052128,0.980000,2.940000,-0.420000
52.087365,-0.221552,0.035624,0.930616,0.280000,2.940000,-1.680000
52.095453,-0.147864,-0.045872,0.983808,1.960000,-1.960000,-0.420000
52.103540,-0.202520,0.041968,1.007720,0.560000,1.540000,-0.840000
52.111627,-0.203984,0.019032,0.995032,0.560000,2.240000,-1.120000
52.119714,-0.175680,-0.005368,0.960872,1.260000,-0.420000,-1.120000
52.127802,-0.106872,-0.000976,1.029680,-0.140000,-0.140000,-0.140000
52.135889,-0.242048,0.018056,0.991616,2.100000,4.480000,-1.260000
52.143976,-0.202520,0.014152,0.951112,0.140000,-0.140000,-0.980000
52.152063,-0.104920,-0.007808,1.005768,-0.140000,0.840000,-0.700000
52.160150,-0.202032,0.021472,0.989176,2.660000,2.660000,-0.840000
52.168238,-0.201056,0.021960,0.970632,-0.560000,1.680000,-0.840000
52.176325,-0.148352,-0.007320,0.992592,1.820000,0.700000,-0.700000
52.184412,-0.174216,0.013176,1.007720,0.700000,3.360000,-0.840000
52.192499,-0.192272,0.029280,0.943792,0.280000,0.980000,-1.260000
52.200586,-0.157624,0.008296,1.001864,1.680000,0.000000,-0.560000
52.208674,-0.193736,-0.001952,1.070184,0.140000,3.640000,-1.680000
52.216761,-0.213256,0.031232,0.907192,1.680000,2.520000,-1.260000
52.224848,-0.154208,0.007320,1.016992,0.840000,-1.120000,-0.280000
52.232935,-0.170800,0.001464,1.042368,1.260000,2.800000,-1.260000
52.241022,-0.219112,0.037088,0.945256,0.700000,2.660000,-0.840000
52.249110,-0.170800,-0.002928,0.975512,1.120000,0.280000,-0.140000
52.257197,-0.174704,0.000488,1.043832,0.840000,0.840000,-1.820000
52.265284,-0.200568,0.020008,0.946720,0.840000,3.640000,-0.560000
52.273371,-0.204960,0.034160,1.004792,1.120000,0.980000,-0.280000
52.281458,-0.152744,-0.011224,1.046272,0.140000,0.560000,-1.260000
52.289546,-0.176656,0.011224,0.980880,1.680000,2.800000,-0.980000
52.297633,-0.246440,0.020496,0.975024,1.820000,1.820000,-0.140000
52.305720,-0.148352,0.010736,1.044808,-0.420000,1.260000,-1.260000
52.313807,-0.131760,-0.023912,0.956480,2.100000,3.360000,-0.560000
52.321894,-0.229360,0.038552,1.027240,1.120000,4.900000,-0.840000
52.329982,-0.176168,0.005856,0.947696,-0.280000,3.640000,-1.400000
52.338069,-0.152256,-0.026840,0.991616,1.960000,2.520000,-0.280000
52.346156,-0.238144,0.048800,0.997472,0.700000,3.640000,-0.980000
52.354243,-0.175680,0.001464,0.964776,1.260000,2.940000,-0.980000
52.362331,-0.185440,-0.011224,1.002352,0.560000,2.660000,-0.700000
52.370418,-0.190808,0.009272,0.948184,0.840000,3.360000,-0.980000
52.378505,-0.197152,0.016104,1.022360,1.540000,2.240000,-0.840000
52.386592,-0.155672,0.009760,0.975512,-0.560000,2.940000,-0.980000
52.394679,-0.187392,-0.009272,1.018944,2.240000,5.040000,-0.980000
52.402767,-0.224968,0.056608,0.963800,0.000000,3.920000,-0.980000
52.410854,-0.183488,0.013176,0.989176,0.700000,2.100000,-0.700000
52.418941,-0.177632,-0.027328,1.016504,0.700000,2.800000,-0.840000
52.427028,-0.171776,0.046360,1.023824,2.240000,4.760000,-1.260000
52.435115,-0.237168,0.018544,0.954528,-0.140000,3.500000,-0.280000
52.443203,-0.158600,-0.035136,1.017968,2.100000,2.100000,-1.400000
52.451290,-0.212768,0.026352,0.942328,0.280000,4.060000,-0.560000
52.459377,-0.172264,0.007320,1.031632,1.540000,2.100000,-1.540000
52.467464,-0.172264,-0.010736,0.934032,0.560000,2.940000,-0.560000
52.475551,-0.189344,0.010248,0.978440,1.540000,3.220000,-0.700000
52.483639,-0.211792,0.038064,1.016504,0.980000,3.220000,-0.840000
52.491726,-0.163480,0.010248,0.973560,-0.560000,3.080000,-1.120000
52.499813,-0.171776,-0.016104,0.994544,2.380000,3.920000,-0.980000
52.507900,-0.233752,0.048312,1.007720,0.560000,3.640000,-0.700000
52.515987,-0.195200,0.019032,0.991616,1.540000,3.920000,-1.260000
52.524075,-0.216672,-0.012688,0.994544,0.000000,2.380000,-0.560000
52.532162,-0.162016,0.021960,1.032120,1.120000,5.040000,-0.840000
52.540249,-0.249368,0.029280,0.966240,1.260000,4.760000,-0.980000
52.548336,-0.175192,0.002928,0.973560,0.140000,1.540000,-0.840000
52.556424,-0.162504,-0.024400,1.026752,2.100000,2.800000,-0.840000
52.564511,-0.214232,0.034160,0.948184,0.700000,5.040000,-0.980000
52.572598,-0.186904,-0.006344,0.931104,1.680000,3.500000,-1.260000
52.580685,-0.174216,-0.016104,0.994056,0.420000,3.780000,-1.120000
52.588772,-0.183976,0.037576,1.019920,0.980000,4.200000,-0.980000
52.596860,-0.217160,0.013176,0.977464,1.260000,4.340000,-0.980000
52.604947,-0.175680,-0.004880,0.970632,0.000000,3.920000,-0.700000
52.613034,-0.204472,0.014640,1.003816,2.800000,3.920000,-0.980000
52.621121,-0.228872,0.048312,0.992104,-0.140000,4.620000,-0.980000
52.629208,-0.181536,-0.019032,0.940376,1.400000,2.380000,-0.560000
52.637296,-0.227896,0.020496,1.051640,1.820000,3.500000,-0.840000
52.645383,-0.209352,0.038552,1.013088,-0.560000,5.320000,-0.980000
52.653470,-0.200080,-0.014152,0.906704,2.240000,3.220000,-0.980000
52.661557,-0.190808,0.011712,1.059448,-1.120000,3.640000,-0.560000
52.669644,-0.217160,0.023912,0.986736,2.660000,4.340000,-1.120000
52.677732,-0.237168,0.029280,0.961848,0.280000,2.660000,-0.560000
52.685819,-0.149816,-0.033184,0.977952,1.680000,1.680000,-1.260000
52.693906,-0.215208,0.015616,0.982344,1.120000,2.520000,-0.840000
52.701993,-0.217648,0.012688,0.955016,-0.140000,3.360000,-0.700000
52.710080,-0.178120,-0.014152,0.974536,1.400000,1.820000,-1.120000
52.718168,-0.192760,0.037088,0.997960,1.260000,2.520000,-0.700000
52.726255,-0.216184,0.012688,1.019432,0.560000,3.920000,-0.980000
52.734342,-0.235704,0.008784,0.977464,0.280000,3.220000,-1.120000
52.742429,-0.164456,0.018544,1.010160,1.820000,1.540000,-0.140000
52.750516,-0.214720,0.031232,1.011624,1.120000,3.920000,-0.980000
52.758604,-0.188368,-0.000976,0.926224,0.560000,3.360000,-1.260000
52.766691,-0.193248,-0.010248,1.004304,1.960000,2.100000,-0.140000
52.774778,-0.228872,0.022936,1.035048,0.560000,4.340000,-0.840000
52.782865,-0.244976,0.031232,0.954528,0.840000,4.760000,-0.980000
52.790953,-0.184464,-0.022448,1.028704,1.120000,2.520000,-1.260000
52.799040,-0.173728,0.010736,1.022848,-0.140000,3.780000,-0.560000
52.807127,-0.236680,0.015128,0.965752,2.520000,6.020000,-0.560000
52.815214,-0.216672,0.033672,0.857904,0.980000,2.520000,-1.400000
52.823301,-0.171288,-0.027328,1.039928,0.840000,1.400000,-0.700000
52.831389,-0.231800,0.013664,0.952088,0.560000,3.920000,-0.840000
52.839476,-0.218624,0.019032,0.962824,0.560000,3.220000,-0.840000
52.847563,-0.173240,0.017080,1.004792,1.820000,0.700000,-0.980000
52.855650,-0.211792,0.023912,1.048224,0.980000,4.480000,-1.400000
52.863737,-0.266448,0.026840,0.955016,0.420000,3.640000,-0.980000
52.871825,-0.199592,-0.025376,0.989176,1.540000,1.260000,-0.140000
52.879912,-0.224480,0.043432,1.060424,0.840000,3.220000,-1.120000
52.887999,-0.223016,0.028304,0.923784,1.260000,4.340000,-0.980000
52.896086,-0.208376,0.000976,1.024312,0.980000,1.400000,-0.840000
52.904173,-0.163968,-0.002440,1.015528,0.840000,1.820000,-0.700000
52.912261,-0.243024,0.013176,0.963312,1.540000,5.180000,-0.980000
52.920348,-0.219112,0.012688,0.949160,0.140000,3.080000,-1.400000
52.928435,-0.154696,-0.019032,1.007232,2.240000,3.080000,-0.560000
52.936522,-0.274744,0.021960,0.985272,1.120000,6.580000,-0.980000
52.944609,-0.212768,0.010248,0.925248,-0.980000,3.640000,-0.980000
52.952697,-0.150304,-0.010736,1.019920,2.800000,2.660000,-0.700000
52.960784,-0.219600,0.021472,0.938424,-1.400000,5.180000,-0.840000
52.968871,-0.238632,0.010248,0.982344,2.380000,5.320000,-0.980000
52.976958,-0.235704,0.020008,0.933056,1.120000,2.520000,-1.120000
52.985046,-0.206912,0.037088,1.062376,-0.700000,2.100000,-0.980000
52.993133,-0.231312,0.003904,1.010160,2.100000,3.780000,-0.840000
53.001220,-0.243024,0.027328,0.940864,2.100000,2.660000,-1.260000
53.009307,-0.189344,-0.005368,1.036512,-0.700000,2.940000,-0.140000
53.017394,-0.198616,0.008784,1.004792,2.380000,4.900000,-1.540000
53.025482,-0.272304,0.040504,0.922808,1.260000,2.100000,-0.560000
53.033569,-0.151280,-0.023424,1.094584,-0.700000,2.940000,-0.560000
53.041656,-0.216184,0.003904,0.925736,2.940000,4.900000,-1.260000
53.049743,-0.266936,0.040016,0.898896,0.980000,3.640000,-0.840000
53.057830,-0.196176,-0.031232,1.015528,-0.280000,0.980000,-1.120000
53.065918,-0.207888,-0.018056,0.943792,2.240000,3.920000,-0.700000
53.074005,-0.255224,0.063928,0.952088,-0.140000,3.640000,-1.120000
53.082092,-0.188856,-0.028304,1.005280,1.120000,0.700000,-1.400000
53.090179,-0.194224,-0.004880,0.978928,0.560000,3.500000,0.000000
53.098266,-0.272304,0.054656,1.009184,1.680000,5.180000,-0.980000
53.106354,-0.212768,0.009760,0.943304,0.840000,2.940000,-1.540000
53.114441,-0.157136,-0.018056,0.965264,0.420000,1.540000,-0.560000
53.122528,-0.255224,0.016104,1.018944,2.100000,4.760000,-1.120000
53.130615,-0.267912,0.038552,0.959408,-0.140000,3.920000,-0.980000
53.138702,-0.175680,-0.010248,1.002352,0.840000,2.100000,-0.700000
53.146790,-0.237656,0.028304,1.008208,1.400000,3.780000,-1.120000
53.154877,-0.246440,0.041968,0.968192,0.840000,2.660000,-0.700000
53.162964,-0.197152,0.000976,1.042856,0.420000,2.520000,-0.420000
53.171051,-0.196664,0.004392,0.968192,1.680000,4.620000,-1.260000
53.179139,-0.273768,0.040016,0.968680,2.240000,3.920000,-0.700000
53.187226,-0.264008,0.003416,1.008208,0.000000,2.940000,-0.980000
53.195313,-0.197640,-0.030256,0.939888,1.960000,2.520000,-0.700000
53.203400,-0.253272,0.035624,0.998936,0.700000,3.500000,-0.700000
53.211487,-0.187392,0.022936,0.973560,0.560000,2.100000,-1.400000
53.219575,-0.205448,-0.041480,0.957944,0.980000,2.800000,-0.420000
53.227662,-0.210328,0.020008,0.941840,0.560000,1.960000,-1.400000
53.235749,-0.274256,0.044408,1.013576,2.100000,3.640000,-0.700000
53.243836,-0.202032,-0.000976,0.966240,-0.420000,1.260000,-0.980000
53.251923,-0.199104,-0.032208,1.020408,1.680000,3.500000,-0.840000
53.260011,-0.297680,0.073688,0.944768,1.120000,4.900000,-0.980000
53.268098,-0.224480,0.004880,0.938912,-0.980000,1.260000,-0.560000
53.276185,-0.198128,-0.011224,1.067256,1.960000,1.820000,-1.120000
53.284272,-0.264008,0.033184,0.965752,1.680000,3.500000,-0.980000
53.292359,-0.234728,0.013176,1.021384,-0.840000,3.500000,-0.560000
53.300447,-0.219600,-0.024888,0.951112,2.380000,2.380000,-1.120000
53.308534,-0.255712,0.020496,0.927688,0.840000,2.660000,-0.980000
53.316621,-0.248392,0.026352,0.958432,1.260000,1.400000,-1.540000
53.324708,-0.195200,-0.030744,0.921344,-0.980000,1.120000,-0.700000
53.332795,-0.210816,0.004880,1.036512,2.380000,1.680000,-1.260000
53.340883,-0.228384,0.079056,0.933056,0.140000,2.100000,-1.260000
53.348970,-0.232776,0.033184,1.026752,0.420000,-0.560000,-1.540000
53.357057,-0.213256,-0.029768,1.000400,2.240000,0.840000,-1.960000
53.365144,-0.271816,0.037576,1.009672,1.960000,0.560000,-0.840000
53.373232,-0.246440,0.005368,0.995032,0.000000,0.420000,-0.700000
53.381319,-0.209352,-0.028792,0.956480,2.240000,1.540000,-1.960000
53.389406,-0.237168,0.010248,0.945256,-0.280000,1.540000,-0.980000
53.397493,-0.229360,0.016104,0.996496,1.680000,1.960000,-1.120000
53.405580,-0.208376,0.014152,0.883768,-0.140000,0.700000,-1.260000
53.413668,-0.223504,0.007808,0.991616,1.820000,-0.280000,-1.260000
53.421755,-0.251808,0.062464,1.015040,0.840000,-0.140000,-1.820000
53.429842,-0.255224,-0.000976,1.007232,0.980000,0.280000,-1.680000
53.437929,-0.232776,-0.009272,0.987712,1.120000,-1.120000,-1.260000
53.446016,-0.258152,0.023424,0.989664,1.260000,0.840000,-1.260000
53.454104,-0.207400,0.021960,0.972096,0.280000,-1.400000,-1.260000
53.462191,-0.194712,-0.027328,1.026264,2.100000,0.000000,-1.540000
53.470278,-0.268400,0.030744,0.961848,0.700000,2.380000,-0.840000
53.478365,-0.228872,0.016592,0.957456,1.540000,-0.140000,-0.700000
53.486452,-0.217160,-0.023424,0.952576,0.140000,0.560000,-1.260000
53.494540,-0.207888,-0.005368,0.957944,1.260000,0.000000,-1.120000
53.502627,-0.237168,0.051240,0.983808,0.560000,0.420000,-0.420000
53.510714,-0.236680,0.013664,0.976000,0.980000,-0.280000,-1.120000
53.518801,-0.231800,0.025376,1.019432,0.980000,-0.840000,-0.840000
53.526888,-0.238632,0.006832,1.021872,1.540000,0.560000,-1.120000
53.534976,-0.248880,0.008784,0.973560,-0.280000,0.560000,-0.840000
53.543063,-0.204472,-0.010248,0.965752,2.800000,-0.280000,-0.840000
53.551150,-0.237656,0.034160,1.003816,-0.140000,1.120000,-0.980000
53.559237,-0.238144,0.006832,0.958432,1.540000,1.960000,-1.260000
53.567325,-0.215696,-0.004880,0.900848,0.000000,-1.260000,-1.120000
53.575412,-0.211792,0.004880,0.990152,0.980000,-0.700000,-0.980000
53.583499,-0.249368,0.040016,0.982344,1.260000,0.140000,-1.120000
53.591586,-0.225456,0.013664,1.013088,0.700000,-1.540000,-1.120000
53.599673,-0.214720,-0.010736,0.985760,0.420000,0.000000,-0.700000
53.607761,-0.250832,0.027328,1.033584,2.520000,0.700000,-0.980000
53.615848,-0.245952,0.032696,0.969168,-0.140000,0.420000,-1.260000
53.623935,-0.216184,-0.041480,1.019432,1.400000,0.700000,-0.840000
53.632022,-0.221552,0.029768,0.916464,2.100000,0.980000,-1.120000
53.640109,-0.242048,0.033184,0.966728,-0.280000,0.280000,-0.980000
53.648197,-0.199592,-0.024400,0.960872,0.980000,-0.700000,-1.820000
53.656284,-0.223992,0.013176,0.941352,2.100000,-1.260000,-1.120000
53.664371,-0.217648,0.044408,1.001864,-0.700000,-0.280000,-0.700000
53.672458,-0.215208,0.001464,0.979904,2.380000,0.560000,-1.400000
53.680545,-0.237656,0.015128,0.998448,0.000000,0.980000,-1.260000
53.688633,-0.219112,0.020496,1.027240,0.980000,0.700000,-1.400000
53.696720,-0.275720,0.019032,0.999424,1.680000,2.240000,-1.400000
53.704807,-0.237656,-0.011712,0.964288,0.280000,0.280000,-1.260000
53.712894,-0.220088,-0.020008,1.021384,1.680000,0.560000,-0.420000
53.720981,-0.244488,0.059048,0.927200,1.820000,0.280000,-1.400000
53.729069,-0.220088,-0.014640,0.975024,0.280000,-0.420000,-0.980000
53.737156,-0.190808,-0.020008,0.952088,1.820000,0.980000,-1.400000
53.745243,-0.214720,0.048800,0.978928,0.840000,0.420000,-1.820000
53.753330,-0.231312,0.021960,0.957944,0.140000,0.280000,-0.980000
53.761418,-0.223016,-0.012688,1.004792,1.540000,0.420000,-1.540000
53.769505,-0.232288,0.042456,0.988688,0.980000,0.280000,-1.260000
53.777592,-0.239120,0.015616,1.043832,0.420000,1.960000,-0.840000
53.785679,-0.222040,-0.014152,0.972584,1.120000,1.960000,-1.120000
53.793766,-0.234240,0.037088,1.015040,1.960000,1.960000,-0.840000
53.801854,-0.263520,0.029280,1.007232,0.280000,2.940000,-1.540000
53.809941,-0.215208,-0.029768,0.928176,0.840000,1.680000,-1.260000
53.818028,-0.240584,0.004880,1.010160,1.680000,1.400000,-1.120000
53.826115,-0.213744,0.038552,0.929152,1.400000,1.120000,-1.400000
53.834202,-0.216672,-0.006344,0.961848,0.280000,1.260000,-1.680000
53.842290,-0.215696,-0.016592,0.975512,1.260000,1.260000,-0.840000
53.850377,-0.223992,0.029768,1.009184,2.380000,2.240000,-1.120000
53.858464,-0.239120,0.013664,0.954528,-0.560000,2.800000,-1.120000
53.866551,-0.233264,-0.013176,0.952088,1.820000,2.660000,-1.120000
53.874638,-0.261568,0.055144,0.999912,0.840000,1.680000,-1.260000
53.882726,-0.237168,0.015128,0.964776,0.000000,1.540000,-1.260000
53.890813,-0.206912,-0.007808,1.014552,1.120000,-0.140000,-1.260000
53.898900,-0.219600,0.028792,1.016992,2.240000,2.100000,-1.680000
53.906987,-0.277672,0.039040,1.009184,0.140000,2.240000,-1.400000
53.915075,-0.201544,-0.041480,0.965752,0.980000,2.240000,-1.540000
53.923162,-0.230336,0.018544,0.970144,2.520000,2.940000,-1.400000
53.931249,-0.229360,0.031720,0.963800,-0.560000,2.380000,-1.400000
53.939336,-0.206912,-0.040016,0.980392,1.120000,3.360000,-0.980000
53.947423,-0.243512,0.012688,0.915000,1.960000,1.820000,-1.120000
53.955511,-0.252784,0.059536,0.983320,0.140000,1.400000,-0.700000
53.963598,-0.225456,-0.003904,1.001864,0.840000,0.560000,-1.680000
53.971685,-0.218136,-0.031232,0.935008,1.260000,2.380000,-0.840000
53.979772,-0.241560,0.039528,1.066280,0.420000,2.940000,-0.980000
53.987859,-0.222528,0.038064,0.942816,0.840000,3.080000,-1.820000
53.995947,-0.237168,-0.007808,0.947208,1.680000,0.280000,-0.700000
54.004034,-0.249856,0.034160,1.054080,1.260000,1.960000,-1.540000
54.012121,-0.264496,0.023424,0.945744,0.980000,2.240000,-1.120000
54.020208,-0.250832,-0.008784,1.005768,0.560000,1.400000,-0.840000
54.028295,-0.220088,0.023912,1.019432,1.400000,1.540000,-1.680000
54.036383,-0.250832,0.037576,0.995520,0.840000,2.100000,-1.680000
54.044470,-0.211304,-0.041480,0.969168,0.980000,2.380000,-1.120000
54.052557,-0.220576,0.038064,0.988200,1.260000,2.800000,-1.400000
54.060644,-0.267424,0.037088,0.941352,2.100000,2.660000,-1.400000
54.068732,-0.253272,-0.022936,0.961848,-0.280000,1.820000,-1.680000
54.076819,-0.212768,-0.009760,0.945256,1.400000,1.540000,-1.120000
54.084906,-0.258152,0.028792,1.025776,1.120000,1.120000,-0.840000
54.092993,-0.191296,0.008296,0.939400,0.560000,1.120000,-1.680000
54.101080,-0.225456,-0.013176,0.948672,2.240000,0.980000,-0.700000
54.109168,-0.295240,0.037088,0.996496,0.560000,1.400000,-1.540000
54.117255,-0.215208,0.013176,0.962336,0.420000,0.700000,-1.540000
54.125342,-0.192272,-0.039528,0.987224,1.960000,0.280000,-0.560000
54.133429,-0.264984,0.061000,1.024312,1.120000,2.660000,-1.400000
54.141516,-0.241560,-0.002440,0.911584,0.000000,0.840000,-1.400000
54.149604,-0.206424,-0.014640,0.983808,2.100000,-0.280000,-0.700000
54.157691,-0.266936,0.024400,0.999424,0.560000,1.960000,-1.400000
54.165778,-0.250344,0.026840,0.953064,1.260000,1.540000,-1.120000
54.173865,-0.207888,-0.027328,0.950136,0.980000,-0.560000,-0.700000
54.181953,-0.233752,0.033672,1.031144,1.260000,0.980000,-1.260000
54.190040,-0.266448,0.039040,0.925248,0.560000,0.840000,-0.700000
54.198127,-0.222040,-0.026840,0.979416,2.100000,-1.260000,-1.260000
54.206214,-0.249368,0.029280,0.988688,0.280000,1.260000,-1.400000
54.214301,-0.263520,0.031232,0.978440,0.840000,-0.420000,-0.980000
54.222389,-0.223992,-0.001952,0.943304,1.540000,-1.260000,-0.700000
54.230476,-0.231800,-0.001464,1.018944,0.280000,-1.540000,-0.980000
54.238563,-0.226920,0.032696,0.985760,0.700000,0.840000,-1.120000
54.246650,-0.254736,0.012688,0.949648,2.240000,-0.280000,-0.700000
54.254737,-0.214720,0.010736,1.020408,-0.420000,-1.120000,-0.980000
54.262825,-0.225944,0.008296,0.995032,1.680000,0.280000,-1.120000
54.270912,-0.308416,0.038552,0.940376,0.980000,-0.140000,-0.420000
54.278999,-0.204472,-0.000976,1.072136,0.000000,-1.680000,-0.980000
54.287086,-0.213256,0.015616,0.946232,2.380000,-0.420000,-0.980000
54.295173,-0.305000,0.026352,1.007720,0.280000,0.140000,-1.120000
54.303261,-0.202032,-0.022448,0.919880,0.980000,-2.240000,-1.120000
54.311348,-0.216184,-0.010248,0.985760,1.540000,-1.540000,-0.560000
54.319435,-0.257176,0.046848,0.992592,-1.120000,1.400000,-1.260000
54.327522,-0.199104,-0.004392,0.881816,2.100000,-2.520000,-0.700000
54.335610,-0.223016,-0.008296,1.060424,0.560000,-2.100000,-0.560000
54.343697,-0.243512,0.020496,0.999424,-0.420000,1.960000,-1.540000
54.351784,-0.234728,0.021472,0.894016,2.100000,-0.840000,-0.280000
54.359871,-0.198616,-0.017080,1.050176,-0.420000,-0.700000,-0.980000
54.367958,-0.223504,0.015616,0.921344,0.840000,0.980000,-1.120000
54.376046,-0.288408,0.057096,0.989176,1.400000,-0.420000,-0.560000
54.384133,-0.248392,0.017568,0.975512,-0.140000,-3.360000,-1.260000
54.392220,-0.195200,-0.001464,1.037976,0.700000,-2.520000,-0.280000
54.400307,-0.281088,0.038064,0.936960,2.380000,-0.700000,-0.840000
54.408394,-0.250832,0.020496,0.958920,-0.280000,-3.920000,-0.980000
54.416482,-0.173728,-0.042944,0.989176,1.680000,-3.500000,-0.840000
54.424569,-0.255712,0.014152,1.026752,0.840000,-0.980000,-0.700000
54.432656,-0.241072,0.030744,0.916464,0.560000,-1.260000,-0.700000
54.440743,-0.192760,-0.003416,1.028216,1.120000,-2.800000,-0.840000
54.448830,-0.245464,-0.011224,0.962336,-0.280000,0.560000,-0.980000
54.456918,-0.230824,0.024888,0.943304,1.960000,-0.560000,-0.700000
54.465005,-0.234240,0.020008,0.958432,-0.420000,-2.240000,-0.700000
54.473092,-0.194712,-0.007808,0.992592,0.420000,-1.400000,-0.700000
54.481179,-0.244488,0.032696,1.006744,1.960000,-0.980000,-0.980000
54.489267,-0.271328,0.051240,0.995520,0.980000,-1.680000,-0.980000
54.497354,-0.203496,-0.032696,1.028704,0.000000,-2.100000,-0.140000
54.505441,-0.242536,0.033672,0.986248,2.240000,-0.700000,-1.120000
54.513528,-0.286944,0.018544,0.918416,0.560000,-0.840000,-0.700000
54.521615,-0.206912,-0.002440,0.993568,0.280000,-4.900000,-0.840000
54.529703,-0.181536,-0.042456,0.975024,1.400000,-2.380000,-0.700000
54.537790,-0.246928,0.054168,0.972584,0.420000,-2.100000,-0.980000
54.545877,-0.233752,0.013176,0.935984,0.840000,-2.520000,-0.560000
54.553964,-0.216184,-0.021960,0.970632,0.000000,-2.940000,-1.120000
54.562051,-0.184952,0.023424,0.994056,1.120000,-2.380000,-0.980000
54.570139,-0.244976,0.039528,0.951600,1.260000,-2.520000,-0.840000
54.578226,-0.200080,-0.036112,0.995032,-0.280000,-2.940000,-0.840000
54.586313,-0.251808,0.040504,0.951600,1.540000,-1.960000,-0.840000
54.594400,-0.242536,0.037576,1.013576,1.120000,-3.640000,-0.700000
54.602487,-0.183488,-0.008296,1.048712,0.000000,-3.780000,-0.700000
54.610575,-0.248392,0.018056,0.949648,2.240000,-0.980000,-0.700000
54.618662,-0.259128,0.025376,0.979904,0.000000,-2.100000,-0.420000
54.626749,-0.203496,0.013664,0.932080,0.420000,-4.340000,-0.980000
54.634836,-0.179584,-0.030744,0.986248,1.680000,-4.200000,-0.420000
54.642924,-0.271816,0.056120,1.024312,-0.280000,-1.260000,-1.260000
54.651011,-0.189344,0.004392,0.966728,0.980000,-2.660000,-0.840000
54.659098,-0.225456,-0.014152,1.000888,1.260000,-2.940000,-0.280000
54.667185,-0.232776,0.036112,1.019920,0.560000,-2.660000,-0.840000
54.675272,-0.248392,0.014640,0.955992,1.960000,-2.100000,-0.980000
54.683360,-0.221552,-0.018056,0.977464,-0.840000,-4.200000,-0.700000
54.691447,-0.164944,0.001464,0.980392,2.240000,-2.800000,-0.840000
54.699534,-0.267912,0.037088,0.924760,0.280000,-2.660000,-0.560000
54.707621,-0.222528,-0.001464,0.928176,-0.840000,-5.040000,-1.120000
54.715708,-0.177144,-0.018544,1.005280,2.660000,-6.300000,-0.700000
54.723796,-0.211304,0.057096,0.994056,-0.140000,-5.040000,-0.420000
54.731883,-0.236680,-0.007320,1.037000,0.700000,-3.080000,-0.840000
54.739970,-0.230824,-0.002440,0.957944,0.700000,-3.220000,-1.120000
54.748057,-0.196176,0.029280,0.996496,0.420000,-4.480000,-0.280000
54.756144,-0.252784,0.026352,1.001864,0.700000,-3.360000,-1.260000
54.764232,-0.211792,0.000976,0.912560,0.000000,-5.180000,-0.560000
54.772319,-0.152256,-0.004392,1.066768,1.680000,-6.300000,-0.140000
54.780406,-0.235704,0.073200,1.015528,0.980000,-1.960000,-1.540000
54.788493,-0.245464,-0.007320,0.905728,0.560000,-4.480000,-0.700000
54.796581,-0.224968,-0.030256,1.025776,1.120000,-6.440000,-0.840000
54.804668,-0.176656,0.031232,1.003816,1.260000,-3.920000,-0.560000
54.812755,-0.218624,0.009760,0.956968,-0.700000,-4.620000,-0.420000
54.820842,-0.201544,-0.019520,0.965752,2.380000,-6.300000,-0.980000
54.828929,-0.189344,0.019520,0.961848,0.700000,-5.180000,-0.700000
54.837017,-0.220576,0.024888,0.977464,0.140000,-5.040000,-1.120000
54.845104,-0.221064,-0.002440,0.968192,1.260000,-6.300000,-0.840000
54.853191,-0.147864,0.016592,0.988688,-0.140000,-6.580000,-0.280000
54.861278,-0.234728,0.025864,1.013576,1.820000,-4.620000,-0.700000
54.869365,-0.243024,0.014152,0.949160,-0.140000,-5.460000,-1.260000
54.877453,-0.138104,0.000488,1.034560,0.420000,-8.120000,-0.420000
54.885540,-0.216672,0.020496,0.990640,1.960000,-4.200000,-0.420000
54.893627,-0.259616,0.023424,0.966728,0.840000,-4.200000,-1.260000
54.901714,-0.158600,-0.002440,1.002840,0.420000,-7.840000,-0.980000
54.909801,-0.171776,0.014152,0.995032,1.400000,-4.900000,-0.560000
54.917889,-0.248392,0.007320,0.993568,0.980000,-3.780000,-0.980000
54.925976,-0.186416,0.020496,1.007720,0.560000,-6.440000,-0.840000
54.934063,-0.162504,0.007808,0.996984,1.260000,-5.600000,-0.700000
54.942150,-0.210816,0.002440,0.991616,0.280000,-3.780000,-0.840000
54.950237,-0.199592,0.028304,0.977464,1.960000,-5.600000,-0.980000
54.958325,-0.166408,-0.004392,1.026264,0.140000,-4.620000,-0.420000
54.966412,-0.217648,0.015616,0.992104,0.420000,-3.360000,-1.260000
54.974499,-0.219600,-0.005856,0.924272,2.240000,-5.320000,-0.840000
54.982586,-0.183000,0.000488,1.023824,-0.840000,-5.740000,-0.560000
54.990674,-0.164456,-0.024400,0.942816,1.400000,-3.360000,-0.560000
54.998761,-0.215208,0.054656,0.941352,0.980000,-4.060000,-1.400000
55.006848,-0.143472,0.010736,0.970632,-0.560000,-7.140000,-0.700000
55.014935,-0.174704,-0.021960,1.093608,2.380000,-4.480000,-0.420000
55.023022,-0.198616,0.060024,0.962824,0.000000,-2.940000,-1.120000
55.031110,-0.198616,0.017080,0.991128,1.960000,-5.180000,-0.700000
55.039197,-0.180072,-0.001464,1.025776,-0.420000,-5.740000,-0.560000
55.047284,-0.178608,-0.001952,1.025288,1.960000,-3.220000,-0.560000
55.055371,-0.232288,0.040016,0.927200,0.980000,-4.060000,-0.700000
55.063458,-0.147376,-0.005368,0.996496,0.000000,-6.580000,-0.700000
55.071546,-0.178608,-0.015616,0.997472,0.840000,-4.620000,-0.700000
55.079633,-0.215208,0.032696,0.985272,1.820000,-3.360000,-1.260000
55.087720,-0.159088,-0.000488,0.968192,-0.420000,-5.460000,-0.420000
55.095807,-0.150792,-0.018544,1.013576,2.240000,-4.900000,-0.420000
55.103894,-0.219112,0.049776,0.992104,0.420000,-2.380000,-1.260000
55.111982,-0.164456,0.006832,0.979416,0.280000,-4.620000,-0.840000
55.120069,-0.152744,-0.046848,0.994544,0.560000,-4.480000,-0.140000
55.128156,-0.190320,0.041480,0.996008,0.840000,-1.960000,-0.980000
55.136243,-0.199104,0.054168,0.962336,1.540000,-4.200000,-0.560000
55.144331,-0.154208,0.017080,1.064816,-0.140000,-5.320000,-0.840000
55.152418,-0.163480,-0.019032,0.950136,2.100000,-3.500000,-1.120000
55.160505,-0.219112,0.039040,1.061400,0.840000,-3.080000,-0.560000
55.168592,-0.180072,0.026352,1.012112,-0.280000,-3.080000,-1.120000
55.176679,-0.158112,-0.023424,0.951112,2.240000,-4.900000,-0.140000
55.184767,-0.182024,0.045872,1.069208,0.560000,-2.660000,-1.120000
55.192854,-0.168360,-0.006344,0.905240,0.840000,-2.380000,-1.120000
55.200941,-0.171776,-0.020496,0.989176,0.700000,-4.620000,-0.420000
55.209028,-0.171288,0.007320,1.008696,0.140000,-2.240000,-1.400000
55.217115,-0.183976,0.018544,0.963312,2.100000,-3.500000,-0.280000
55.225203,-0.142984,0.002928,1.043832,-0.700000,-3.640000,-0.560000
55.233290,-0.153232,0.007320,0.949648,1.680000,-1.120000,-1.540000
55.241377,-0.212768,0.034160,0.988200,1.260000,-3.080000,-0.140000
55.249464,-0.141520,0.014640,1.016504,-1.960000,-3.220000,-0.700000
55.257551,-0.153232,-0.032696,0.947208,4.760000,-2.800000,-1.540000
55.265639,-0.238144,0.080520,0.997960,-1.540000,-2.800000,-0.420000
55.273726,-0.145424,-0.035136,1.059448,1.260000,-2.380000,-0.980000
55.281813,-0.205936,0.011224,0.928176,0.980000,-3.640000,-0.700000
55.289900,-0.171288,0.035624,1.015040,0.560000,-4.620000,-0.560000
55.297988,-0.150792,-0.001464,0.956480,1.400000,-5.880000,-1.260000
55.306075,-0.156160,0.000976,1.012112,0.840000,-4.620000,-0.840000
55.314162,-0.134688,-0.006344,0.999424,0.280000,-4.200000,-0.280000
55.322249,-0.174216,0.040504,0.993568,2.660000,-3.640000,-0.560000
55.330336,-0.187392,0.008784,0.964776,-0.560000,-3.500000,-1.120000
55.338424,-0.142008,-0.038552,0.989176,0.280000,-4.620000,-0.700000
55.346511,-0.163968,0.031232,1.004792,1.960000,-3.920000,-0.280000
55.354598,-0.164944,0.038064,1.005280,0.420000,-3.500000,-0.980000
55.362685,-0.135664,-0.028304,0.926224,0.840000,-3.780000,-1.540000
55.370772,-0.187880,0.024888,1.055056,0.980000,-3.920000,0.000000
55.378860,-0.154696,0.039528,1.089704,-0.140000,-1.960000,-0.980000
55.386947,-0.163968,-0.003416,0.934520,2.940000,-2.240000,-0.980000
55.395034,-0.154208,0.016592,1.048712,-0.420000,-1.960000,-0.280000
55.403121,-0.182024,0.016104,0.984784,0.980000,-0.140000,-1.120000
55.411208,-0.197640,0.008296,0.932568,0.700000,-3.500000,-0.560000
55.419296,-0.119072,0.017080,1.069696,0.560000,-5.180000,-0.700000
55.427383,-0.165432,-0.002928,0.990640,1.680000,-2.800000,-0.840000
55.435470,-0.174216,0.023424,0.955016,0.140000,-2.940000,-0.560000
55.443557,-0.132736,-0.020496,0.980392,1.680000,-4.480000,-1.120000
55.451644,-0.130296,0.009760,1.026752,-0.280000,-1.680000,-0.560000
55.459732,-0.180072,0.019520,0.918904,1.120000,-2.100000,-0.840000
55.467819,-0.176656,0.019032,1.011136,1.260000,-4.200000,-1.120000
55.475906,-0.109800,0.001952,1.038952,-0.280000,-4.200000,-0.420000
55.483993,-0.153720,-0.002440,1.002352,2.660000,-0.980000,-0.700000
55.492081,-0.190320,0.042944,0.958432,-0.700000,-2.240000,-0.840000
55.500168,-0.130296,-0.012200,1.039928,1.820000,-2.100000,-0.980000
55.508255,-0.187392,0.028792,1.005768,-0.140000,-3.080000,-0.420000
55.516342,-0.190808,0.000976,0.980392,1.820000,-2.520000,-1.400000
55.524429,-0.142984,0.009272,0.904752,1.120000,-5.600000,-0.980000
55.532517,-0.083936,-0.018056,1.105808,-0.840000,-5.180000,0.280000
55.540604,-0.167384,0.027816,0.959408,3.640000,-1.120000,-1.820000
55.548691,-0.193736,0.031232,0.896456,-0.140000,-3.500000,-0.700000
55.556778,-0.122488,-0.031720,1.050176,0.280000,-7.000000,-0.840000
55.564865,-0.135664,0.032696,1.053104,1.680000,-3.080000,-0.840000
55.572953,-0.159576,0.059048,1.006256,0.980000,-3.500000,-0.560000
55.581040,-0.151768,0.001952,1.004792,0.140000,-3.640000,-0.980000
55.589127,-0.134688,-0.005368,0.981856,0.980000,-3.920000,-0.560000
55.597214,-0.191784,0.021472,1.030656,1.260000,-2.240000,-0.700000
55.605301,-0.145912,0.029768,0.933544,0.140000,-4.620000,-0.980000
55.613389,-0.081984,-0.027816,1.066768,1.540000,-5.320000,-0.280000
55.621476,-0.183000,-0.000488,1.012112,1.120000,-0.700000,-1.400000
55.629563,-0.152256,0.030744,0.923784,0.980000,-3.080000,-0.420000
55.637650,-0.089792,-0.020008,1.059936,1.120000,-3.780000,-0.420000
55.645738,-0.151280,0.029280,0.981368,0.280000,-0.420000,-1.400000
55.653825,-0.193248,0.013664,0.937936,1.260000,-2.380000,-0.140000
55.661912,-0.126392,0.003416,1.042856,-0.280000,-4.060000,-0.420000
55.669999,-0.105408,0.007808,0.967216,1.820000,-2.240000,-1.400000
55.678086,-0.210816,0.034648,0.970144,-0.280000,-2.520000,-0.420000
55.686174,-0.159576,0.007808,1.011136,1.540000,-4.760000,-0.980000
55.694261,-0.122488,0.000488,1.013088,0.000000,-5.740000,-0.700000
55.702348,-0.144936,-0.002440,1.034072,1.120000,-3.780000,-0.700000
55.710435,-0.167872,0.048800,0.981368,1.400000,-4.060000,-0.840000
55.718522,-0.121024,-0.015128,0.978440,0.280000,-6.020000,-0.280000
55.726610,-0.108336,-0.010736,1.044808,1.260000,-3.640000,-0.840000
55.734697,-0.149816,0.063440,0.954040,0.840000,-2.520000,-0.840000
55.742784,-0.126392,-0.025864,0.983808,0.700000,-5.600000,-0.700000
55.750871,-0.140544,-0.017080,0.985760,0.560000,-4.760000,-0.980000
55.758958,-0.142984,0.032208,0.989664,1.120000,-3.780000,-0.420000
55.767046,-0.140056,0.029280,1.040416,0.560000,-5.320000,-0.840000
55.775133,-0.105408,-0.021960,0.956480,0.140000,-4.900000,-0.840000
55.783220,-0.145424,0.011712,1.033096,1.680000,-3.780000,-0.560000
55.791307,-0.152256,0.044408,0.987224,0.280000,-3.640000,-1.400000
55.799395,-0.091744,-0.020008,0.994544,0.140000,-5.180000,-0.420000
55.807482,-0.131760,0.007320,1.069208,1.820000,-1.960000,-0.420000
55.815569,-0.154208,0.054168,0.975512,0.280000,-2.660000,-0.700000
55.823656,-0.093696,-0.001464,1.019920,0.560000,-3.640000,-0.840000
55.831743,-0.143472,-0.010248,0.983320,0.840000,-2.940000,-1.260000
55.839831,-0.154696,0.014640,1.035536,1.960000,-3.220000,-0.280000
55.847918,-0.148352,0.038064,0.963800,0.000000,-3.640000,-0.560000
55.856005,-0.087352,-0.023912,1.015040,1.400000,-4.480000,-1.260000
55.864092,-0.121512,0.028304,0.913536,0.560000,-3.640000,-0.420000
55.872179,-0.143472,-0.013176,1.067256,1.820000,-4.620000,-1.120000
55.880267,-0.139568,0.013176,0.922808,-0.280000,-3.500000,-0.840000
55.888354,-0.072224,-0.006344,1.091656,0.420000,-3.640000,-0.420000
55.896441,-0.170800,0.047336,0.938912,1.680000,-3.080000,-1.540000
55.904528,-0.152744,0.021960,0.990640,-1.120000,-4.900000,0.000000
55.912616,-0.140056,-0.030256,1.072136,2.100000,-6.300000,-0.700000
55.920703,-0.101016,0.020496,1.019432,1.680000,-3.220000,-0.840000
55.928790,-0.101992,0.042944,1.030656,-0.700000,-2.380000,-0.560000
55.936877,-0.169824,-0.046360,0.898408,2.520000,-3.080000,-0.980000
55.944964,-0.107360,0.025864,1.008696,-0.420000,-4.340000,-0.280000
55.953052,-0.103456,0.022448,1.029680,1.260000,-3.500000,-1.260000
55.961139,-0.153232,0.014640,0.994056,0.980000,-3.220000,-0.840000
55.969226,-0.042944,-0.022936,0.999424,0.140000,-4.760000,-0.280000
55.977313,-0.121512,0.035136,1.057008,2.800000,-1.120000,-1.260000
55.985400,-0.139568,0.031720,0.928176,-2.380000,-1.260000,-0.700000
55.993488,-0.091744,-0.032696,1.029192,3.080000,-3.080000,-0.980000
56.001575,-0.170800,0.059536,1.023336,0.700000,-2.520000,-0.420000
56.009662,-0.139568,0.018544,1.001864,-0.140000,-2.240000,-0.700000
56.017749,-0.146888,-0.000976,0.951112,1.120000,-4.620000,-1.260000
56.025837,-0.077104,-0.030256,1.037976,0.980000,-5.740000,-0.560000
56.033924,-0.081984,0.042944,1.005768,1.400000,-3.640000,-0.280000
56.042011,-0.128832,0.017568,1.022360,0.420000,-1.820000,-0.980000
56.050098,-0.086376,-0.019032,0.960384,0.140000,-3.500000,-1.120000
56.058185,-0.110288,-0.000976,1.015040,1.960000,-2.940000,-0.560000
56.066273,-0.124440,0.036112,1.004792,-0.420000,-1.820000,-0.420000
56.074360,-0.121024,0.002440,0.992104,2.520000,-1.960000,-1.680000
56.082447,-0.131272,0.036112,0.968192,-0.980000,-4.060000,-0.140000
56.090534,-0.127368,-0.002928,1.100928,0.980000,-4.060000,-0.840000
56.098621,-0.156648,0.022936,0.925736,2.100000,-3.360000,-0.980000
56.106709,-0.094672,0.000000,0.963312,-0.420000,-7.280000,-0.280000
56.114796,-0.029768,-0.016592,1.060912,0.840000,-5.880000,-0.700000
56.122883,-0.155672,0.026840,0.996496,1.820000,-1.820000,-1.120000
56.130970,-0.107848,0.008296,0.983320,-0.560000,-4.340000,-0.560000
56.139057,-0.050752,-0.000976,1.035536,2.100000,-4.340000,-0.700000
56.147145,-0.145912,0.001464,0.949160,0.420000,-1.540000,-0.980000
56.155232,-0.109312,0.016104,0.965752,0.280000,-3.500000,-0.840000
56.163319,-0.070760,-0.004392,1.055544,1.540000,-3.360000,-0.560000
56.171406,-0.097112,0.032696,1.015040,-1.400000,-1.680000,-0.560000
56.179494,-0.158600,0.029280,0.996008,3.080000,-1.400000,-0.980000
56.187581,-0.116632,0.026840,1.027728,0.000000,-5.040000,-0.420000
56.195668,-0.048312,-0.014152,1.011136,0.560000,-2.800000,-0.840000
56.203755,-0.117120,0.017568,0.994056,2.100000,-1.400000,-1.260000
56.211842,-0.131760,0.022936,0.987712,-0.700000,-3.360000,-0.140000
56.219930,-0.048312,-0.030744,1.069696,1.960000,-3.640000,-0.840000
56.228017,-0.145424,0.028792,0.957944,0.560000,-0.560000,-0.840000
56.236104,-0.109312,0.014640,1.055544,0.560000,-3.080000,-0.560000
56.244191,-0.082472,-0.020984,0.948184,1.960000,-2.240000,-0.840000
56.252278,-0.067344,0.037088,1.016992,-0.280000,-1.820000,-0.700000
56.260366,-0.160064,0.010248,0.976000,1.820000,-0.140000,-1.680000
56.268453,-0.122976,0.019520,0.957456,-0.700000,-4.340000,-0.140000
56.276540,-0.052216,-0.017568,1.100440,1.400000,-4.060000,-0.700000
56.284627,-0.142496,0.050264,0.948672,1.400000,-1.680000,-0.980000
56.292715,-0.088816,-0.002440,1.030656,0.280000,-3.920000,-0.420000
56.300802,-0.053680,-0.028792,1.011624,1.260000,-3.920000,-1.260000
56.308889,-0.127368,0.030744,0.943792,1.680000,-1.680000,-0.700000
56.316976,-0.133224,0.012688,1.006744,-0.280000,-2.660000,-0.700000
56.325063,-0.065392,0.006344,1.018944,1.260000,-3.920000,-0.980000
56.333151,-0.068808,0.013664,1.057984,-0.420000,-1.540000,-0.420000
56.341238,-0.106872,0.004392,0.981856,2.660000,-0.840000,-1.260000
56.349325,-0.139080,0.033672,0.935984,0.000000,-3.080000,-0.560000
56.357412,-0.067344,-0.013176,1.092632,0.560000,-4.480000,-0.700000
56.365499,-0.088328,0.011712,0.994544,1.820000,-1.540000,-0.700000
56.373587,-0.136152,0.053680,1.033584,1.260000,-2.100000,-0.560000
56.381674,-0.080032,-0.031720,0.962824,0.140000,-1.960000,-0.840000
56.389761,-0.031232,-0.018056,0.994544,0.420000,-2.240000,-0.840000
56.397848,-0.134688,0.046848,0.965264,1.120000,-0.980000,-0.840000
56.405936,-0.113216,0.031720,1.012112,0.840000,-4.200000,-0.560000
56.414023,-0.077592,-0.020496,1.047736,0.980000,-3.360000,-0.840000
56.422110,-0.121512,0.022936,1.021384,-0.140000,-0.420000,-0.420000
56.430197,-0.088328,0.011712,0.978928,2.240000,-2.520000,-1.120000
56.438284,-0.076128,0.015616,1.015040,-0.140000,-4.060000,-0.700000
56.446372,-0.078568,-0.021472,1.007720,1.260000,-0.840000,-0.980000
56.454459,-0.107848,0.040992,1.040904,0.420000,-0.840000,-0.560000
56.462546,-0.069784,-0.005856,0.963800,1.400000,-0.980000,-0.840000
56.470633,-0.066856,-0.002440,0.996008,0.140000,-1.540000,-0.560000
56.478720,-0.124928,0.018056,1.008696,1.680000,-0.420000,-1.260000
56.486808,-0.141032,0.055144,0.988688,-0.140000,-3.360000,-0.420000
56.494895,-0.046848,-0.025864,1.073600,0.980000,-3.220000,-0.560000
56.502982,-0.085888,0.026352,1.013576,1.260000,-1.540000,-0.980000
56.511069,-0.113216,0.017080,1.000888,0.980000,-0.700000,-0.700000
56.519157,-0.094184,-0.011712,0.954040,0.000000,-2.660000,-0.980000
56.527244,-0.058072,-0.019520,1.041392,1.120000,-1.260000,-0.560000
56.535331,-0.097600,0.026840,0.952576,1.400000,-0.840000,-1.260000
56.543418,-0.099552,0.027328,1.014552,0.420000,-2.240000,-0.280000
56.551505,-0.030256,-0.029768,1.010160,0.280000,-1.680000,-0.700000
56.559593,-0.101016,0.008296,0.998936,2.660000,0.000000,-1.540000
56.567680,-0.130296,0.071736,0.982344,-1.260000,-1.820000,0.140000
56.575767,-0.051240,-0.016104,1.082384,2.100000,-2.380000,-1.120000
56.583854,-0.137128,0.019520,0.958920,0.840000,-1.120000,-0.700000
56.591941,-0.086376,0.007808,1.090680,0.140000,-0.980000,-0.700000
56.600029,-0.070760,0.005856,0.899384,1.540000,-2.660000,-1.120000
56.608116,-0.044896,-0.017080,1.033096,0.840000,-2.520000,-0.420000
56.616203,-0.140056,0.018056,0.968680,0.840000,-0.560000,-1.540000
56.624290,-0.073200,0.020496,1.021872,0.280000,-2.660000,-0.280000
56.632377,-0.021960,-0.010736,0.980880,0.980000,-3.220000,-0.140000
56.640465,-0.104920,0.040016,1.015040,1.540000,-1.680000,-1.120000
56.648552,-0.142984,0.031720,1.000888,0.420000,-2.240000,-0.420000
56.656639,-0.089792,-0.009760,1.043344,0.560000,-3.220000,-0.980000
56.664726,-0.078568,-0.016592,0.967704,1.400000,-2.940000,-1.120000
56.672814,-0.053192,0.034648,1.046272,0.140000,-2.100000,-0.280000
56.680901,-0.080032,0.012688,0.976488,1.680000,-2.660000,-0.980000
56.688988,-0.094672,-0.004392,0.994056,-0.140000,-3.220000,-0.700000
56.697075,-0.041968,-0.016104,0.995520,1.120000,-3.080000,-0.840000
56.705162,-0.123464,0.040016,1.027728,1.820000,-2.660000,-0.560000
56.713250,-0.072224,0.006344,0.987712,-0.420000,-3.360000,-0.840000
56.721337,-0.045384,-0.013664,1.007720,1.960000,-3.080000,-0.700000
56.729424,-0.092232,0.039040,1.024800,0.560000,-1.120000,-0.700000
56.737511,-0.106384,0.012688,0.950136,0.280000,-3.360000,-0.560000
56.745598,-0.096136,0.019520,1.061400,1.120000,-4.200000,-0.560000
56.753686,-0.063928,-0.014640,0.995520,1.120000,-2.660000,-0.840000
56.761773,-0.080520,0.025376,0.997960,-0.560000,-2.520000,-0.700000
56.769860,-0.074664,-0.017568,0.944280,2.240000,-3.360000,-1.400000
56.777947,-0.089304,0.016592,1.011136,-0.420000,-5.180000,-0.140000
56.786035,-0.066856,0.007808,1.062864,1.960000,-3.220000,-0.560000
56.794122,-0.122000,0.020008,0.925248,0.140000,-3.640000,-0.980000
56.802209,-0.066368,-0.010736,1.001376,0.560000,-6.860000,-0.980000
56.810296,-0.034648,0.014640,1.020408,0.140000,-6.020000,-0.420000
56.818383,-0.090280,0.016592,1.023336,1.120000,-3.220000,-1.120000
56.826471,-0.075152,0.024400,1.020408,0.140000,-4.760000,-0.700000
56.834558,-0.015128,0.004392,1.049688,1.120000,-3.640000,-0.280000
56.842645,-0.112728,0.001952,0.981368,0.560000,-1.960000,-1.120000
56.850732,-0.080520,0.003904,1.001864,1.260000,-4.200000,-0.700000
56.858819,-0.025864,0.011224,1.013576,1.120000,-5.040000,-0.420000
56.866907,-0.096624,-0.000488,1.009184,1.680000,-3.360000,-0.700000
56.874994,-0.069784,0.018056,0.975512,-0.560000,-3.500000,-0.840000
56.883081,-0.067344,-0.008784,0.945744,2.800000,-4.480000,-0.700000
56.891168,-0.040016,0.035624,1.019920,-1.540000,-5.600000,-0.280000
56.899255,-0.052704,-0.002440,1.076040,1.400000,-2.660000,-1.260000
56.907343,-0.163968,0.044408,0.956968,1.260000,-4.200000,-0.700000
56.915430,-0.045384,-0.003416,1.061400,0.280000,-7.840000,0.000000
56.923517,-0.049776,0.006344,0.987224,1.540000,-5.600000,-0.980000
56.931604,-0.076128,0.015128,1.016992,0.280000,-4.060000,-0.420000
56.939692,-0.028304,-0.016104,0.985760,0.700000,-5.320000,-0.980000
56.947779,-0.050752,0.010248,1.018944,1.260000,-3.640000,-0.840000
56.955866,-0.082960,0.025376,0.992592,-1.260000,-2.940000,-0.700000
56.963953,-0.038064,-0.006832,0.968192,2.520000,-5.040000,-0.980000
56.972040,-0.017080,0.024400,1.023336,-0.420000,-5.880000,-0.560000
56.980128,-0.096136,0.007808,1.070184,1.120000,-2.660000,-0.840000
56.988215,-0.085888,0.014640,0.967216,0.980000,-4.200000,-0.840000
56.996302,-0.020984,-0.001464,1.057984,1.260000,-5.180000,-0.420000
57.004389,-0.077592,0.019032,1.010160,0.140000,-2.800000,-0.560000
57.012476,-0.059536,0.013176,0.976976,1.540000,-2.800000,-0.840000
57.020564,-0.033184,0.007808,1.026264,0.420000,-4.060000,-0.840000
57.028651,-0.003416,0.008784,1.047248,0.140000,-2.520000,-0.560000
57.036738,-0.084424,0.016104,1.015040,1.540000,-0.140000,-0.980000
57.044825,-0.072712,0.015616,0.962824,0.700000,-2.940000,-0.980000
57.052912,0.014640,-0.028304,1.036024,0.700000,-2.940000,-0.280000
57.061000,-0.070272,0.043432,0.979904,1.680000,-0.980000,-1.260000
57.069087,-0.103944,0.005856,1.017480,0.000000,-2.100000,-0.560000
57.077174,-0.011712,-0.022936,1.008208,1.820000,-3.080000,-0.840000
57.085261,-0.034648,0.021960,1.023336,0.280000,-1.260000,-0.420000
57.093349,-0.083448,0.028792,1.005768,1.120000,-0.560000,-0.840000
57.101436,-0.080520,0.019520,1.014064,1.120000,-1.960000,-1.120000
57.109523,-0.012200,-0.007320,1.016992,-0.140000,-3.640000,-0.140000
57.117610,-0.059048,-0.004880,1.034072,2.240000,-0.140000,-0.840000
57.125697,-0.071248,0.040504,0.942328,0.420000,-2.940000,-1.120000
57.133785,-0.004880,-0.014152,1.113128,-0.140000,-1.820000,-0.280000
57.141872,-0.078080,0.006344,0.980880,1.400000,0.140000,-1.260000
57.149959,-0.096624,0.026840,0.950136,1.540000,-1.960000,-0.420000
57.158046,-0.016592,0.002928,1.019920,0.000000,-2.800000,-0.980000
57.166133,-0.041968,-0.022448,0.953552,1.540000,-0.980000,-1.260000
57.174221,-0.073200,0.026840,0.970144,-0.700000,-1.120000,-0.420000
57.182308,-0.045384,-0.000976,1.028216,1.960000,-2.940000,-0.980000
57.190395,-0.020008,0.015616,1.059448,-0.840000,-2.520000,-0.140000
57.198482,-0.066856,0.003904,1.093120,2.380000,0.140000,-0.980000
57.206569,-0.086864,0.042944,0.914024,0.560000,-1.540000,-1.120000
57.214657,0.013176,-0.019032,1.019432,0.700000,-3.780000,-0.420000
57.222744,-0.047336,0.012200,0.953552,1.400000,-2.240000,-1.400000
57.230831,-0.085888,0.032208,1.030168,0.560000,-2.520000,-0.560000
57.238918,-0.006832,0.008296,0.998936,0.280000,-3.080000,-0.420000
57.247006,-0.008296,-0.015616,1.017968,1.960000,-2.380000,-1.120000
57.255093,-0.106872,0.033184,0.999912,0.000000,-0.840000,-0.980000
57.263180,-0.045872,-0.026840,1.028704,0.420000,-2.380000,-0.560000
57.271267,0.003904,0.013664,1.055056,1.260000,-2.100000,-0.840000
57.279354,-0.086864,0.046360,0.971120,1.120000,-0.980000,-0.420000
57.287442,-0.074664,0.013664,1.052128,0.840000,-3.080000,-0.840000
57.295529,-0.007808,-0.029280,0.996984,0.560000,-1.820000,-0.840000
