Time [s],lsm6dsv16x_acc_x [g],lsm6dsv16x_acc_y [g],lsm6dsv16x_acc_z [g],lsm6dsv16x_gyro_x [dps],lsm6dsv16x_gyro_y [dps],lsm6dsv16x_gyro_z [dps]
25.795885,-0.086376,0.031232,1.006256,0.140000,2.100000,-0.840000
25.803972,-0.067832,0.003904,0.966728,1.960000,0.140000,-1.260000
25.812059,-0.028304,0.034160,1.056520,-0.280000,-2.100000,-0.280000
25.820146,-0.047824,-0.015128,1.054080,1.820000,2.100000,-1.120000
25.828233,-0.104920,0.034160,0.942816,0.000000,0.980000,-0.980000
25.836321,-0.014152,-0.014152,1.007232,1.400000,-1.680000,-0.700000
25.844408,-0.069296,0.010736,1.035536,0.980000,0.560000,-0.700000
25.852495,-0.083936,0.010736,0.986248,-0.140000,2.100000,-1.120000
25.860582,-0.010736,-0.005368,0.973560,2.660000,-0.840000,-0.840000
25.868669,-0.028304,0.017568,1.092144,-1.260000,2.100000,-0.420000
25.876757,-0.060512,0.006344,0.939400,2.520000,3.360000,-0.980000
25.884844,-0.105408,0.016592,0.977952,0.980000,0.560000,-1.120000
25.892931,-0.006344,-0.024400,1.056520,0.560000,-0.700000,-0.560000
25.901018,-0.060512,0.016104,0.970632,2.100000,2.380000,-1.120000
25.909105,-0.055144,0.027816,1.020408,-1.540000,0.980000,-0.700000
25.917192,-0.008784,-0.013176,1.027240,2.240000,0.140000,-0.840000
25.925280,-0.086864,0.024888,1.053592,0.700000,3.500000,-0.420000
25.933367,-0.081984,-0.000976,0.939400,1.260000,2.940000,-1.540000
25.941454,-0.055144,-0.005368,0.956480,1.540000,0.280000,-0.420000
25.949541,-0.011712,0.016104,1.054080,-1.400000,0.980000,-0.280000
25.957628,-0.094672,0.028792,1.061888,4.200000,3.360000,-1.400000
25.965716,-0.075640,0.045872,1.001376,-1.680000,0.280000,-0.420000
25.973803,-0.014152,-0.051728,1.051152,1.960000,1.540000,-0.840000
25.981890,-0.090768,0.022448,0.994056,1.680000,3.360000,-1.260000
25.989977,-0.104432,0.028792,0.942816,0.000000,1.960000,-0.700000
25.998064,-0.007320,-0.011712,1.015040,0.560000,-1.120000,-0.700000
26.006151,-0.016592,0.000488,0.998936,1.400000,1.680000,-1.400000
26.014239,-0.065880,0.042456,1.005768,0.700000,2.240000,-0.700000
26.022326,-0.068808,-0.017568,0.974536,1.400000,0.560000,-0.560000
26.030413,-0.025864,-0.002440,1.054080,0.280000,2.520000,-0.700000
26.038500,-0.062464,0.037088,0.976488,1.400000,3.500000,-1.120000
26.046587,-0.081984,-0.019520,1.016504,0.140000,1.820000,-0.420000
26.054675,-0.031720,0.004880,1.098488,1.120000,2.100000,-1.120000
26.062762,-0.104920,0.033184,0.956480,1.820000,4.060000,-0.840000
26.070849,-0.074176,0.033184,1.016992,-0.980000,0.560000,-0.700000
26.078936,-0.005368,-0.045872,1.054080,1.820000,2.380000,-0.980000
26.087023,-0.073200,0.017080,0.955992,0.700000,4.620000,-0.980000
26.095110,-0.068320,0.027328,0.948672,0.980000,2.800000,-1.260000
26.103198,-0.020496,-0.002928,1.021384,0.420000,0.140000,-0.980000
26.111285,-0.022936,-0.020496,1.045784,1.540000,3.080000,-0.560000
26.119372,-0.082472,0.058560,1.052128,0.560000,4.760000,-0.840000
26.127459,-0.066856,0.009760,0.989664,1.960000,2.800000,-0.560000
26.135546,-0.055632,-0.014640,1.055544,0.420000,2.940000,-0.420000
26.143634,-0.076616,0.008784,0.978440,1.960000,5.740000,-1.400000
26.151721,-0.123952,0.042456,0.976488,1.260000,2.940000,-0.420000
26.159808,-0.006832,-0.011712,1.008696,0.700000,0.980000,-0.980000
26.167895,-0.071736,-0.003416,1.009672,0.840000,3.500000,-0.840000
26.175982,-0.064416,0.037576,0.985760,0.280000,3.640000,-0.980000
26.184070,-0.034648,-0.017568,1.040904,1.260000,1.260000,-0.560000
26.192157,-0.039040,0.005368,1.031632,0.980000,4.480000,-1.260000
26.200244,-0.107848,0.022448,0.948672,1.400000,4.760000,-0.980000
26.208331,-0.049288,-0.006832,1.056520,0.140000,2.940000,-0.560000
26.216418,-0.012688,-0.000488,0.986736,1.540000,4.900000,-1.120000
26.224505,-0.111264,0.031720,1.041880,0.140000,5.600000,-0.700000
26.232593,-0.090280,0.038552,0.983320,1.400000,4.480000,-1.120000
26.240680,-0.040992,-0.010248,1.052616,0.140000,2.940000,-0.560000
26.248767,-0.054656,-0.006344,1.035536,1.960000,5.460000,-0.980000
26.256854,-0.091256,0.023424,0.927688,0.980000,5.460000,-1.120000
26.264941,-0.038064,-0.014152,0.987712,0.980000,3.220000,-0.840000
26.273029,-0.042456,-0.020496,0.995520,0.420000,4.200000,-1.260000
26.281116,-0.114680,0.028304,0.943304,1.400000,4.760000,-0.980000
26.289203,-0.064416,0.061000,1.057984,0.280000,1.120000,-0.560000
26.297290,-0.030744,-0.021472,1.060424,2.100000,3.080000,-1.540000
26.305377,-0.083448,0.019520,1.007232,0.840000,6.580000,-0.980000
26.313464,-0.105408,0.017568,0.986736,1.120000,4.060000,-0.700000
26.321552,-0.052704,-0.023424,1.033584,2.520000,3.220000,-0.980000
26.329639,-0.071736,0.029280,0.992104,-0.700000,5.180000,0.000000
26.337726,-0.086376,-0.001464,1.056520,2.380000,5.600000,-1.540000
26.345813,-0.088328,0.007808,0.923296,0.000000,4.200000,-0.560000
26.353900,-0.024888,-0.033184,1.062864,0.980000,3.920000,-0.840000
26.361988,-0.130296,0.015616,0.920368,1.820000,5.880000,-1.120000
26.370075,-0.108824,0.063928,1.042856,-1.120000,3.080000,-0.280000
26.378162,-0.040992,-0.043920,1.000888,2.520000,3.360000,-1.540000
26.386249,-0.067344,0.035136,0.967704,-0.700000,3.220000,-0.420000
26.394336,-0.100528,0.022448,1.084336,1.960000,3.640000,-1.400000
26.402424,-0.095160,0.020008,0.931104,0.420000,1.120000,-0.560000
26.410511,-0.029280,-0.034160,1.026752,0.980000,0.280000,-0.840000
26.418598,-0.117120,0.010736,0.973560,2.800000,2.940000,-1.260000
26.426685,-0.066368,0.033672,1.029192,-1.260000,1.260000,-0.280000
26.434772,-0.056120,-0.032208,0.981368,2.660000,1.540000,-0.980000
26.442859,-0.101016,0.054656,1.026264,-0.280000,2.660000,-0.840000
26.450947,-0.114680,0.019032,1.004304,0.700000,1.680000,-1.260000
26.459034,-0.041968,-0.009760,1.060424,1.260000,-0.280000,-0.140000
26.467121,-0.043432,0.013176,1.048224,0.840000,3.080000,-0.980000
26.475208,-0.133224,0.041968,0.967704,2.240000,3.500000,-1.260000
26.483295,-0.043432,-0.017080,1.005280,-0.980000,1.540000,-0.700000
26.491383,-0.051240,-0.044408,0.992104,2.800000,3.500000,-1.120000
26.499470,-0.118096,0.046360,0.906704,0.420000,3.080000,-0.980000
26.507557,-0.086864,0.016592,1.011624,0.140000,-0.840000,-0.700000
26.515644,-0.072712,-0.019520,0.989664,1.960000,-1.120000,-0.700000
26.523731,-0.076128,0.013664,1.064328,0.420000,1.120000,-0.420000
26.531818,-0.104432,0.032696,0.976000,1.400000,1.820000,-1.260000
26.539906,-0.067832,-0.004392,0.954040,0.420000,-0.840000,-0.700000
26.547993,-0.060024,-0.011712,1.048224,0.140000,-0.280000,-1.400000
26.556080,-0.071248,0.030256,0.967704,2.100000,0.420000,-0.700000
26.564167,-0.043432,0.019032,1.025288,-1.120000,0.840000,-0.140000
26.572254,-0.073688,0.011712,1.029680,2.380000,1.400000,-1.260000
26.580342,-0.162016,0.022448,1.027240,2.100000,1.540000,-1.120000
26.588429,-0.071248,-0.019520,0.985760,-1.820000,-1.260000,-0.420000
26.596516,-0.020984,-0.024888,1.053592,2.940000,1.400000,-1.400000
26.604603,-0.086864,0.067832,0.939400,0.420000,1.400000,-0.560000
26.612690,-0.108336,0.011224,1.039440,1.400000,0.980000,-0.700000
26.620777,-0.077592,-0.021960,1.010160,0.840000,0.140000,-0.840000
26.628865,-0.072224,0.005368,0.988688,1.400000,1.540000,-0.560000
26.636952,-0.084424,0.046848,1.033584,0.560000,0.700000,-0.700000
26.645039,-0.056608,-0.037088,0.976488,1.120000,0.700000,-1.120000
26.653126,-0.062464,0.010248,1.041880,0.280000,2.100000,-0.560000
26.661213,-0.104920,0.033672,0.979904,2.100000,2.520000,-1.260000
26.669301,-0.078568,0.031232,1.029680,-0.140000,0.420000,-0.280000
26.677388,-0.078568,-0.028304,1.000888,1.820000,-0.420000,-0.980000
26.685475,-0.105896,0.014152,0.993080,1.400000,1.820000,-0.980000
26.693562,-0.107360,0.023424,0.980880,-0.140000,0.420000,-0.840000
26.701649,-0.047824,-0.040992,1.035536,1.820000,-0.140000,-0.980000
26.709737,-0.068320,0.045872,1.035048,0.280000,2.100000,-0.840000
26.717824,-0.085400,0.023424,0.969168,1.260000,0.980000,-0.420000
26.725911,-0.050752,-0.021960,1.055544,0.840000,1.400000,-1.120000
26.733998,-0.069296,0.004880,0.949648,0.560000,2.800000,-0.840000
26.742085,-0.094672,0.054656,1.054080,1.540000,1.820000,-0.420000
26.750172,-0.105408,0.012200,0.979904,0.840000,1.260000,-1.680000
26.758260,-0.088816,-0.014640,0.972096,0.560000,0.280000,-0.560000
26.766347,-0.080032,0.010248,1.012600,0.980000,-0.420000,-0.700000
26.774434,-0.102480,0.020008,1.018456,1.820000,-0.700000,-1.120000
26.782521,-0.044408,-0.012688,1.046760,-0.700000,0.560000,-0.420000
26.790608,-0.072224,0.016592,1.025288,2.800000,2.240000,-1.260000
26.798696,-0.123952,0.018056,0.946720,0.000000,2.100000,-0.700000
26.806783,-0.040504,-0.018544,0.958920,0.140000,-1.260000,-0.980000
26.814870,-0.055144,-0.008784,1.016992,2.100000,-0.560000,-0.840000
26.822957,-0.090280,0.069296,1.030168,-0.140000,0.700000,-0.420000
26.831044,-0.068808,-0.031720,1.033096,0.980000,1.540000,-1.260000
26.839132,-0.088328,0.007808,0.988688,0.840000,2.660000,-1.120000
26.847219,-0.070272,0.032696,1.026264,1.680000,1.540000,-0.420000
26.855306,-0.127856,0.044408,1.056520,0.000000,1.820000,-0.980000
26.863393,-0.072224,-0.035624,0.972096,1.260000,1.400000,-0.700000
26.871480,-0.069296,0.015128,1.014552,0.420000,1.540000,-0.420000
26.879567,-0.078568,0.027328,1.008208,1.680000,1.820000,-0.980000
26.887655,-0.060024,-0.012200,1.006744,0.420000,2.520000,-1.120000
26.895742,-0.058072,-0.020008,0.974048,2.100000,1.820000,-0.840000
26.903829,-0.091256,0.039528,1.018944,0.140000,1.820000,-0.420000
26.911916,-0.106384,-0.005368,0.962824,2.100000,2.240000,-1.540000
26.920003,-0.072712,0.010736,1.015040,0.280000,-0.420000,-0.280000
26.928091,-0.049776,0.013176,1.095560,1.540000,2.660000,-1.120000
26.936178,-0.134688,0.044408,0.995032,-0.420000,3.360000,-0.700000
26.944265,-0.080520,-0.023912,0.975512,1.820000,1.400000,-0.700000
26.952352,-0.066368,-0.000488,0.958920,0.980000,1.120000,-1.120000
26.960439,-0.062952,0.010248,1.032120,0.140000,1.540000,-0.840000
26.968527,-0.086376,0.011712,0.984296,2.240000,1.680000,-0.700000
26.976614,-0.061000,0.010248,1.015528,0.140000,1.680000,-0.840000
26.984701,-0.117120,0.026840,1.016016,1.540000,3.640000,-1.120000
26.992788,-0.115656,0.009760,0.984784,-0.840000,1.400000,-0.420000
27.000875,-0.065880,-0.030256,0.968680,2.240000,1.540000,-1.540000
27.008962,-0.033184,0.043432,1.037976,-0.420000,0.700000,-0.140000
27.017050,-0.095648,0.006832,1.060912,1.680000,3.500000,-1.120000
27.025137,-0.127856,0.030256,0.981856,0.560000,3.500000,-0.840000
27.033224,-0.045872,-0.036112,0.995520,1.400000,2.240000,-0.700000
27.041311,-0.115656,0.026352,0.942328,0.420000,1.260000,-0.840000
27.049398,-0.093208,0.013664,1.028704,0.420000,0.980000,-1.120000
27.057486,-0.098576,-0.010736,0.984296,2.100000,0.840000,-0.980000
27.065573,-0.037088,0.045384,1.065792,0.000000,-0.280000,0.000000
27.073660,-0.086376,0.020496,1.070184,3.080000,3.640000,-1.120000
27.081747,-0.104432,0.007808,0.996984,-0.840000,3.360000,-0.560000
27.089834,-0.068320,-0.025864,1.000888,2.520000,3.640000,-1.260000
27.097922,-0.102968,0.005368,0.894992,0.840000,3.220000,-0.840000
27.106009,-0.068808,0.003416,1.005280,0.420000,0.560000,-0.840000
27.114096,-0.092232,0.019032,1.012112,1.260000,1.260000,-0.980000
27.122183,-0.066856,0.016592,1.088240,0.560000,1.680000,-0.420000
27.130270,-0.103456,0.025376,0.983320,1.120000,3.080000,-1.260000
27.138358,-0.099552,-0.020496,0.961360,1.400000,1.820000,-0.560000
27.146445,-0.048800,0.027328,1.044320,0.000000,2.100000,-0.420000
27.154532,-0.093208,0.000000,1.027728,2.520000,4.620000,-1.260000
27.162619,-0.109312,0.021472,1.016992,-0.280000,5.040000,-0.420000
27.170706,-0.086376,-0.024400,0.963800,1.820000,3.640000,-1.260000
27.178793,-0.115656,0.016592,0.938912,0.140000,2.940000,-0.840000
27.186881,-0.114680,0.037088,1.049688,0.840000,0.560000,-0.980000
27.194968,-0.085400,-0.007808,0.983808,1.260000,1.120000,-0.560000
27.203055,-0.017568,0.016104,1.099952,0.000000,1.260000,-0.840000
27.211142,-0.130296,0.035136,1.017968,2.520000,4.480000,-1.260000
27.219229,-0.140544,0.015128,0.978440,-0.280000,3.360000,-0.140000
27.227317,-0.042456,-0.018544,1.000400,1.680000,0.700000,-0.980000
27.235404,-0.088816,-0.004392,0.964776,0.840000,2.940000,-0.980000
27.243491,-0.107848,-0.007320,0.956968,1.400000,2.380000,-1.400000
27.251578,-0.076616,0.011224,0.955992,-0.140000,0.420000,-0.700000
27.259665,-0.043432,-0.004392,1.085312,1.400000,2.380000,-0.840000
27.267753,-0.104432,0.052704,1.006256,0.000000,4.480000,-0.980000
27.275840,-0.101504,0.005856,1.011136,1.680000,2.800000,-0.840000
27.283927,-0.091256,0.012200,1.054568,0.980000,1.680000,-0.560000
27.292014,-0.138104,0.038064,1.022848,0.700000,4.060000,-0.840000
27.300101,-0.127368,-0.010736,0.977464,1.960000,2.660000,-0.980000
27.308188,-0.039040,0.011712,1.010648,-0.420000,0.700000,-0.420000
27.316276,-0.059536,-0.011224,1.098488,1.680000,3.640000,-0.980000
27.324363,-0.161528,0.046360,0.884744,1.260000,3.640000,-0.560000
27.332450,-0.015616,-0.026840,1.028216,0.560000,1.820000,-0.700000
27.340537,-0.080520,-0.004880,0.935984,2.100000,2.800000,-1.540000
27.348624,-0.118096,0.050752,0.995520,-1.120000,2.800000,-0.140000
27.356712,-0.121512,-0.000976,0.993080,2.800000,1.680000,-1.540000
27.364799,-0.114192,0.030256,1.037976,-0.140000,0.000000,-0.700000
27.372886,-0.074176,-0.019520,1.084336,0.840000,2.660000,-0.420000
27.380973,-0.123464,0.019520,0.968192,1.540000,3.080000,-1.400000
27.389060,-0.053192,-0.008784,0.976976,0.980000,1.120000,-0.700000
27.397148,-0.080520,-0.000488,1.061400,1.260000,3.360000,-0.840000
27.405235,-0.146888,0.040504,0.957944,0.280000,4.200000,-0.840000
27.413322,-0.063440,-0.005368,0.998936,1.120000,1.680000,-0.840000
27.421409,-0.070272,0.003416,1.010648,0.000000,2.100000,-0.980000
27.429496,-0.091256,-0.004392,0.994544,1.540000,4.060000,-0.840000
27.437583,-0.177144,0.050752,0.942328,0.700000,1.960000,-1.120000
27.445671,-0.065880,-0.020008,1.030656,0.700000,-1.540000,-0.560000
27.453758,-0.084424,-0.002928,0.984784,1.400000,1.540000,-0.280000
27.461845,-0.136152,0.048800,1.017480,0.980000,0.700000,-0.980000
27.469932,-0.106384,0.001464,1.015528,0.560000,0.000000,-0.840000
27.478019,-0.039040,-0.026352,1.108736,1.260000,1.820000,-0.700000
27.486107,-0.137128,0.024400,0.916952,0.700000,4.620000,-0.980000
27.494194,-0.077592,0.003904,0.941352,1.540000,0.980000,-0.840000
27.502281,-0.085888,0.004392,1.012600,-0.280000,-0.140000,-0.700000
27.510368,-0.106384,0.007808,1.026264,1.400000,2.660000,-0.980000
27.518455,-0.140056,0.043432,0.973072,0.980000,1.540000,-0.980000
27.526543,-0.064904,-0.027816,1.046760,0.560000,-0.700000,-0.420000
27.534630,-0.085888,0.003904,0.984784,0.840000,3.080000,-0.980000
27.542717,-0.156160,0.043920,1.017480,2.240000,1.680000,-1.260000
27.550804,-0.102968,0.019520,0.996984,-0.420000,-0.420000,-0.420000
27.558891,-0.032208,-0.021960,1.080432,1.260000,0.840000,-0.700000
27.566978,-0.151280,0.025376,0.954528,1.260000,2.520000,-1.120000
27.575066,-0.076128,-0.003904,0.981368,0.840000,1.820000,-0.700000
27.583153,-0.064416,0.002440,0.974048,0.700000,0.000000,-0.980000
27.591240,-0.093208,0.012200,1.039928,0.560000,2.240000,-1.120000
27.599327,-0.184464,0.037088,0.938912,0.980000,0.840000,-0.700000
27.607414,-0.092720,0.016592,1.025776,0.700000,-3.220000,-0.280000
27.615502,-0.032208,-0.034160,1.062864,1.400000,0.140000,-0.700000
27.623589,-0.154696,0.039040,1.002352,1.120000,4.200000,-1.260000
27.631676,-0.107848,0.004880,0.981368,-0.140000,-0.420000,-0.700000
27.639763,-0.040016,-0.023424,1.042368,1.960000,0.980000,-0.700000
27.647850,-0.151280,0.027816,0.985272,-0.420000,2.940000,-0.700000
27.655938,-0.091256,0.031720,1.013576,2.100000,1.960000,-0.980000
27.664025,-0.072224,-0.008784,0.961360,0.000000,-0.560000,-0.560000
27.672112,-0.091256,-0.017568,1.015040,1.120000,0.840000,-1.120000
27.680199,-0.136152,0.061976,0.992592,1.260000,1.120000,-0.700000
27.688286,-0.101016,0.020008,1.030656,0.420000,-0.420000,-0.840000
27.696373,-0.083448,-0.028792,1.012600,1.400000,0.140000,-0.700000
27.704461,-0.119072,0.011712,1.021872,1.400000,1.960000,-0.560000
27.712548,-0.120048,0.035624,0.965264,0.280000,1.960000,-0.980000
27.720635,-0.038552,-0.028792,1.014064,1.260000,-0.840000,-0.700000
27.728722,-0.108824,-0.005368,0.970144,1.260000,1.680000,-1.260000
27.736809,-0.122488,0.038552,1.018456,1.120000,0.980000,-0.560000
27.744897,-0.091744,0.012200,0.958920,0.140000,-0.980000,-0.560000
27.752984,-0.087352,-0.008296,1.035048,1.960000,-0.700000,-0.980000
27.761071,-0.137616,0.036112,0.984296,0.280000,0.420000,-0.560000
27.769158,-0.111264,-0.003416,1.009184,1.820000,-1.120000,-1.120000
27.777245,-0.062952,0.000488,1.020408,-1.120000,-0.980000,-0.420000
27.785332,-0.087840,0.003904,1.087264,2.380000,1.820000,-0.840000
27.793420,-0.186904,0.047336,0.910608,1.400000,1.540000,-1.120000
27.801507,-0.092720,-0.008784,0.948184,-0.840000,-3.640000,-0.420000
27.809594,-0.042456,-0.035624,1.034072,1.680000,-2.660000,-0.560000
27.817681,-0.115656,0.034648,0.980880,1.540000,-0.700000,-1.260000
27.825768,-0.107360,0.023912,0.966240,-0.980000,-1.120000,-0.560000
27.833856,-0.067344,-0.021472,1.071648,0.840000,-1.540000,-1.260000
27.841943,-0.103456,0.023912,0.987712,0.000000,-0.560000,-0.700000
27.850030,-0.133712,0.064904,1.059936,1.680000,-1.820000,-0.280000
27.858117,-0.136152,0.002440,0.996008,0.700000,-3.640000,-1.120000
27.866204,-0.067344,-0.025376,0.992592,1.260000,-2.520000,-0.420000
27.874292,-0.120048,0.024888,0.988688,-0.140000,-1.260000,-0.980000
27.882379,-0.043920,-0.004392,0.985272,0.840000,-3.640000,-0.840000
27.890466,-0.056608,-0.012688,1.044320,1.680000,-2.100000,-0.560000
27.898553,-0.120048,0.054656,0.999912,0.980000,-0.560000,-1.540000
27.906640,-0.106384,0.007808,0.958432,0.280000,-1.960000,-0.140000
27.914727,-0.083936,-0.035624,1.063352,1.680000,-2.520000,-0.560000
27.922815,-0.094184,0.029768,0.967704,0.420000,-0.420000,-0.840000
27.930902,-0.071736,0.012200,1.065304,0.840000,0.140000,-0.560000
27.938989,-0.089792,-0.013176,0.943304,0.420000,-0.560000,-1.120000
27.947076,-0.100528,0.017080,0.983320,1.960000,-2.100000,-0.700000
27.955163,-0.132248,0.036112,0.997960,0.560000,-1.400000,-0.980000
27.963251,-0.107848,0.005368,1.003328,-0.140000,-3.360000,-0.700000
27.971338,-0.043920,-0.014152,1.008208,1.120000,-2.940000,-0.420000
27.979425,-0.107848,0.014152,1.038952,2.100000,-1.540000,-0.840000
27.987512,-0.123952,0.041480,1.028704,-1.400000,0.000000,-0.560000
27.995599,-0.100528,-0.047824,0.963800,2.660000,-0.840000,-1.400000
28.003687,-0.056120,0.012200,0.937936,-0.140000,-2.240000,-0.700000
28.011774,-0.062464,0.009760,1.049200,0.700000,-0.980000,-0.700000
28.019861,-0.122000,0.033672,0.963800,0.840000,-2.940000,-0.840000
28.027948,-0.088816,-0.011712,1.006744,1.120000,-3.780000,-0.700000
28.036035,-0.087352,0.048800,1.068232,0.560000,-2.660000,-0.700000
28.044122,-0.131272,0.028304,1.035536,1.680000,-1.680000,-0.980000
28.052210,-0.094184,-0.012200,0.986248,0.140000,-2.800000,-0.700000
28.060297,-0.044408,-0.002440,1.059936,2.100000,-1.260000,-0.700000
28.068384,-0.096136,0.020984,0.974048,0.140000,0.560000,-0.980000
28.076471,-0.076616,-0.002440,0.960384,0.840000,-1.400000,-0.840000
28.084558,-0.073688,0.002928,1.067256,0.980000,-1.960000,-0.420000
28.092646,-0.068808,-0.000976,1.025288,1.400000,0.420000,-0.980000
28.100733,-0.121024,0.027328,0.932080,0.280000,0.140000,-1.120000
28.108820,-0.082960,-0.018544,1.021872,1.260000,-1.820000,-0.980000
28.116907,-0.082472,0.031232,0.995520,0.420000,-1.540000,-0.140000
28.124994,-0.099064,0.039528,1.077016,1.120000,-0.560000,-0.840000
28.133082,-0.107360,0.016592,0.968192,0.840000,-1.400000,-1.260000
28.141169,-0.056120,-0.046848,0.985272,1.680000,-2.100000,-0.420000
28.149256,-0.051728,-0.002928,1.024312,0.420000,-0.560000,-0.700000
28.157343,-0.136152,0.011712,0.970632,1.960000,1.680000,-1.260000
28.165430,-0.061000,0.021960,1.000888,-0.980000,-0.700000,-0.560000
28.173517,-0.062952,0.004880,0.989664,1.680000,-0.700000,-0.560000
28.181605,-0.149328,0.041968,0.975024,0.700000,-0.980000,-0.840000
28.189692,-0.079544,0.003416,1.014552,0.560000,-2.940000,-1.120000
28.197779,-0.027816,-0.005368,1.016992,0.560000,-3.360000,-0.280000
28.205866,-0.097112,0.010736,1.056032,2.240000,-0.280000,-1.120000
28.213953,-0.128344,0.042456,0.964288,0.000000,-1.540000,-0.560000
28.222041,-0.042944,-0.032208,1.105320,1.400000,-0.980000,-0.420000
28.230128,-0.068320,0.028304,1.003328,0.980000,0.840000,-1.400000
28.238215,-0.119560,0.010248,0.887184,0.700000,0.980000,-1.120000
28.246302,-0.102480,-0.000488,0.950136,0.700000,-4.200000,-1.260000
28.254389,-0.038064,0.001952,1.071648,0.700000,-4.060000,-0.560000
28.262477,-0.072712,0.020984,1.035536,0.840000,-0.980000,-0.420000
28.270564,-0.106384,0.024400,1.029680,1.120000,-0.140000,-0.980000
28.278651,-0.054656,-0.003416,0.987224,0.560000,-1.680000,-0.420000
28.286738,-0.060512,-0.014152,1.046760,1.820000,0.980000,-0.980000
28.294825,-0.144448,0.035136,0.953552,0.000000,0.280000,-0.560000
28.302912,-0.064416,0.006344,1.049688,1.400000,-0.840000,-0.840000
28.311000,-0.058560,-0.009760,0.972096,0.980000,-1.820000,-0.700000
28.319087,-0.067832,0.012200,1.035048,-0.140000,1.400000,-0.980000
28.327174,-0.131760,0.007808,0.915000,2.240000,-0.560000,-1.120000
28.335261,-0.050752,0.029280,0.983320,-1.260000,-3.920000,0.000000
28.343348,-0.064904,-0.010736,1.119960,2.100000,-1.400000,-1.120000
28.351436,-0.156160,0.039040,0.971608,0.560000,0.980000,-0.840000
28.359523,-0.059536,-0.015616,0.994544,0.420000,-1.960000,-1.260000
28.367610,-0.016104,-0.026352,0.943792,1.400000,-2.800000,-0.700000
28.375697,-0.079544,0.004392,1.036512,0.420000,-0.840000,-0.560000
28.383784,-0.134688,0.029280,0.990152,2.520000,0.420000,-1.400000
28.391872,-0.039528,0.041968,1.049688,-1.120000,-2.100000,-0.420000
28.399959,-0.061488,-0.023424,1.064328,1.820000,1.120000,-1.120000
28.408046,-0.182024,0.049288,0.913536,0.980000,-0.280000,-0.840000
28.416133,-0.086376,0.001464,1.012600,0.140000,-4.340000,-0.560000
28.424220,0.001952,-0.015616,1.039440,1.120000,-3.360000,-0.700000
28.432307,-0.080520,0.001464,1.058472,0.700000,0.700000,-1.260000
28.440395,-0.109312,0.009272,0.899384,1.960000,-0.700000,-0.560000
28.448482,-0.028304,0.018056,1.046272,-0.280000,-3.360000,-0.140000
28.456569,-0.087840,-0.003904,0.996984,1.960000,0.280000,-1.540000
28.464656,-0.123952,0.032208,0.995520,0.420000,-0.840000,-0.700000
28.472743,-0.056608,-0.002440,0.997960,0.560000,-2.240000,-0.560000
28.480831,-0.040992,0.012688,1.072624,0.840000,-1.400000,-0.980000
28.488918,-0.123952,0.023424,0.988688,1.540000,0.840000,-0.980000
28.497005,-0.087840,-0.016104,0.958432,-0.140000,-1.680000,-0.280000
28.505092,-0.020008,0.006832,1.029192,1.960000,-2.240000,-1.120000
28.513179,-0.085888,0.016104,1.007232,0.000000,0.000000,-0.840000
28.521266,-0.111752,0.003416,1.006744,1.960000,-0.280000,-1.120000
28.529354,-0.052216,0.019520,0.989176,-0.420000,-2.100000,-0.560000
28.537441,-0.041968,-0.006344,1.018944,1.680000,-1.400000,-1.120000
28.545528,-0.130784,0.046848,0.992592,-0.140000,-0.980000,-0.560000
28.553615,-0.064904,-0.004880,1.035048,2.800000,-2.240000,-0.700000
28.561702,-0.049776,0.011224,1.052616,-0.700000,-0.840000,-0.560000
28.569790,-0.121024,-0.001952,0.973072,1.820000,1.960000,-1.120000
28.577877,-0.089792,0.007808,0.936472,-0.420000,-1.680000,-0.420000
28.585964,-0.019032,-0.019520,1.058472,1.400000,-3.080000,-1.120000
28.594051,-0.051240,0.019520,0.965264,0.560000,-1.120000,-0.840000
28.602138,-0.086376,0.029280,1.057984,0.980000,0.140000,-0.700000
28.610226,-0.041968,0.007808,0.959408,0.840000,-2.660000,-1.120000
28.618313,-0.067344,0.028792,1.042856,1.680000,-1.960000,-0.700000
28.626400,-0.160552,0.034648,1.007232,0.840000,-1.260000,-0.840000
28.634487,-0.089304,-0.009272,1.026752,1.120000,-3.220000,-0.980000
28.642574,-0.019520,-0.023912,1.000400,0.560000,-2.520000,-0.700000
28.650662,-0.083448,0.020008,1.000888,0.840000,-0.280000,-0.560000
28.658749,-0.093208,0.009760,1.038952,1.120000,-0.420000,-1.400000
28.666836,-0.020008,-0.016104,0.997960,-0.140000,-2.520000,0.000000
28.674923,-0.053192,-0.003416,1.077992,2.240000,1.680000,-0.140000
28.683010,-0.052704,0.052704,0.900848,1.260000,1.680000,-1.540000
28.691097,-0.062952,-0.002440,0.966240,0.420000,-1.400000,-0.980000
28.699185,-0.062952,0.002440,1.051640,0.420000,0.000000,-1.120000
28.707272,-0.105896,0.032696,1.051152,1.820000,0.280000,-1.260000
28.715359,-0.103944,0.028304,0.949160,0.560000,-0.980000,-0.700000
28.723446,-0.033184,-0.030744,1.064328,0.280000,-2.240000,-0.560000
28.731533,-0.082472,0.010248,1.005768,2.660000,0.980000,-1.260000
28.739621,-0.108336,0.041968,1.012112,-1.260000,1.400000,-0.560000
28.747708,-0.005856,-0.037576,1.014064,1.820000,-1.120000,-0.980000
28.755795,-0.077104,-0.002928,0.969656,1.400000,1.540000,-0.700000
28.763882,-0.069784,0.028792,0.956480,0.140000,1.120000,-0.980000
28.771969,-0.064904,0.016592,1.033096,1.680000,-0.420000,-1.400000
28.780057,-0.034160,-0.003416,1.030168,-0.140000,-0.420000,-0.140000
28.788144,-0.087352,0.023424,1.076528,2.100000,3.780000,-1.540000
28.796231,-0.116144,0.040504,0.944280,0.280000,0.560000,-0.420000
28.804318,-0.005368,-0.027328,1.109712,0.420000,0.560000,-0.140000
28.812405,-0.072712,0.011712,0.967704,2.660000,4.200000,-1.540000
28.820493,-0.101992,0.031720,0.961360,-0.420000,2.940000,-0.560000
28.828580,-0.092232,-0.029280,0.997960,1.680000,0.980000,-1.120000
28.836667,-0.024888,-0.006832,0.967216,-0.700000,0.560000,-0.560000
28.844754,-0.094184,0.030256,1.083360,2.100000,2.100000,-1.680000
28.852841,-0.142984,0.061976,1.003328,0.140000,1.820000,-0.700000
28.860928,-0.009760,-0.014640,1.044808,0.280000,-0.140000,-0.420000
28.869016,-0.062952,-0.015128,1.025288,3.920000,2.240000,-1.400000
28.877103,-0.089304,0.037576,0.976000,-1.260000,4.480000,-0.420000
28.885190,-0.003416,-0.038064,1.005280,2.100000,3.500000,-1.260000
28.893277,-0.107360,0.019032,0.969656,1.400000,2.800000,-0.980000
28.901364,-0.083448,0.013664,1.028216,-0.420000,3.780000,-0.840000
28.909452,-0.082472,0.020496,0.950136,1.820000,1.960000,-1.120000
28.917539,-0.064904,0.013176,1.030656,0.140000,0.280000,-0.560000
28.925626,-0.055632,0.012688,1.070672,1.120000,3.360000,-0.840000
28.933713,-0.118096,0.048800,1.034072,0.840000,3.640000,-1.260000
28.941800,-0.052216,-0.036112,0.983808,1.260000,1.960000,-0.560000
28.949888,-0.035136,-0.011712,1.030168,1.820000,4.620000,-0.840000
28.957975,-0.085400,0.030256,0.974048,0.560000,5.320000,-0.840000
28.966062,-0.066856,0.012200,1.027240,-0.140000,3.920000,-0.560000
28.974149,-0.059536,-0.022936,0.946232,2.800000,4.200000,-1.120000
28.982236,-0.094672,0.047336,0.984784,-0.280000,2.940000,-0.420000
28.990324,-0.123464,0.015128,1.002840,1.960000,1.680000,-1.960000
28.998411,-0.063440,-0.002928,1.000400,0.140000,0.560000,-0.280000
29.006498,-0.014152,-0.009760,1.103856,0.980000,1.820000,-0.840000
29.014585,-0.097600,0.036600,0.995520,2.100000,5.460000,-0.980000
29.022672,-0.095160,0.015128,1.050664,-0.700000,5.460000,-0.840000
29.030760,-0.070272,-0.029768,0.899872,1.680000,4.200000,-1.120000
29.038847,-0.067344,0.000976,0.975512,1.400000,2.520000,-0.560000
29.046934,-0.074664,0.033672,1.010648,0.420000,5.460000,-1.400000
29.055021,-0.107360,0.024888,1.012600,-0.140000,3.500000,-0.840000
29.063108,-0.079056,0.000488,1.057496,1.540000,3.500000,-0.700000
29.071195,-0.108824,0.017080,1.022360,0.980000,3.920000,-1.260000
29.079283,-0.086864,0.002928,0.996008,1.120000,3.920000,-0.560000
29.087370,-0.026352,-0.015616,0.988200,0.280000,3.500000,-0.980000
29.095457,-0.076128,0.000488,1.010648,2.240000,4.900000,-1.260000
29.103544,-0.098088,0.013176,0.967216,0.420000,4.480000,-0.560000
29.111631,-0.068808,0.007808,0.987224,1.260000,4.480000,-0.840000
29.119719,-0.096624,0.029280,1.003328,0.840000,4.200000,-0.980000
29.127806,-0.089792,0.034160,1.087264,1.120000,4.340000,-0.700000
29.135893,-0.123464,0.010736,0.978928,1.540000,3.500000,-0.420000
29.143980,-0.056608,-0.003416,1.042368,0.700000,2.660000,-0.980000
29.152067,-0.084912,-0.021960,0.982344,2.380000,4.900000,-1.260000
29.160155,-0.095160,0.032208,0.954528,-1.260000,4.060000,-0.280000
29.168242,-0.068320,-0.022936,0.976000,2.520000,3.360000,-1.540000
29.176329,-0.103456,0.039040,0.951112,-0.420000,1.680000,-0.560000
29.184416,-0.063440,0.016104,1.109712,0.700000,2.240000,-0.700000
29.192503,-0.075152,0.019032,0.974048,1.820000,2.800000,-1.400000
29.200591,-0.069784,-0.002440,1.035536,0.840000,2.520000,-0.700000
29.208678,-0.129320,0.020008,1.040904,1.260000,3.780000,-0.980000
29.216765,-0.108336,0.024888,1.013576,1.400000,4.480000,-0.700000
29.224852,-0.095160,-0.038552,0.927688,0.700000,2.660000,-0.980000
29.232939,-0.061000,-0.010736,0.959896,-0.700000,3.080000,-0.980000
29.241026,-0.076616,0.009272,1.035536,2.240000,3.360000,-0.980000
29.249114,-0.072224,0.025864,1.007232,-0.980000,4.060000,-0.700000
29.257201,-0.062952,-0.009760,1.019920,2.800000,5.180000,-1.260000
29.265288,-0.183000,0.091744,1.028216,0.000000,4.340000,-0.420000
29.273375,-0.132248,0.000976,0.985272,1.400000,2.100000,-1.120000
29.281462,-0.093696,-0.033184,0.972096,1.400000,1.120000,-0.700000
29.289550,-0.030256,0.000976,1.027728,-0.140000,2.240000,-0.560000
29.297637,-0.093208,0.019032,0.998448,1.820000,4.200000,-1.260000
29.305724,-0.090280,0.007808,0.983808,-0.420000,4.480000,-0.840000
29.313811,-0.052704,-0.020984,0.965264,2.240000,1.680000,-0.840000
29.321898,-0.084912,0.043920,1.091656,0.840000,3.920000,-0.840000
29.329986,-0.139080,0.032208,1.017480,0.980000,5.880000,-1.400000
29.338073,-0.117608,-0.009272,0.957456,-0.420000,2.940000,-0.140000
29.346160,-0.065880,-0.000976,1.077992,3.080000,2.380000,-1.260000
29.354247,-0.115168,0.039528,0.953064,-0.280000,4.480000,-0.280000
29.362334,-0.083936,-0.017080,1.009184,0.980000,4.060000,-1.260000
29.370422,-0.074664,-0.020984,0.919392,2.800000,2.520000,-0.980000
29.378509,-0.076616,0.051728,1.068720,-1.260000,3.360000,0.000000
29.386596,-0.132736,0.002928,1.015528,3.360000,5.040000,-1.680000
29.394683,-0.118096,0.025376,0.957944,-1.120000,2.660000,-0.420000
29.402770,-0.089304,-0.015128,1.113616,1.820000,3.080000,-0.840000
29.410857,-0.115168,0.012688,0.908168,1.260000,3.780000,-0.420000
29.418945,-0.054656,0.025376,0.954040,0.140000,1.540000,-0.980000
29.427032,-0.138104,-0.029280,1.016992,3.080000,1.400000,-1.960000
29.435119,-0.098088,0.019032,1.013576,-1.400000,2.660000,0.700000
29.443206,-0.083936,0.022448,1.104344,1.680000,5.320000,-1.540000
29.451293,-0.151280,0.028304,0.922320,1.400000,3.080000,-0.980000
29.459381,-0.021960,-0.006832,1.109712,-1.260000,2.660000,0.420000
29.467468,-0.098088,0.014640,0.996984,4.480000,5.880000,-2.240000
29.475555,-0.137616,0.019520,0.925736,-0.840000,4.340000,-0.420000
29.483642,-0.089304,-0.049288,0.987712,2.100000,2.660000,-1.260000
29.491729,-0.127368,0.048800,0.969168,0.000000,2.660000,-0.560000
29.499817,-0.140544,0.057096,1.052128,0.700000,0.980000,-0.980000
29.507904,-0.131760,-0.019520,0.996008,1.400000,0.420000,-1.260000
29.515991,-0.040504,0.012688,1.058472,-0.140000,0.420000,0.280000
29.524078,-0.121024,0.022936,1.038952,3.220000,3.360000,-1.400000
29.532165,-0.140056,0.013176,0.953552,-1.120000,3.080000,-0.980000
29.540253,-0.020984,-0.047336,0.983808,2.520000,1.260000,-0.280000
29.548340,-0.134200,0.026352,0.985760,1.820000,3.780000,-1.540000
29.556427,-0.126392,0.009272,0.936960,-2.380000,2.520000,-0.560000
29.564514,-0.047336,-0.030256,1.071648,3.360000,0.420000,-1.120000
29.572601,-0.084424,0.051240,0.994544,0.280000,3.360000,-0.420000
29.580688,-0.104920,0.011224,1.056032,0.140000,5.460000,-0.980000
29.588776,-0.144448,0.020496,0.897920,2.520000,2.660000,-1.120000
29.596863,-0.115168,0.022448,1.070672,0.140000,0.140000,-0.280000
29.604950,-0.102480,-0.016104,1.027728,2.100000,1.680000,-1.400000
29.613037,-0.101504,0.024888,0.984296,0.140000,1.820000,-0.280000
29.621124,-0.069784,-0.017080,1.027240,1.540000,3.080000,-1.260000
29.629212,-0.083936,0.020496,0.989664,0.560000,2.520000,-0.700000
29.637299,-0.129320,0.018056,1.019432,0.980000,5.180000,-0.840000
29.645386,-0.111264,0.004880,0.928176,1.540000,2.660000,-1.260000
29.653473,-0.035624,-0.001952,1.074576,-0.280000,2.100000,-0.560000
29.661560,-0.141520,0.016104,1.032120,2.520000,6.440000,-0.840000
29.669648,-0.196176,0.040016,0.962336,0.000000,4.620000,-0.840000
29.677735,-0.098576,-0.023912,0.968192,1.400000,2.100000,-1.260000
29.685822,-0.063440,-0.001464,0.992104,0.280000,2.660000,-0.560000
29.693909,-0.105408,0.023424,0.997960,0.560000,2.380000,-0.980000
29.701996,-0.125416,0.018056,1.023824,1.960000,2.940000,-1.120000
29.710083,-0.079544,0.024888,1.034560,-0.700000,2.100000,0.000000
29.718171,-0.142008,0.001952,1.048224,2.660000,5.040000,-1.120000
29.726258,-0.157136,0.033184,0.943304,-0.280000,3.220000,-0.980000
29.734345,-0.076128,-0.034648,1.018456,1.540000,2.240000,-0.840000
29.742432,-0.122976,0.039528,1.003328,0.840000,2.660000,-0.420000
29.750519,-0.118096,0.004392,0.959408,0.420000,3.080000,-1.260000
29.758607,-0.093208,-0.018056,0.929152,2.240000,1.400000,-1.400000
29.766694,-0.058560,0.002440,1.060912,-1.400000,1.680000,0.140000
29.774781,-0.143960,0.008296,1.048224,3.080000,4.900000,-1.680000
29.782868,-0.182512,0.045384,0.965264,-0.700000,3.080000,-0.700000
29.790955,-0.073200,-0.020496,1.063840,1.820000,1.120000,-0.420000
29.799043,-0.113704,0.030256,0.959896,1.400000,2.940000,-0.980000
29.807130,-0.110288,-0.003904,0.985760,0.980000,3.080000,-1.260000
29.815217,-0.105896,-0.012200,0.947696,0.700000,2.520000,-0.420000
29.823304,-0.062952,0.015616,1.079944,0.840000,2.520000,-0.700000
29.831391,-0.149328,0.035136,0.932568,1.680000,4.760000,-1.120000
29.839479,-0.089304,0.001952,1.032120,-0.700000,1.960000,0.000000
29.847566,-0.087840,0.005856,1.036024,2.380000,2.800000,-1.540000
29.855653,-0.185440,0.058072,1.033096,0.420000,3.640000,-0.700000
29.863740,-0.145424,-0.019032,0.982832,1.680000,2.380000,-1.120000
29.871827,-0.108336,0.009272,0.947208,1.260000,0.560000,-0.840000
29.879914,-0.078568,-0.003416,1.045784,0.560000,2.240000,-0.560000
29.888002,-0.120048,0.005856,0.983808,0.420000,4.060000,-1.260000
29.896089,-0.109312,-0.002928,0.962824,2.100000,2.100000,-0.840000
29.904176,-0.097112,0.010736,1.075552,0.420000,2.520000,-0.560000
29.912263,-0.128832,0.018056,0.929152,0.840000,4.760000,-0.980000
29.920350,-0.134200,0.031720,0.986736,0.840000,2.240000,-0.840000
29.928438,-0.125904,0.028792,1.040416,0.280000,1.260000,-0.840000
29.936525,-0.119072,0.006832,1.118008,1.260000,3.500000,-0.560000
29.944612,-0.162992,0.024400,0.947208,0.980000,5.040000,-1.120000
29.952699,-0.099552,-0.020984,1.003816,0.420000,2.100000,-0.560000
29.960786,-0.072712,-0.019520,0.960384,1.120000,3.500000,-1.120000
29.968874,-0.150304,0.026840,0.938424,0.560000,3.080000,-0.840000
29.976961,-0.128344,0.002928,1.033096,1.680000,1.400000,-0.980000
29.985048,-0.058560,0.018544,1.015528,-0.280000,1.960000,-0.700000
29.993135,-0.115168,-0.001952,1.039440,1.820000,4.480000,-0.840000
30.001222,-0.177632,0.045384,0.961848,0.700000,4.620000,-1.260000
30.009310,-0.112240,-0.001952,0.982832,1.540000,0.560000,-0.980000
30.017397,-0.128832,0.011712,1.028704,-0.280000,2.520000,0.000000
30.025484,-0.156160,0.000488,1.026752,1.400000,3.080000,-1.260000
30.033571,-0.134200,0.008296,0.915488,1.260000,1.120000,-0.980000
30.041658,-0.052704,-0.025376,1.061400,0.280000,1.820000,-0.420000
30.049745,-0.125416,0.022936,0.949648,1.540000,4.060000,-1.680000
30.057833,-0.156648,0.022936,0.955504,0.700000,2.520000,-0.700000
30.065920,-0.118096,-0.000488,1.081408,0.840000,0.000000,-0.700000
30.074007,-0.062464,0.009760,1.008208,1.400000,3.780000,-0.560000
30.082094,-0.168360,0.055144,1.007720,1.260000,4.060000,-1.260000
30.090181,-0.122488,0.000000,0.950624,0.140000,1.540000,-0.840000
30.098269,-0.080520,-0.028792,1.064816,1.400000,2.660000,-0.280000
30.106356,-0.187880,0.061000,0.955992,0.980000,4.900000,-1.540000
30.114443,-0.149328,0.012200,1.019432,0.420000,0.980000,-0.560000
30.122530,-0.094672,-0.038064,1.043832,1.820000,2.240000,-0.700000
30.130617,-0.127856,0.029280,0.953064,0.000000,3.500000,-0.700000
30.138705,-0.164456,0.001464,0.926712,1.960000,2.520000,-1.680000
30.146792,-0.121512,0.002440,1.020408,-0.980000,-0.420000,-0.140000
30.154879,-0.063440,-0.012200,1.021384,1.680000,1.260000,-0.840000
30.162966,-0.203008,0.087840,0.988200,1.540000,1.820000,-1.400000
30.171053,-0.105408,-0.005856,0.976000,-0.840000,-0.700000,-0.420000
30.179140,-0.099552,-0.046848,1.066768,2.380000,0.560000,-1.260000
30.187228,-0.150304,0.045872,0.966240,0.140000,2.940000,-0.420000
30.195315,-0.120048,0.021960,1.031144,1.400000,0.840000,0.000000
30.203402,-0.116144,-0.005368,0.985760,0.980000,-0.420000,-1.400000
30.211489,-0.159088,-0.006344,0.996984,1.260000,1.540000,-1.120000
30.219576,-0.176656,0.021472,0.925248,0.560000,-0.420000,-0.700000
30.227664,-0.046360,-0.005856,1.098488,0.840000,-1.960000,-0.420000
30.235751,-0.114192,0.007808,0.952576,1.680000,3.080000,-1.400000
30.243838,-0.167872,0.022936,0.957944,0.140000,1.400000,-0.840000
30.251925,-0.098088,-0.003416,1.037488,0.700000,-0.840000,-1.120000
30.260012,-0.116144,-0.001464,0.976488,1.120000,0.000000,-0.280000
30.268100,-0.153232,0.040016,1.051152,1.120000,2.520000,-0.700000
30.276187,-0.135176,0.042944,0.970632,0.420000,-0.560000,-1.400000
30.284274,-0.105408,-0.039040,1.022848,0.280000,-1.540000,-0.280000
30.292361,-0.144936,0.020496,1.047736,1.960000,1.960000,-1.120000
30.300448,-0.135664,0.034160,0.951112,0.560000,0.560000,-0.700000
30.308536,-0.071736,-0.017568,1.103856,0.420000,0.980000,-0.420000
30.316623,-0.153232,0.015616,0.931592,1.260000,3.640000,-1.820000
30.324710,-0.162016,0.011712,0.967704,0.840000,-0.140000,0.000000
30.332797,-0.099552,0.012688,1.012600,0.840000,-0.560000,-0.840000
30.340884,-0.118584,-0.026840,0.961848,1.960000,0.560000,-0.980000
30.348971,-0.124440,0.026352,1.025288,-0.840000,1.960000,-0.420000
30.357059,-0.130296,0.008296,1.003816,2.380000,1.680000,-1.120000
30.365146,-0.114192,-0.013176,0.970632,-0.140000,0.560000,-0.560000
30.373233,-0.137616,0.014152,0.977952,1.400000,1.260000,-1.120000
30.381320,-0.168360,0.054656,1.021872,1.400000,-0.280000,-0.700000
30.389407,-0.083448,-0.017080,1.035048,0.980000,-0.560000,-0.700000
30.397495,-0.124440,0.004880,1.062864,1.540000,2.380000,-0.980000
30.405582,-0.141520,0.040016,0.959896,-0.280000,2.100000,-0.420000
30.413669,-0.140056,-0.002928,0.983808,2.380000,0.140000,-1.260000
30.421756,-0.124440,-0.018544,0.988200,-0.140000,0.280000,-0.560000
30.429843,-0.121024,0.011224,1.031144,1.680000,2.660000,-0.700000
30.437931,-0.143472,0.034160,0.979416,0.420000,1.680000,-1.120000
30.446018,-0.102480,-0.014640,0.955016,0.560000,-0.420000,-0.560000
30.454105,-0.104920,-0.002440,1.050176,1.400000,0.420000,-0.980000
30.462192,-0.146400,0.043920,0.978928,0.560000,1.960000,-0.980000
30.470279,-0.114192,-0.002440,1.001376,0.140000,0.560000,-0.840000
30.478366,-0.116144,0.004392,0.976976,2.100000,-0.280000,-0.700000
30.486454,-0.150304,0.061976,1.073112,0.560000,0.140000,-0.560000
30.494541,-0.129808,-0.006344,0.975512,0.840000,1.960000,-1.260000
30.502628,-0.118584,-0.034160,1.019920,0.980000,1.680000,-0.420000
30.510715,-0.128832,0.034160,1.023824,1.120000,2.380000,-0.980000
30.518802,-0.144936,0.026840,0.965264,1.120000,1.960000,-0.560000
30.526890,-0.130784,-0.009272,1.019432,0.000000,0.980000,-0.840000
30.534977,-0.114192,-0.011712,0.969656,2.240000,1.120000,-0.840000
30.543064,-0.120536,0.016592,0.974536,0.420000,1.680000,-0.420000
30.551151,-0.155184,-0.001464,0.958920,0.840000,2.100000,-1.540000
30.559238,-0.093208,0.005856,1.017968,0.140000,0.000000,-0.840000
30.567326,-0.122488,0.034160,1.017480,1.540000,2.240000,-0.840000
30.575413,-0.170800,0.030256,1.018456,0.280000,1.400000,-0.700000
30.583500,-0.099064,-0.037088,0.974536,1.260000,-0.140000,-0.840000
30.591587,-0.120536,0.026840,1.083848,1.540000,1.680000,-0.420000
30.599674,-0.170800,0.063440,0.996984,-0.280000,2.520000,-0.980000
30.607762,-0.122976,-0.033184,0.948672,2.100000,0.280000,-1.120000
30.615849,-0.142008,0.001464,1.000400,-0.280000,0.140000,-0.560000
30.623936,-0.119072,0.020008,1.029192,1.540000,1.260000,-0.420000
30.632023,-0.137616,0.009272,0.970632,0.980000,1.260000,-1.400000
30.640110,-0.062952,-0.023912,0.978928,0.280000,-0.280000,-0.560000
30.648198,-0.142496,0.018056,1.069208,1.960000,2.940000,-0.700000
30.656285,-0.169336,0.031720,0.978440,-0.140000,2.520000,-0.980000
30.664372,-0.089304,-0.019032,0.988200,2.100000,1.260000,-0.560000
30.672459,-0.141032,0.051728,1.006256,0.840000,1.120000,-0.980000
30.680546,-0.180560,0.019520,1.030656,0.420000,1.400000,-0.700000
30.688633,-0.136152,-0.004392,0.935984,1.400000,0.980000,-0.840000
30.696721,-0.105896,-0.002928,1.044808,0.000000,-1.120000,-0.700000
30.704808,-0.135664,0.018056,0.987712,2.100000,2.100000,-0.980000
30.712895,-0.149328,0.010248,1.010160,0.420000,0.420000,-0.420000
30.720982,-0.111264,-0.006832,0.975512,0.700000,0.000000,-1.120000
30.729069,-0.095160,0.019032,1.052128,1.260000,0.980000,-0.560000
30.737157,-0.123952,0.011712,0.976976,0.280000,2.940000,-1.120000
30.745244,-0.157624,-0.018056,0.915000,2.660000,0.700000,-0.980000
30.753331,-0.098576,0.026840,1.063840,-1.120000,0.980000,0.000000
30.761418,-0.111264,0.024400,0.983320,2.240000,2.660000,-1.540000
30.769505,-0.187880,0.019032,0.967704,0.280000,1.260000,-0.560000
30.777593,-0.118096,0.015128,1.056520,0.420000,-0.560000,-0.700000
30.785680,-0.117120,0.000976,1.025776,1.540000,1.680000,-0.560000
30.793767,-0.154696,0.021960,0.987224,1.680000,0.840000,-0.980000
30.801854,-0.138104,-0.008784,0.992592,0.560000,-0.700000,-0.840000
30.809941,-0.122488,0.008784,0.982832,1.120000,1.120000,-0.840000
30.818029,-0.169824,0.014640,0.990152,0.140000,1.260000,-0.840000
30.826116,-0.093696,-0.000976,0.987224,1.960000,-0.420000,-1.120000
30.834203,-0.104920,-0.004392,1.064816,0.420000,1.540000,-0.280000
30.842290,-0.153720,0.015616,1.025288,0.000000,5.740000,-1.540000
30.850377,-0.120536,-0.001464,0.821792,1.540000,2.660000,-0.980000
30.858465,-0.119560,0.012200,1.035048,-0.700000,-0.700000,0.140000
30.866552,-0.119560,0.001952,1.017968,2.660000,1.120000,-1.260000
30.874639,-0.205936,0.041968,0.961848,0.980000,1.540000,-0.840000
30.882726,-0.117120,-0.005856,0.998936,0.280000,-2.660000,-0.700000
30.890813,-0.085888,0.003416,1.087264,1.400000,-0.420000,-0.700000
30.898900,-0.169336,0.038064,0.982832,1.820000,2.240000,-1.260000
30.906988,-0.118096,0.009760,1.029680,-0.140000,0.700000,-0.980000
30.915075,-0.089792,-0.024888,1.030168,1.260000,0.980000,-0.700000
30.923162,-0.164456,0.035136,0.968680,1.680000,3.360000,-0.700000
30.931249,-0.143472,0.019520,0.988200,0.700000,1.540000,-1.400000
30.939336,-0.097600,-0.028304,0.987224,-0.280000,1.260000,-0.280000
30.947424,-0.127856,-0.005856,1.057984,1.960000,3.640000,-0.560000
30.955511,-0.159576,0.058560,0.959408,0.420000,4.200000,-1.680000
30.963598,-0.082960,-0.003416,1.032120,0.560000,2.240000,-0.700000
30.971685,-0.122976,-0.014640,0.987712,1.120000,3.080000,-0.980000
30.979772,-0.187392,0.020984,0.976000,1.680000,4.200000,-0.840000
30.987860,-0.161528,0.043920,0.967216,0.140000,1.960000,-0.280000
30.995947,-0.094672,-0.019032,1.067744,0.980000,0.980000,-0.840000
31.004034,-0.148840,0.011224,0.976488,1.400000,3.780000,-1.120000
31.012121,-0.174704,0.014640,1.015528,0.000000,3.640000,-0.700000
31.020208,-0.102480,-0.026840,0.952088,1.120000,0.280000,-0.840000
31.028296,-0.116632,0.013176,1.010648,0.980000,1.960000,-0.700000
31.036383,-0.164456,0.038064,0.968680,0.560000,3.220000,-0.980000
31.044470,-0.125904,0.015616,1.018456,0.980000,1.260000,-0.840000
31.052557,-0.092232,-0.005368,1.010648,0.420000,1.400000,-0.980000
31.060644,-0.162992,0.027328,0.992592,1.540000,3.640000,-0.700000
31.068731,-0.152256,0.033672,1.023824,1.400000,1.400000,-0.700000
31.076819,-0.098576,-0.043920,0.976000,0.560000,1.260000,-0.560000
31.084906,-0.164456,0.011712,1.054568,1.540000,4.200000,-0.840000
31.092993,-0.170312,0.062952,0.949160,0.840000,2.380000,-1.260000
31.101080,-0.079056,-0.013664,1.067256,-0.140000,0.140000,-0.140000
31.109167,-0.165920,-0.000976,1.011136,2.240000,4.480000,-1.960000
31.117255,-0.190808,0.019032,0.886696,0.840000,2.100000,-0.280000
31.125342,-0.096624,0.000976,1.054080,-0.420000,0.980000,-0.420000
31.133429,-0.133712,-0.019520,0.961360,2.940000,1.540000,-1.680000
31.141516,-0.168848,0.041968,1.013088,-1.260000,2.240000,0.140000
31.149603,-0.078568,-0.009760,1.005280,1.820000,0.560000,-1.540000
31.157691,-0.116632,-0.009272,0.945744,0.980000,0.840000,-0.700000
31.165778,-0.136640,0.033672,1.057984,0.280000,3.780000,-0.700000
31.173865,-0.153720,0.001464,0.948672,1.960000,3.220000,-1.120000
31.181952,-0.150792,0.018544,1.039440,0.000000,2.240000,-0.140000
31.190039,-0.149328,0.013176,0.992592,1.820000,2.800000,-1.540000
31.198127,-0.154696,0.020008,1.023336,0.560000,2.240000,-0.840000
31.206214,-0.122976,-0.003904,1.004792,-0.280000,3.080000,-0.840000
31.214301,-0.139568,0.003416,1.001864,3.080000,2.800000,-0.700000
31.222388,-0.151280,0.072712,1.024800,-0.140000,3.920000,-0.700000
31.230475,-0.132736,-0.026840,1.017480,1.540000,2.660000,-0.980000
31.238563,-0.152256,-0.011224,1.001376,1.540000,3.780000,-0.560000
31.246650,-0.131272,0.011224,0.971608,-0.140000,4.480000,-0.980000
31.254737,-0.146400,0.009760,0.982344,2.380000,3.640000,-0.980000
31.262824,-0.125416,-0.011224,0.996496,-1.260000,2.520000,-0.840000
31.270911,-0.151768,0.008296,1.004304,2.660000,5.320000,-0.560000
31.278998,-0.181048,0.054656,0.951112,-0.560000,3.920000,-1.260000
31.287086,-0.124928,0.000976,0.992104,0.700000,0.280000,-1.120000
31.295173,-0.139080,0.006832,1.022848,2.380000,0.840000,-0.700000
31.303260,-0.154696,0.056120,0.991616,0.000000,2.800000,-0.700000
31.311347,-0.123952,-0.057584,1.022360,1.260000,1.540000,-1.120000
31.319434,-0.122488,0.011224,0.979416,0.980000,3.500000,-0.700000
31.327522,-0.158112,0.059536,1.044320,0.840000,4.060000,-0.560000
31.335609,-0.182024,-0.010736,0.998448,1.400000,3.920000,-1.680000
31.343696,-0.105896,0.005856,0.979416,-0.840000,2.100000,-0.140000
31.351783,-0.168360,0.007320,1.050664,3.500000,4.620000,-0.980000
31.359870,-0.183976,0.042456,0.953064,-0.840000,4.340000,-1.400000
31.367958,-0.110288,-0.035624,0.988688,1.400000,2.240000,-0.420000
31.376045,-0.163968,0.004880,0.989664,1.120000,3.780000,-1.120000
31.384132,-0.174704,0.023424,0.962336,0.140000,3.220000,-0.700000
31.392219,-0.116632,0.004880,1.034072,0.700000,2.240000,-0.840000
31.400306,-0.095648,-0.020496,0.972584,1.540000,2.940000,-0.840000
31.408394,-0.179584,0.060512,0.997960,1.680000,4.200000,-0.700000
31.416481,-0.149816,-0.007320,0.983808,-0.420000,2.520000,-1.120000
31.424568,-0.145912,-0.009272,1.038464,2.240000,4.340000,-0.980000
31.432655,-0.173240,0.040504,1.000888,0.140000,4.340000,-0.700000
31.440742,-0.138104,0.009272,0.962336,0.980000,3.360000,-0.840000
31.448830,-0.151280,-0.002440,1.033096,1.680000,3.360000,-0.560000
31.456917,-0.140544,0.033184,1.023824,0.420000,4.620000,-0.980000
31.465004,-0.163968,-0.004392,1.003816,1.820000,5.180000,-0.980000
31.473091,-0.151768,-0.010736,0.970144,0.420000,4.760000,-0.980000
31.481178,-0.125416,0.023912,1.029680,1.680000,5.460000,-0.420000
31.489265,-0.204960,0.035136,1.028704,0.980000,6.160000,-0.840000
31.497353,-0.163968,-0.024400,0.933056,0.140000,5.460000,-0.980000
31.505440,-0.098088,-0.011224,0.983320,1.680000,3.780000,-0.700000
31.513527,-0.180072,0.038064,0.999912,0.700000,4.340000,-1.120000
31.521614,-0.186416,-0.004392,0.973560,0.700000,4.340000,-1.260000
31.529701,-0.113704,-0.022448,0.955016,1.120000,2.520000,-0.700000
31.537789,-0.146888,0.048312,1.020408,1.540000,3.080000,-0.560000
31.545876,-0.177632,0.023424,1.037000,1.120000,5.880000,-1.400000
31.553963,-0.121512,-0.011712,0.970632,0.000000,3.500000,-0.420000
31.562050,-0.159576,0.023424,1.042368,2.800000,4.620000,-0.840000
31.570137,-0.212768,0.029280,0.987224,-0.420000,6.580000,-1.260000
31.578225,-0.141032,0.003416,0.968192,1.120000,3.780000,-0.700000
31.586312,-0.153720,0.018056,1.040416,1.540000,4.480000,-0.840000
31.594399,-0.182512,0.039040,0.995520,-0.560000,5.600000,-1.400000
31.602486,-0.158112,-0.039040,0.971608,2.520000,5.180000,-0.980000
31.610573,-0.166896,0.005368,1.016992,0.420000,4.060000,-0.560000
31.618661,-0.164944,0.039528,0.992104,0.700000,5.320000,-0.700000
31.626748,-0.164944,-0.005368,0.978440,1.540000,5.040000,-1.120000
31.634835,-0.122488,-0.004880,0.973560,0.420000,3.080000,-0.840000
31.642922,-0.162016,0.005856,1.077992,1.680000,5.740000,-0.700000
31.651009,-0.223016,0.046848,0.913048,0.700000,5.040000,-1.260000
31.659097,-0.150304,-0.025376,0.974048,1.120000,1.960000,-0.700000
31.667184,-0.167384,0.012200,1.002352,0.840000,3.920000,-1.120000
31.675271,-0.188368,0.003904,0.995520,1.120000,5.320000,-0.700000
31.683358,-0.154696,0.016104,0.994056,0.000000,4.480000,-0.840000
31.691445,-0.107360,0.011712,1.011624,1.820000,3.220000,-0.980000
31.699532,-0.199104,0.031232,1.019432,0.560000,6.300000,-0.420000
31.707620,-0.179584,-0.001464,0.947208,0.840000,4.480000,-1.540000
31.715707,-0.146888,-0.001952,1.028704,1.820000,3.640000,-0.420000
31.723794,-0.176656,0.037576,1.046760,0.560000,6.020000,-1.400000
31.731881,-0.206424,0.011712,0.926224,1.400000,5.740000,-0.840000
31.739968,-0.158112,-0.025376,1.038464,0.980000,3.920000,-0.560000
31.748056,-0.149816,0.025376,0.974048,0.980000,5.040000,-0.980000
31.756143,-0.208864,0.031720,1.030168,0.700000,6.160000,-0.980000
31.764230,-0.175680,-0.026352,0.902800,1.400000,3.920000,-1.680000
31.772317,-0.147864,0.027816,1.006256,1.260000,2.100000,-0.140000
31.780404,-0.196664,0.032696,0.979416,0.140000,4.060000,-1.260000
31.788492,-0.230336,-0.016104,0.933544,1.120000,3.500000,-1.120000
31.796579,-0.084912,0.006344,1.066280,0.420000,0.280000,-0.560000
31.804666,-0.194224,0.004392,0.959408,1.680000,4.900000,-0.980000
31.812753,-0.243512,0.016592,0.902800,0.560000,2.940000,-1.120000
31.820840,-0.102480,-0.003904,1.071160,-0.560000,0.980000,-0.560000
31.828928,-0.175192,0.031720,0.975024,2.940000,5.040000,-0.700000
31.837015,-0.221552,0.043920,0.979416,-0.140000,2.380000,-0.980000
31.845102,-0.136152,-0.005368,1.053104,1.120000,2.100000,-1.400000
31.853189,-0.185440,-0.000976,0.999424,1.960000,3.780000,-0.700000
31.861276,-0.222528,0.036600,1.000888,0.280000,4.480000,-0.980000
31.869364,-0.166896,0.008296,0.942328,1.400000,1.680000,-0.840000
31.877451,-0.144448,-0.021960,1.046272,0.700000,2.100000,-0.560000
31.885538,-0.195200,0.033672,0.997960,0.980000,4.900000,-1.680000
31.893625,-0.199592,0.006344,0.955504,2.380000,2.240000,-0.280000
31.901712,-0.158600,-0.025864,1.053592,-0.560000,2.940000,-0.700000
31.909799,-0.174216,0.020008,0.906704,2.100000,4.340000,-0.980000
31.917887,-0.217648,0.028304,0.952088,1.120000,2.380000,-0.840000
31.925974,-0.161528,-0.023424,0.939888,0.560000,-1.820000,-1.120000
31.934061,-0.217648,0.010248,0.965264,0.420000,-1.680000,-0.700000
31.942148,-0.256200,0.041480,0.951112,1.540000,-3.080000,-1.120000
31.950235,-0.188856,0.027816,0.982344,0.140000,-5.880000,-0.280000
31.958323,-0.101504,-0.019520,1.075064,0.840000,-4.200000,-0.840000
31.966410,-0.199592,0.026352,0.986736,0.140000,-1.540000,-0.700000
31.974497,-0.202032,0.008784,0.972096,2.240000,-3.360000,-0.840000
31.982584,-0.166408,-0.014152,1.009672,-0.700000,-3.360000,-0.980000
31.990671,-0.189344,0.021472,0.980880,0.980000,-2.660000,-0.560000
31.998759,-0.173728,0.041968,0.996008,2.800000,-3.640000,-0.980000
32.006846,-0.141520,-0.010736,1.026264,-0.980000,-3.360000,-0.700000
32.014933,-0.184952,0.004880,0.990152,1.680000,-0.700000,-0.980000
32.023020,-0.181048,0.026352,0.962824,1.120000,-3.360000,-0.420000
32.031107,-0.193248,-0.002440,1.037976,0.980000,-2.800000,-0.420000
32.039195,-0.153720,-0.016592,1.002352,0.280000,-0.700000,-1.400000
32.047282,-0.170800,0.042456,0.954528,0.840000,-1.400000,-1.120000
32.055369,-0.178608,-0.032696,0.980392,1.680000,-3.360000,-0.280000
32.063456,-0.141032,0.027816,1.042368,0.280000,-0.560000,-0.840000
32.071543,-0.163480,0.024888,0.973072,1.820000,0.140000,-1.120000
32.079631,-0.214232,0.002928,1.003328,-0.420000,-2.100000,-0.420000
32.087718,-0.110776,-0.026352,0.931592,1.820000,-2.520000,-0.560000
32.095805,-0.178608,0.037088,0.986248,2.240000,-1.400000,-0.840000
32.103892,-0.203008,0.020984,0.969168,-1.820000,-2.100000,-1.120000
32.111979,-0.141032,-0.040016,1.030168,1.260000,-1.680000,-0.840000
32.120067,-0.169336,0.053680,0.964288,0.980000,-3.080000,-0.420000
32.128154,-0.200568,0.047824,1.027728,1.260000,-3.220000,-0.700000
32.136241,-0.194224,0.024400,1.028216,0.280000,-3.640000,-1.120000
32.144328,-0.119072,-0.057096,0.966240,1.680000,-2.380000,-0.420000
32.152415,-0.192760,0.061488,1.054080,0.980000,-1.260000,-0.840000
32.160502,-0.141032,0.003416,0.964288,-0.140000,-2.660000,-0.980000
32.168590,-0.165920,-0.026840,1.004304,2.100000,-1.960000,-0.560000
32.176677,-0.201544,0.026840,1.009672,0.280000,-0.560000,-0.560000
32.184764,-0.152256,0.040016,0.963312,1.260000,-2.100000,-1.120000
32.192851,-0.155672,-0.033672,1.009672,0.840000,-2.100000,-0.420000
32.200938,-0.164944,0.015128,0.976488,0.700000,-0.980000,-0.980000
32.209026,-0.174216,0.020008,1.006256,1.540000,-1.120000,-0.840000
32.217113,-0.158600,0.014152,1.031144,-1.120000,-0.280000,-0.560000
32.225200,-0.111752,-0.013176,0.972584,2.940000,-0.980000,-0.840000
32.233287,-0.231800,0.028304,0.972584,0.700000,0.700000,-0.840000
32.241374,-0.190320,0.003904,0.945744,-1.400000,-0.140000,-0.840000
32.249462,-0.095648,-0.018056,1.074088,3.220000,-1.960000,-0.980000
32.257549,-0.161528,0.054656,0.993568,-1.540000,0.700000,-0.560000
32.265636,-0.192272,-0.001464,0.997472,2.800000,0.700000,-0.700000
32.273723,-0.179584,0.029280,0.959408,0.000000,-0.280000,-0.840000
32.281810,-0.172752,-0.013664,1.007232,0.560000,-0.700000,-1.120000
32.289898,-0.179096,0.026352,1.022848,1.820000,-0.280000,-0.840000
32.297985,-0.142496,-0.005856,0.984784,0.000000,-0.840000,-0.140000
32.306072,-0.143960,0.001464,1.048712,2.240000,0.560000,-1.120000
32.314159,-0.157624,0.047824,0.967216,0.000000,1.260000,-1.120000
32.322246,-0.172752,-0.021960,0.954528,1.260000,0.980000,-0.980000
32.330334,-0.170800,-0.021472,0.955016,1.540000,-0.560000,-0.980000
32.338421,-0.147864,0.047336,1.019432,-1.120000,0.420000,-0.140000
32.346508,-0.146888,0.000000,1.043832,2.240000,0.700000,-1.260000
32.354595,-0.150304,0.001464,0.953552,-0.140000,1.540000,-0.980000
32.362682,-0.162016,0.018544,1.035048,1.400000,2.380000,-0.700000
32.370769,-0.214720,0.049288,0.982344,0.700000,2.240000,-1.120000
32.378857,-0.130296,-0.000976,0.978928,0.700000,0.420000,-0.560000
32.386944,-0.158112,-0.013664,1.052616,1.820000,2.380000,-1.120000
32.395031,-0.204960,0.034648,0.932568,-0.140000,2.660000,-0.560000
32.403118,-0.156648,-0.019520,1.075064,1.120000,1.260000,-0.560000
32.411205,-0.171288,0.021472,0.982832,0.840000,2.660000,-0.980000
32.419293,-0.154208,0.022936,1.019432,1.260000,1.120000,-0.700000
32.427380,-0.170800,-0.018056,0.901824,0.280000,2.800000,-1.540000
32.435467,-0.151280,-0.026352,1.007232,1.820000,0.280000,-0.700000
32.443554,-0.160552,0.046360,1.008696,0.560000,2.800000,-0.840000
32.451641,-0.177632,0.013664,0.960872,0.700000,2.800000,-0.560000
32.459729,-0.164456,-0.000976,1.002840,0.980000,1.820000,-1.120000
32.467816,-0.121024,0.031720,1.032120,0.560000,2.800000,-0.840000
32.475903,-0.190320,0.017080,1.000400,1.400000,3.080000,-0.420000
32.483990,-0.204472,0.020496,0.983320,1.680000,1.820000,-1.120000
32.492077,-0.146888,-0.013664,0.994056,1.260000,1.260000,-0.700000
32.500165,-0.179584,0.038064,0.990152,-0.420000,2.100000,-0.700000
32.508252,-0.184952,-0.023424,0.994056,1.960000,2.520000,-1.400000
32.516339,-0.139080,0.009760,0.997472,0.140000,2.100000,-0.280000
32.524426,-0.151768,0.041480,1.050176,0.980000,3.780000,-0.840000
32.532513,-0.244000,-0.004880,0.944768,1.400000,4.760000,-1.400000
32.540601,-0.156648,-0.004392,1.006256,0.000000,0.840000,-0.420000
32.548688,-0.134688,0.002440,1.018944,2.100000,2.520000,-0.560000
32.556775,-0.245952,0.052216,0.958432,0.140000,4.480000,-1.120000
32.564862,-0.147376,-0.013664,0.974536,1.120000,0.840000,-1.120000
32.572949,-0.124928,-0.036600,0.982344,1.120000,1.120000,-0.560000
32.581037,-0.169336,0.044896,0.987224,0.140000,2.800000,-0.980000
32.589124,-0.171288,0.023912,1.016504,1.820000,2.100000,-0.840000
32.597211,-0.142008,-0.005856,1.028704,-0.140000,3.780000,-1.120000
32.605298,-0.184952,0.008784,0.942816,0.560000,4.620000,-0.560000
32.613385,-0.215696,0.018056,0.947696,2.660000,1.820000,-0.980000
32.621472,-0.136640,0.040504,1.050176,-0.560000,0.140000,-0.980000
32.629560,-0.143960,-0.035136,1.023824,0.840000,4.200000,-0.560000
32.637647,-0.239120,0.042456,0.967704,1.540000,4.060000,-1.400000
32.645734,-0.178120,0.028304,0.970144,0.560000,0.140000,-0.140000
32.653821,-0.150304,-0.009760,1.064328,1.540000,0.560000,-0.700000
32.661908,-0.205936,0.003904,0.960384,0.840000,3.220000,-1.120000
32.669996,-0.183000,0.022936,1.008208,0.980000,1.680000,-0.560000
32.678083,-0.116144,0.010248,1.004304,1.260000,0.560000,-0.700000
32.686170,-0.198128,-0.008296,0.983808,0.700000,4.620000,-0.420000
32.694257,-0.204960,0.032208,0.962824,1.820000,2.380000,-2.240000
32.702344,-0.138592,-0.027816,0.935008,-0.140000,0.420000,-0.420000
32.710432,-0.162016,-0.012688,1.053592,0.980000,2.800000,-0.840000
32.718519,-0.214232,0.048800,0.921832,1.400000,3.080000,-1.260000
32.726606,-0.160064,-0.014152,1.044320,-0.700000,0.700000,0.140000
32.734693,-0.146400,0.010736,0.994056,1.680000,3.920000,-1.680000
32.742780,-0.237168,0.050264,0.946232,1.680000,1.820000,-0.700000
32.750868,-0.151280,0.025376,1.035536,-0.560000,0.140000,-0.700000
32.758955,-0.131272,-0.017080,0.994544,2.800000,0.420000,-1.120000
32.767042,-0.215208,0.040504,1.024800,-0.560000,3.920000,-0.560000
32.775129,-0.127856,0.002928,0.976976,1.400000,1.400000,-1.120000
32.783216,-0.204472,-0.001464,1.018944,2.380000,0.980000,-0.420000
32.791304,-0.217160,0.027328,1.016992,-0.840000,3.780000,-1.120000
32.799391,-0.178608,0.003904,0.932080,2.380000,1.260000,-1.120000
32.807478,-0.152256,-0.002928,1.014552,-0.280000,0.420000,-0.560000
32.815565,-0.177632,-0.015616,0.971120,1.680000,2.520000,-1.120000
32.823652,-0.224968,0.030256,0.955016,1.260000,1.680000,-0.840000
32.831740,-0.135176,-0.011712,0.990152,-0.840000,0.420000,-0.980000
32.839827,-0.147864,-0.024888,1.035536,1.540000,2.520000,-0.980000
32.847914,-0.214232,0.056120,0.938424,1.540000,3.360000,-0.980000
32.856001,-0.188368,0.012688,0.965264,0.700000,1.120000,-0.420000
32.864088,-0.145912,-0.005856,1.063840,0.140000,1.820000,-1.120000
32.872175,-0.186904,0.047824,0.955992,1.680000,3.640000,-1.260000
32.880263,-0.175192,0.007808,1.043344,0.700000,0.840000,-0.280000
32.888350,-0.131272,-0.011224,1.007232,0.420000,3.080000,-0.980000
32.896437,-0.239608,0.020984,0.993080,2.520000,3.780000,-1.120000
32.904524,-0.222040,0.030256,0.983320,-1.120000,2.520000,-0.560000
32.912611,-0.142008,-0.023912,1.005768,2.660000,0.840000,-0.840000
32.920699,-0.189344,0.038064,0.958432,0.280000,3.080000,-1.260000
32.928786,-0.195688,0.009272,1.021384,0.980000,2.240000,-0.980000
32.936873,-0.164456,-0.005368,0.913048,-0.140000,1.120000,-0.560000
32.944960,-0.124928,-0.021472,1.038952,1.820000,1.680000,-0.840000
32.953047,-0.200080,0.033672,0.983320,1.260000,3.360000,-1.120000
32.961135,-0.213256,0.031232,0.923784,0.140000,2.380000,-0.700000
32.969222,-0.171288,-0.031232,1.018456,0.560000,-0.980000,-0.420000
32.977309,-0.176168,0.035624,1.009672,1.820000,2.520000,-0.840000
32.985396,-0.158600,0.062464,1.040904,1.400000,1.960000,-0.980000
32.993483,-0.162992,-0.026840,0.966728,-0.140000,2.100000,-1.120000
33.001571,-0.178120,-0.017080,0.993080,2.100000,3.500000,-0.560000
33.009658,-0.254736,0.041480,1.016504,1.120000,4.340000,-0.840000
33.017745,-0.146888,0.021960,0.973560,0.140000,2.100000,-0.560000
33.025832,-0.162504,-0.029768,1.024800,1.960000,2.800000,-1.120000
33.033919,-0.216184,0.024400,0.948672,0.420000,3.920000,-0.980000
33.042007,-0.183976,0.002928,1.026264,0.560000,3.080000,-0.560000
33.050094,-0.175192,-0.018056,0.902312,0.560000,1.960000,-1.400000
33.058181,-0.172752,0.021960,1.000400,1.540000,0.840000,-0.700000
33.066268,-0.204960,0.040504,1.002840,1.820000,1.960000,-0.840000
33.074355,-0.192272,0.004392,1.021384,-0.420000,2.100000,-0.980000
33.082443,-0.153232,-0.002440,0.984784,0.980000,2.240000,-0.840000
33.090530,-0.201544,0.050752,1.007232,1.960000,2.940000,-0.420000
33.098617,-0.203008,0.025376,1.008208,-0.700000,2.940000,-1.260000
33.106704,-0.158112,-0.031720,0.965264,1.960000,1.680000,-0.840000
33.114791,-0.214720,0.019520,1.059936,0.560000,4.200000,-0.700000
33.122878,-0.179584,0.028304,0.951600,0.980000,2.800000,-0.840000
33.130966,-0.186416,-0.016592,1.004792,1.820000,0.980000,-0.840000
33.139053,-0.196176,-0.005368,0.929640,0.280000,3.640000,-0.980000
33.147140,-0.193736,0.027328,1.050176,1.400000,2.940000,-0.700000
33.155227,-0.166408,0.002928,0.956968,-0.420000,2.660000,-1.120000
33.163314,-0.173728,-0.016104,0.984296,1.120000,3.360000,-0.980000
33.171402,-0.200080,0.035136,0.968192,0.700000,3.080000,-1.120000
33.179489,-0.201544,0.009760,0.919880,0.700000,2.100000,-0.980000
33.187576,-0.187392,0.013176,0.986248,0.700000,0.420000,-0.420000
33.195663,-0.186904,0.008784,1.049688,2.520000,1.260000,-0.840000
33.203750,-0.213256,0.045384,1.046272,-0.420000,2.660000,-0.840000
33.211838,-0.143960,-0.024888,0.969168,1.820000,2.380000,-1.120000
33.219925,-0.185928,0.026352,1.018944,1.540000,1.960000,-0.280000
33.228012,-0.208376,0.016104,0.996984,0.140000,4.480000,-1.260000
33.236099,-0.209840,0.011224,0.973560,2.240000,2.660000,-0.980000
33.244186,-0.182024,0.002440,0.980880,0.000000,1.680000,-0.560000
33.252274,-0.179584,0.009272,0.973072,1.120000,2.660000,-0.840000
33.260361,-0.199592,0.018056,0.976976,1.680000,2.240000,-1.120000
33.268448,-0.184952,-0.023424,0.963312,0.000000,1.260000,-0.700000
33.276535,-0.176656,0.011224,1.049200,0.840000,3.360000,-0.980000
33.284622,-0.216672,0.018056,0.929152,1.260000,2.800000,-0.980000
33.292710,-0.176656,0.014152,1.006744,0.420000,1.540000,-0.420000
33.300797,-0.183488,-0.000488,1.012112,1.540000,2.240000,-1.680000
33.308884,-0.220576,0.043432,0.961360,0.140000,2.660000,-0.280000
33.316971,-0.178120,-0.007320,1.037000,1.540000,2.380000,-0.700000
33.325058,-0.138104,0.032696,0.987224,0.700000,3.640000,-1.260000
33.333146,-0.245952,0.003904,0.996008,1.120000,3.500000,-0.420000
33.341233,-0.227896,0.003416,0.941840,1.540000,2.240000,-1.260000
33.349320,-0.176168,0.007808,1.007232,1.260000,0.840000,-0.700000
33.357407,-0.181536,0.014152,0.995520,0.140000,1.400000,-0.420000
33.365494,-0.225944,0.001952,0.996496,1.960000,2.380000,-1.540000
33.373581,-0.184952,-0.004392,0.948184,-0.280000,0.420000,-0.700000
33.381669,-0.123464,0.009272,1.070184,1.820000,1.820000,-0.840000
33.389756,-0.246440,0.024400,0.900360,0.420000,4.060000,-0.980000
33.397843,-0.225944,0.007808,0.922808,0.560000,0.560000,-0.700000
33.405930,-0.161528,-0.002928,1.022848,1.400000,-1.120000,-0.980000
33.414017,-0.196664,0.035136,0.986248,0.840000,0.560000,-0.560000
33.422105,-0.186416,0.007808,1.032608,0.420000,1.540000,-0.700000
33.430192,-0.181048,-0.001464,0.952088,0.980000,1.540000,-1.120000
33.438279,-0.226920,0.014640,1.022848,1.680000,1.120000,-0.840000
33.446366,-0.248392,0.030256,0.972096,-0.140000,1.400000,-0.840000
33.454453,-0.195200,-0.014640,0.977952,2.100000,-0.140000,-0.980000
33.462541,-0.160064,0.002928,1.046272,-0.980000,0.000000,-0.280000
33.470628,-0.226432,0.008296,0.983320,2.240000,3.360000,-1.260000
33.478715,-0.220576,0.031232,0.886208,0.560000,-0.140000,-0.700000
33.486802,-0.123952,-0.018544,1.031144,0.700000,-1.820000,-0.420000
33.494889,-0.202032,0.016104,0.974536,0.980000,0.980000,-1.260000
33.502977,-0.216672,0.026840,0.956480,1.400000,0.140000,-0.700000
33.511064,-0.153232,-0.014640,1.024800,0.560000,-1.540000,-0.840000
33.519151,-0.168848,0.017568,1.015040,1.540000,1.540000,-0.980000
33.527238,-0.237656,0.038552,0.964776,0.700000,1.820000,-0.700000
33.535325,-0.200080,0.016592,1.006256,0.420000,-0.420000,-0.980000
33.543413,-0.178608,-0.020496,0.984296,1.400000,0.420000,-0.420000
33.551500,-0.227408,0.036112,0.996984,0.700000,1.820000,-0.700000
33.559587,-0.184464,0.021472,0.980392,0.420000,0.560000,-1.120000
33.567674,-0.186904,-0.032696,1.020408,1.120000,1.260000,-0.700000
33.575761,-0.242536,0.042944,0.987712,0.700000,1.960000,-0.980000
33.583849,-0.189832,0.025376,0.925248,1.820000,-0.420000,-0.420000
33.591936,-0.158112,-0.019032,1.067256,-0.140000,0.000000,-0.980000
33.600023,-0.202520,0.015128,0.971608,1.400000,1.820000,-1.120000
33.608110,-0.235216,0.010736,0.991616,1.680000,1.120000,-0.420000
33.616197,-0.145912,0.008296,0.982832,-0.420000,0.140000,-1.120000
33.624285,-0.183976,-0.019520,0.965264,2.380000,2.100000,-0.840000
33.632372,-0.236192,0.033672,1.002352,0.140000,2.380000,-0.980000
33.640459,-0.203496,0.016592,0.918416,1.540000,-0.420000,-0.700000
33.648546,-0.142008,0.001952,1.056520,0.560000,-0.140000,-0.420000
33.656633,-0.235704,0.025376,0.953064,0.420000,2.800000,-1.260000
33.664721,-0.221552,0.005368,0.989176,1.400000,-1.820000,-0.420000
33.672808,-0.136640,0.010736,1.044808,0.280000,0.980000,-1.120000
33.680895,-0.200568,0.017568,0.983320,0.560000,2.940000,-0.840000
33.688982,-0.222040,0.021472,0.974536,2.100000,0.280000,-1.120000
33.697069,-0.177144,0.002440,0.998448,0.420000,-1.260000,0.140000
33.705157,-0.211792,-0.011712,0.995520,1.820000,0.980000,-1.400000
33.713244,-0.209840,0.030256,0.989664,1.120000,0.980000,-0.980000
33.721331,-0.159576,0.002440,1.037976,-0.420000,0.700000,-0.280000
33.729418,-0.179584,0.008296,0.966240,2.660000,1.540000,-1.400000
33.737505,-0.224480,0.020496,0.900848,0.280000,1.540000,-0.840000
33.745592,-0.184952,-0.009272,1.017968,0.700000,-0.140000,-1.260000
33.753680,-0.167384,0.005856,0.931592,1.540000,1.400000,-0.840000
33.761767,-0.226432,0.027328,1.010648,-0.280000,1.120000,-0.560000
33.769854,-0.188856,0.020008,0.956968,1.680000,-0.280000,-1.540000
33.777941,-0.217648,-0.020496,0.961848,0.700000,-1.400000,-0.700000
33.786028,-0.184464,0.019032,1.038952,-0.420000,-0.700000,-0.700000
33.794116,-0.206424,0.034648,1.017480,2.940000,0.700000,-1.400000
33.802203,-0.178608,0.014640,0.954528,-1.120000,-0.420000,-0.420000
33.810290,-0.198128,-0.005368,1.041392,1.960000,0.700000,-0.840000
33.818377,-0.276696,0.034648,0.966728,1.820000,0.840000,-0.560000
33.826464,-0.147376,0.009272,1.047736,-1.260000,-1.120000,-0.560000
33.834552,-0.168360,-0.028304,0.944280,2.380000,1.820000,-0.840000
33.842639,-0.250832,0.054656,1.029680,0.280000,1.680000,-1.120000
33.850726,-0.170800,0.001464,0.961360,-0.140000,0.280000,-0.980000
33.858813,-0.160064,-0.018544,0.979416,2.240000,-0.840000,-0.280000
33.866900,-0.192760,0.038064,1.044320,0.140000,0.980000,-0.980000
33.874988,-0.211792,0.017080,0.926712,2.240000,1.960000,-1.120000
33.883075,-0.182512,-0.035624,1.026264,-0.140000,0.140000,-0.420000
33.891162,-0.217160,0.023912,0.976976,1.820000,2.240000,-1.540000
33.899249,-0.223016,0.017080,0.923784,0.700000,0.140000,-0.140000
33.907336,-0.175192,-0.029768,1.053592,0.700000,0.700000,-0.980000
33.915424,-0.169336,0.039040,0.904264,0.560000,1.400000,-0.980000
33.923511,-0.197640,0.013664,1.066768,0.700000,1.680000,-0.700000
33.931598,-0.178608,0.007320,0.908168,0.980000,0.560000,-1.680000
33.939685,-0.199104,0.025864,0.942816,1.120000,-1.260000,-0.700000
33.947772,-0.235216,0.033184,1.067256,0.420000,-0.140000,-1.260000
33.955860,-0.157136,-0.006344,0.959896,1.540000,-0.280000,-0.980000
33.963947,-0.161528,0.010248,1.066280,0.140000,-0.140000,-0.280000
33.972034,-0.223992,0.011712,1.004304,2.100000,2.100000,-1.120000
33.980121,-0.254736,0.043432,0.946232,0.700000,0.980000,-0.420000
33.988208,-0.159088,-0.016592,1.086288,-0.140000,0.840000,-0.980000
33.996296,-0.174216,0.002440,0.932568,1.960000,2.100000,-0.840000
34.004383,-0.213744,0.033184,1.004792,0.560000,1.960000,-0.420000
34.012470,-0.218136,-0.025376,1.003816,0.840000,2.660000,-1.820000
34.020557,-0.183976,0.000976,0.933056,0.980000,2.240000,-0.420000
34.028644,-0.194224,0.022448,1.056032,1.260000,2.100000,-0.560000
34.036732,-0.172264,0.020984,0.917440,0.980000,2.380000,-1.260000
34.044819,-0.149328,0.007320,0.982344,1.960000,2.100000,-0.840000
34.052906,-0.200568,-0.009760,0.993568,0.280000,2.240000,-1.540000
34.060993,-0.213256,0.012688,0.971120,1.540000,3.780000,-0.980000
34.069080,-0.215696,0.019520,0.961848,-0.560000,1.540000,-0.560000
34.077168,-0.197152,0.013664,1.041392,1.960000,1.820000,-0.840000
34.085255,-0.261080,0.062952,0.981856,-0.280000,3.220000,-0.700000
34.093342,-0.190808,-0.028304,0.994544,0.700000,0.000000,-1.120000
34.101429,-0.174216,0.005856,0.994056,0.980000,1.260000,-0.840000
34.109516,-0.228872,0.041968,1.004304,0.840000,2.100000,-0.560000
34.117603,-0.202520,-0.010736,0.935008,0.280000,0.280000,-1.120000
34.125691,-0.163480,0.003904,0.986248,1.680000,0.280000,-0.980000
34.133778,-0.200568,0.002928,0.987712,0.000000,-0.280000,-0.560000
34.141865,-0.215208,0.017080,0.965752,1.540000,-0.140000,-0.560000
34.149952,-0.179584,-0.001464,1.004792,0.700000,-0.280000,-0.980000
34.158039,-0.183000,0.020008,1.023336,0.420000,0.560000,-0.980000
34.166127,-0.215208,-0.002440,0.947208,1.680000,1.540000,-0.560000
34.174214,-0.202032,0.010248,0.985272,0.280000,1.260000,-1.400000
34.182301,-0.154696,0.005368,0.962824,0.840000,-0.280000,-0.420000
34.190388,-0.246928,0.017568,1.023336,1.260000,2.380000,-0.560000
34.198475,-0.223504,0.036112,0.970144,0.140000,1.120000,-1.540000
34.206563,-0.153720,0.003416,1.011624,1.540000,0.140000,-0.560000
34.214650,-0.224968,0.023912,1.008696,1.120000,2.380000,-0.980000
34.222737,-0.225944,0.028304,0.935496,0.000000,0.000000,-0.840000
34.230824,-0.164944,-0.015128,1.044320,2.100000,-1.260000,-0.700000
34.238911,-0.197640,0.002440,1.004304,0.000000,1.120000,-0.840000
34.246999,-0.210328,0.037576,0.987224,1.680000,1.960000,-1.120000
34.255086,-0.210328,-0.022448,0.943792,0.840000,-0.280000,-0.560000
34.263173,-0.157624,-0.002440,1.054568,0.420000,0.700000,-0.700000
34.271260,-0.227408,0.051728,0.920368,1.960000,2.100000,-0.700000
34.279347,-0.209840,0.011712,1.020896,0.140000,-0.700000,-0.700000
34.287435,-0.156160,-0.025376,1.002840,0.420000,0.140000,-1.120000
34.295522,-0.207400,0.011712,0.953552,2.100000,2.240000,-0.560000
34.303609,-0.214720,0.030744,0.991616,0.140000,0.140000,-1.120000
34.311696,-0.162504,-0.023424,0.981856,1.680000,-0.420000,-0.560000
34.319783,-0.236680,0.028792,1.008208,0.560000,3.780000,-0.560000
34.327871,-0.224968,0.013176,0.897920,0.560000,0.700000,-1.820000
34.335958,-0.161528,0.000000,1.001376,0.840000,-2.520000,-0.280000
34.344045,-0.193736,-0.016104,1.045784,1.120000,0.140000,-0.700000
34.352132,-0.244488,0.054656,0.924272,0.840000,2.100000,-0.980000
34.360219,-0.143472,0.001952,1.003816,0.420000,-1.120000,-0.980000
34.368307,-0.201056,-0.002440,0.999424,0.700000,0.280000,-1.680000
34.376394,-0.230336,0.029768,0.943792,1.400000,-0.280000,-0.420000
34.384481,-0.210816,0.002440,1.012112,1.680000,-1.540000,-0.840000
34.392568,-0.166408,-0.001464,1.027240,-0.840000,1.540000,-0.840000
34.400655,-0.201056,0.021472,0.972584,1.540000,1.400000,-0.980000
34.408743,-0.208376,0.030256,0.955016,1.400000,-0.700000,-1.120000
34.416830,-0.177632,-0.013664,1.052128,-0.420000,0.280000,-0.560000
34.424917,-0.208864,0.011224,0.952576,1.960000,0.700000,-0.560000
34.433004,-0.242536,0.048800,1.004304,1.540000,-0.700000,-0.980000
34.441091,-0.150304,-0.019032,1.023824,-0.560000,-1.260000,-0.420000
34.449179,-0.205448,0.001952,0.994544,2.800000,2.660000,-0.980000
34.457266,-0.267424,0.046360,0.987712,-0.420000,1.820000,-0.840000
34.465353,-0.166408,-0.016104,0.974536,0.840000,-1.120000,-0.700000
34.473440,-0.182024,-0.007320,0.981856,1.680000,0.980000,-0.700000
34.481527,-0.240096,0.039040,1.025776,-0.420000,2.100000,-1.120000
34.489614,-0.168848,0.006344,0.957944,1.540000,0.140000,-0.980000
34.497702,-0.178608,-0.022936,1.005768,0.420000,0.840000,-0.280000
34.505789,-0.216184,0.020984,1.004792,0.560000,3.500000,-1.260000
34.513876,-0.187392,0.031232,0.910608,1.960000,0.140000,-0.700000
34.521963,-0.151280,-0.016104,1.091656,0.000000,1.260000,-0.420000
34.530050,-0.199592,0.021472,0.976488,1.820000,5.180000,-1.680000
34.538138,-0.225944,0.007320,0.894504,0.840000,1.260000,-0.140000
34.546225,-0.203008,0.016104,1.028216,0.700000,0.840000,-0.840000
34.554312,-0.203496,0.006344,0.982832,1.260000,0.840000,-0.700000
34.562399,-0.183488,0.033672,1.056032,-0.140000,2.520000,-0.700000
34.570486,-0.172264,-0.006832,0.944280,1.540000,1.960000,-1.120000
34.578574,-0.178120,0.004392,0.971608,1.540000,1.820000,-0.280000
34.586661,-0.259128,0.034160,1.021872,0.840000,2.240000,-1.260000
34.594748,-0.192760,0.026352,0.952576,0.840000,1.680000,-0.700000
34.602835,-0.216672,-0.023912,1.032608,0.700000,1.960000,-0.700000
34.610922,-0.203984,0.013664,0.975024,2.520000,0.980000,-0.980000
34.619010,-0.216184,0.013664,1.013088,0.280000,2.100000,-0.280000
34.627097,-0.202520,-0.003904,0.958920,0.280000,2.240000,-1.400000
34.635184,-0.154696,-0.001952,0.989664,1.400000,2.520000,-0.560000
34.643271,-0.210328,0.046848,1.024800,0.560000,3.640000,-1.120000
34.651358,-0.247416,-0.021960,0.892064,1.540000,3.640000,-0.840000
34.659446,-0.184464,0.014152,0.995032,-0.140000,1.120000,-0.420000
34.667533,-0.178608,0.009760,0.974048,1.820000,1.540000,-1.260000
34.675620,-0.226920,0.025864,0.974048,-0.140000,1.820000,-0.840000
34.683707,-0.162992,-0.037576,0.977952,0.980000,0.000000,-0.700000
34.691794,-0.192760,0.047824,1.077016,2.100000,2.240000,-0.840000
34.699882,-0.210328,0.052704,0.981368,0.140000,2.660000,-0.840000
34.707969,-0.209840,-0.031720,0.961848,1.820000,2.520000,-0.840000
34.716056,-0.221064,0.029768,1.034560,-0.140000,1.960000,-0.560000
34.724143,-0.231800,0.041968,1.015528,1.400000,3.080000,-0.700000
34.732230,-0.225944,-0.012688,0.934520,0.700000,2.380000,-0.980000
34.740318,-0.136640,-0.017568,1.008696,1.680000,1.120000,-1.120000
34.748405,-0.217160,0.023912,0.966240,0.280000,4.340000,-0.700000
34.756492,-0.215208,-0.011224,0.929152,1.820000,2.240000,-0.980000
34.764579,-0.221552,0.011712,0.956480,0.140000,1.120000,-1.120000
34.772666,-0.197152,-0.003904,1.006256,1.960000,0.280000,-0.840000
34.780754,-0.230824,0.056608,1.013088,-0.840000,1.680000,-0.560000
34.788841,-0.197640,-0.031720,0.976976,2.240000,1.540000,-1.260000
34.796928,-0.215696,0.057096,1.005768,-0.280000,1.120000,-0.560000
34.805015,-0.209840,0.007320,0.986248,1.120000,1.680000,-0.840000
34.813102,-0.233264,0.007808,0.947696,1.540000,-0.420000,-1.120000
34.821189,-0.181048,-0.018056,0.986248,1.260000,-0.140000,-0.420000
34.829277,-0.201544,0.042456,1.042368,0.280000,0.840000,-0.700000
34.837364,-0.225456,0.005368,0.963312,0.700000,1.680000,-0.980000
34.845451,-0.186416,-0.037088,1.006256,1.540000,-0.700000,-0.700000
34.853538,-0.167384,0.033672,0.999424,0.140000,1.960000,-0.700000
34.861625,-0.223992,0.007808,0.935496,1.680000,2.940000,-0.840000
34.869713,-0.222040,0.013664,0.924272,-0.420000,0.140000,-1.260000
34.877800,-0.160064,-0.018056,1.026264,2.380000,-0.840000,-0.560000
34.885887,-0.240096,0.043920,0.978440,-0.280000,2.520000,-0.840000
34.893974,-0.215208,0.030744,0.990640,1.680000,1.400000,-1.400000
34.902061,-0.213256,-0.012200,0.977464,0.280000,-0.980000,-0.700000
34.910149,-0.204960,0.011712,1.048224,0.840000,0.420000,-0.280000
34.918236,-0.245464,0.033184,0.940376,1.680000,0.840000,-0.840000
34.926323,-0.205448,0.000488,1.000888,1.120000,-1.260000,-0.980000
34.934410,-0.178120,-0.006832,1.017480,-0.420000,-0.560000,-0.700000
34.942497,-0.223504,0.021960,0.930128,1.680000,0.840000,-1.120000
34.950585,-0.231312,-0.003416,0.966728,1.120000,-1.120000,-0.700000
34.958672,-0.136640,0.006832,1.055056,-0.280000,-0.840000,-0.700000
34.966759,-0.202032,0.012200,0.962824,2.240000,3.500000,-1.120000
34.974846,-0.260104,-0.000976,0.870592,-0.700000,0.700000,-0.840000
34.982933,-0.164944,0.013176,1.024312,1.120000,-1.400000,-0.840000
34.991021,-0.222528,0.027328,1.028216,0.700000,-0.280000,-0.700000
34.999108,-0.222528,0.038552,0.984784,0.700000,0.280000,-0.980000
35.007195,-0.203496,0.004392,1.041880,0.980000,-1.820000,-0.840000
35.015282,-0.170800,-0.003904,0.997960,1.120000,-1.120000,-0.280000
35.023369,-0.219112,0.021960,1.003816,1.540000,1.820000,-0.560000
35.031457,-0.203496,0.024888,0.909632,0.700000,-0.140000,-1.540000
35.039544,-0.168848,-0.030256,1.033096,1.400000,-1.540000,-0.840000
35.047631,-0.264984,0.012200,0.924760,0.140000,1.820000,-0.980000
35.055718,-0.228384,0.029768,0.986248,2.380000,-0.560000,-1.260000
35.063805,-0.149816,-0.026840,0.975024,-1.540000,-1.820000,-0.280000
35.071893,-0.166896,0.009272,0.976488,1.820000,0.560000,-1.540000
35.079980,-0.262544,0.035136,0.959408,0.980000,-0.840000,-0.980000
35.088067,-0.179096,0.021472,1.008696,-0.560000,-2.380000,-0.840000
35.096154,-0.189832,-0.008296,1.079944,1.820000,0.420000,-0.980000
35.104241,-0.248880,0.053192,0.955016,1.120000,-0.420000,-0.700000
35.112328,-0.212768,0.008296,0.992104,0.980000,-0.560000,-0.700000
35.120416,-0.177632,-0.015128,0.994544,0.420000,-1.260000,-0.980000
35.128503,-0.235704,0.007320,0.952088,1.820000,-0.140000,-0.980000
35.136590,-0.195200,0.036112,0.976000,0.420000,-1.820000,-0.700000
35.144677,-0.131272,-0.030744,1.013088,0.700000,-2.380000,-0.840000
35.152764,-0.237168,0.023912,1.000888,2.100000,1.120000,-1.400000
35.160852,-0.246440,0.003416,0.915488,-0.280000,0.280000,-0.840000
35.168939,-0.169824,0.004880,1.031632,0.980000,-2.800000,-0.420000
35.177026,-0.197152,0.022448,0.997472,0.140000,-0.140000,-0.700000
35.185113,-0.211304,0.022448,0.973072,2.380000,-1.120000,-0.840000
35.193200,-0.205936,-0.018056,0.951600,0.140000,-0.420000,-0.560000
35.201288,-0.142496,0.008784,1.006256,-0.560000,-0.280000,-0.700000
35.209375,-0.236680,0.024400,0.945256,3.920000,0.980000,-1.680000
35.217462,-0.213744,0.053192,0.993568,-2.240000,-0.840000,-1.260000
35.225549,-0.171288,-0.028304,1.050176,1.820000,-0.700000,-0.700000
35.233636,-0.282064,0.031720,0.973072,2.380000,1.120000,-1.120000
35.241724,-0.230336,0.050264,0.955992,-0.980000,-2.660000,-0.560000
35.249811,-0.112728,-0.039528,1.113128,1.680000,-3.920000,-0.840000
35.257898,-0.215208,0.020496,0.911584,0.840000,1.680000,-0.840000
35.265985,-0.268888,0.014640,0.941840,0.980000,-1.120000,-0.560000
35.274072,-0.159088,-0.001464,1.055544,0.280000,-2.660000,-1.680000
35.282160,-0.147864,-0.016592,0.938912,0.980000,-0.140000,-0.840000
35.290247,-0.251320,0.013664,1.037488,0.700000,0.840000,-0.560000
35.298334,-0.149816,0.036112,0.954528,0.840000,-1.540000,-1.400000
35.306421,-0.193736,-0.013664,0.940376,1.540000,-0.700000,-0.280000
35.314508,-0.238144,0.026352,1.018456,0.840000,0.140000,-0.980000
35.322596,-0.200568,0.028792,0.910608,1.260000,-1.260000,-0.980000
35.330683,-0.177632,-0.030744,1.057984,-0.840000,-1.820000,-0.420000
35.338770,-0.181048,0.025864,0.982832,2.100000,-0.420000,-1.400000
35.346857,-0.223992,0.032208,0.961360,0.700000,-0.840000,-0.560000
35.354944,-0.190320,0.010248,1.055544,-0.560000,-2.520000,-1.120000
35.363032,-0.193248,0.005856,0.964776,2.940000,0.700000,-0.840000
35.371119,-0.243024,0.052704,1.025776,-0.420000,0.000000,-0.700000
35.379206,-0.145912,-0.039040,0.935984,0.700000,-1.680000,-0.980000
35.387293,-0.203984,0.002928,1.043344,2.660000,-0.980000,-0.140000
35.395380,-0.216672,0.060024,0.985760,-0.560000,1.820000,-1.540000
35.403468,-0.191784,-0.007808,0.972096,2.100000,-1.540000,-0.840000
35.411555,-0.161528,-0.018056,1.017968,0.840000,-0.980000,-0.980000
35.419642,-0.237656,0.024400,0.924760,1.400000,1.540000,-0.840000
35.427729,-0.217648,0.019032,1.004304,-0.840000,-0.700000,-0.700000
35.435816,-0.163480,-0.034648,0.964288,2.240000,-1.540000,-0.840000
35.443904,-0.199592,0.040016,0.987224,0.420000,-1.120000,-0.700000
35.451991,-0.176168,0.023424,1.049688,0.560000,-0.140000,-1.120000
35.460078,-0.174704,0.004880,0.951112,1.120000,-0.280000,-1.120000
35.468165,-0.199592,-0.012200,0.972584,1.260000,0.000000,-0.980000
35.476252,-0.213256,0.040992,1.053592,0.840000,2.100000,-1.260000
35.484340,-0.231800,0.003904,0.927688,0.560000,1.400000,-0.560000
35.492427,-0.165432,-0.000976,1.080920,0.140000,0.560000,-0.560000
35.500514,-0.194712,0.015128,0.935496,1.680000,1.680000,-0.980000
35.508601,-0.204472,0.026352,1.003328,0.420000,0.000000,-0.420000
35.516688,-0.168848,-0.032208,0.958920,1.400000,0.560000,-1.260000
35.524775,-0.209352,0.029768,0.989176,0.420000,0.700000,-0.560000
35.532863,-0.193248,0.012200,0.990640,1.260000,0.980000,-1.120000
35.540950,-0.191296,0.028792,0.990152,0.560000,-0.420000,-0.700000
35.549037,-0.175192,-0.025864,0.967704,0.560000,0.420000,-0.420000
35.557124,-0.206912,0.051728,1.041392,1.540000,1.540000,-1.260000
35.565211,-0.219600,0.018544,0.946232,0.000000,0.280000,-0.700000
35.573299,-0.189832,-0.021472,1.031144,1.680000,-0.420000,-0.560000
35.581386,-0.195200,0.025376,1.005280,0.840000,0.560000,-1.400000
35.589473,-0.223016,0.035136,0.985760,1.120000,1.540000,-0.560000
35.597560,-0.208376,-0.020984,0.974048,0.700000,0.140000,-1.680000
35.605647,-0.176656,0.002928,0.935008,1.540000,0.420000,-1.120000
35.613735,-0.207888,0.003416,1.073600,-0.140000,1.120000,-0.840000
35.621822,-0.175680,-0.009760,0.887184,1.260000,1.680000,-0.980000
35.629909,-0.175680,0.021960,0.998448,1.120000,-0.140000,-0.420000
35.637996,-0.206424,0.021472,0.985760,0.840000,0.980000,-1.540000
35.646083,-0.222040,0.010736,0.979416,0.840000,0.280000,-1.400000
35.654171,-0.178608,-0.011712,0.983808,1.260000,-0.700000,-0.140000
35.662258,-0.206912,0.052704,1.059448,1.260000,0.420000,-0.700000
35.670345,-0.203496,0.034648,0.957456,0.140000,1.120000,-1.540000
35.678432,-0.182024,-0.029280,1.023336,1.260000,0.280000,-0.420000
35.686519,-0.201056,0.006344,0.983808,0.700000,0.560000,-1.120000
35.694607,-0.202520,0.041968,0.999424,1.260000,1.120000,-0.700000
35.702694,-0.200080,-0.000976,0.972584,0.280000,0.840000,-1.120000
35.710781,-0.173728,-0.031232,0.955992,1.680000,0.000000,-0.840000
35.718868,-0.186904,0.030256,1.036512,1.260000,1.400000,-0.560000
35.726955,-0.192272,0.016104,0.894504,-0.280000,1.820000,-1.120000
35.735043,-0.160552,-0.020496,1.037488,2.100000,-0.980000,-0.840000
35.743130,-0.219112,0.043432,0.989664,0.140000,2.660000,-1.120000
35.751217,-0.256200,0.022936,0.985760,1.400000,1.400000,-0.840000
35.759304,-0.194224,-0.014640,0.958432,0.560000,-1.120000,-1.120000
35.767391,-0.174216,0.011712,1.033096,0.840000,0.560000,-0.840000
35.775479,-0.229360,0.044896,0.981856,-0.140000,0.420000,-0.840000
35.783566,-0.181048,-0.033672,0.990152,1.960000,0.840000,-0.840000
35.791653,-0.182512,0.046848,1.021872,0.140000,0.840000,-0.700000
35.799740,-0.168848,0.016104,1.002840,1.960000,0.840000,-0.700000
35.807827,-0.237656,-0.004880,0.957456,0.560000,2.380000,-1.540000
35.815915,-0.193248,-0.009760,0.932568,0.840000,-0.140000,-0.700000
35.824002,-0.148352,-0.003904,1.073600,0.840000,0.140000,-0.280000
35.832089,-0.236680,0.047336,0.917928,1.540000,2.520000,-1.260000
35.840176,-0.168848,-0.018544,0.997472,0.140000,-1.260000,-0.560000
35.848263,-0.185440,0.003904,0.983320,1.960000,0.980000,-1.400000
35.856351,-0.235704,0.038552,0.983320,0.280000,1.400000,-0.420000
35.864438,-0.200568,0.002928,0.992104,0.700000,0.560000,-0.840000
35.872525,-0.184952,0.008784,1.035048,1.680000,0.420000,-1.400000
35.880612,-0.188368,0.030256,0.992104,-0.560000,1.400000,-0.140000
35.888699,-0.228384,-0.011224,1.004792,2.240000,1.400000,-1.260000
35.896787,-0.209840,0.017568,0.925248,0.980000,0.000000,-0.840000
35.904874,-0.153232,-0.004392,1.027240,0.560000,-0.420000,-0.140000
35.912961,-0.203008,-0.004392,0.904752,1.120000,1.260000,-1.960000
35.921048,-0.206424,0.022448,0.987712,1.820000,-0.700000,-1.120000
35.929135,-0.164456,0.020008,1.042856,-1.260000,0.840000,-0.560000
35.937223,-0.224480,0.015616,0.996008,2.520000,3.220000,-0.840000
35.945310,-0.240096,0.013664,0.897920,0.000000,-0.140000,-0.700000
35.953397,-0.143960,-0.001464,1.039440,1.400000,-1.540000,-0.840000
35.961484,-0.204472,0.016104,1.037000,0.980000,0.840000,-0.840000
35.969571,-0.248880,0.014640,0.979904,1.820000,0.560000,-1.260000
35.977659,-0.137616,0.010248,0.990152,-0.280000,-2.100000,-0.140000
35.985746,-0.166896,0.006832,1.101904,2.380000,2.240000,-0.980000
35.993833,-0.242536,0.036112,0.903776,0.000000,3.920000,-1.540000
36.001920,-0.177632,-0.004880,0.915976,2.240000,0.000000,-1.540000
36.010007,-0.167384,0.002928,0.967216,-0.140000,-1.400000,-1.120000
36.018095,-0.201544,0.011224,1.053592,0.700000,2.380000,-0.980000
36.026182,-0.228872,0.029280,0.922320,1.680000,0.140000,-1.400000
36.034269,-0.207400,0.022936,1.042368,0.420000,-2.100000,-0.560000
36.042356,-0.204960,-0.020496,0.996984,1.120000,0.140000,-1.120000
36.050443,-0.239608,0.003904,0.967216,0.980000,0.840000,-0.980000
36.058531,-0.154208,0.017080,0.978928,0.420000,-1.680000,-0.420000
36.066618,-0.162504,-0.001464,1.022848,1.680000,-0.560000,-0.980000
36.074705,-0.235216,0.012200,0.941352,0.420000,0.980000,-0.980000
36.082792,-0.192760,-0.009760,0.943792,0.980000,-0.280000,-0.840000
36.090879,-0.147376,0.016104,1.016016,1.400000,-1.820000,-1.120000
36.098967,-0.212768,0.021472,0.972584,0.420000,-0.280000,-0.700000
36.107054,-0.209840,0.009272,1.046760,1.540000,0.560000,-0.980000
36.115141,-0.153720,0.023912,0.992104,0.140000,-0.560000,-0.700000
36.123228,-0.171776,0.003904,1.073600,1.540000,2.100000,-0.420000
36.131315,-0.284992,0.024400,0.870104,1.540000,2.660000,-1.540000
36.139403,-0.210328,0.026840,0.980880,0.420000,-3.360000,-0.280000
36.147490,-0.173240,-0.011224,1.034072,1.960000,-1.820000,-1.260000
36.155577,-0.218624,0.013176,0.941840,-0.420000,-1.120000,-1.120000
36.163664,-0.189832,-0.006344,0.970144,1.960000,-1.680000,-0.840000
36.171751,-0.126880,0.011712,0.989176,-0.700000,-3.080000,-0.980000
36.179838,-0.203008,0.006344,1.003816,2.800000,0.420000,-1.540000
36.187926,-0.263520,0.055632,0.968680,-0.140000,-1.820000,-0.700000
36.196013,-0.176168,-0.034648,1.014064,1.260000,-2.380000,-0.980000
36.204100,-0.205448,0.030256,0.981856,0.980000,-3.080000,-0.560000
36.212187,-0.213744,0.001952,1.024312,0.280000,-0.980000,-0.840000
36.220274,-0.210328,0.016592,0.919880,1.400000,-2.520000,-1.400000
36.228362,-0.148840,-0.021960,1.011624,0.840000,-4.760000,-0.700000
36.236449,-0.202520,0.027816,0.999424,0.280000,-1.540000,-0.840000
36.244536,-0.212768,0.004392,0.954040,1.960000,-1.260000,-1.400000
36.252623,-0.131760,-0.003416,1.001376,-1.260000,-3.920000,-0.280000
36.260710,-0.184464,-0.000488,1.020896,2.520000,0.000000,-0.700000
36.268798,-0.259128,0.055632,0.892064,0.420000,-0.560000,-1.400000
36.276885,-0.163480,-0.015128,1.046272,0.000000,-5.040000,-0.420000
36.284972,-0.167384,0.011712,1.038952,1.680000,-2.100000,-0.560000
36.293059,-0.200568,0.041480,1.010160,0.980000,-1.260000,-0.980000
36.301146,-0.214720,-0.004880,0.920368,0.980000,-2.520000,-0.980000
36.309234,-0.162504,-0.022936,1.027728,1.120000,-3.780000,-0.700000
36.317321,-0.178120,0.016104,0.949648,0.000000,-0.840000,-0.420000
36.325408,-0.188856,0.024400,1.026752,1.960000,-1.680000,-1.260000
36.333495,-0.184952,0.011224,0.933056,-0.560000,-2.240000,-0.980000
36.341582,-0.182512,-0.009272,0.991616,1.960000,-4.200000,-0.280000
36.349670,-0.221064,0.040016,0.988200,0.980000,-2.940000,-0.980000
36.357757,-0.150792,0.018544,0.994544,0.560000,-3.640000,-0.980000
36.365844,-0.142496,-0.033184,1.057984,0.280000,-1.960000,-0.560000
36.373931,-0.225944,0.045872,0.966240,1.540000,0.000000,-1.120000
36.382018,-0.221064,0.034160,0.987224,0.840000,-2.380000,-0.560000
36.390106,-0.144936,-0.020984,1.013576,-0.280000,-3.360000,-0.840000
36.398193,-0.185928,0.015616,1.025776,2.380000,-0.700000,-0.980000
36.406280,-0.238144,0.027816,0.961360,0.700000,-1.540000,-0.700000
36.414367,-0.181048,-0.016592,0.958432,0.700000,-2.520000,-0.700000
36.422454,-0.139568,-0.012688,0.973072,0.000000,-2.660000,-0.840000
36.430542,-0.210816,0.000976,0.995520,1.820000,-1.120000,-1.120000
36.438629,-0.180560,0.052216,0.937936,-0.840000,-2.940000,0.000000
36.446716,-0.112728,-0.009760,1.079944,2.240000,-2.800000,-1.120000
36.454803,-0.214232,0.044896,1.007720,0.700000,0.700000,-1.120000
36.462890,-0.186416,-0.008784,0.951600,0.840000,-1.400000,-0.560000
36.470978,-0.185928,0.008296,1.025776,0.840000,-2.800000,-0.560000
36.479065,-0.187392,0.024400,1.003328,0.840000,-0.840000,-0.840000
36.487152,-0.207400,0.013664,0.961360,1.540000,-2.520000,-1.260000
36.495239,-0.174704,-0.010248,1.003816,0.280000,-3.080000,-0.420000
36.503326,-0.123952,-0.007808,1.027728,0.420000,-1.960000,-0.280000
36.511414,-0.207888,0.036112,0.946720,2.660000,-1.400000,-0.980000
36.519501,-0.168360,0.018544,1.014064,-0.840000,-1.540000,-0.560000
36.527588,-0.147864,-0.045872,0.940864,1.960000,-1.400000,-1.120000
36.535675,-0.223504,0.042944,1.004304,1.260000,-1.120000,-0.560000
36.543762,-0.206912,0.048800,0.996984,0.280000,-2.380000,-0.700000
36.551850,-0.140544,0.000976,1.010160,0.280000,-3.640000,-0.980000
36.559937,-0.174216,-0.034160,0.948184,1.960000,-1.540000,-1.120000
36.568024,-0.202520,0.044896,1.034072,-0.140000,-1.540000,-0.140000
36.576111,-0.142496,0.014640,1.001864,1.400000,-1.820000,-0.980000
36.584198,-0.156648,-0.014152,0.996008,1.120000,-2.380000,-0.840000
36.592286,-0.194712,0.023912,1.044808,0.140000,0.280000,-0.840000
36.600373,-0.178120,0.006832,0.966240,2.800000,-0.140000,-0.700000
36.608460,-0.197152,0.015616,0.976488,-1.680000,-0.560000,-0.280000
36.616547,-0.143472,-0.013176,0.976000,2.520000,-1.260000,-1.260000
36.624634,-0.185440,0.054168,0.973072,-0.700000,-0.420000,-0.840000
36.632722,-0.180560,-0.033184,0.983320,0.700000,-1.820000,-0.840000
36.640809,-0.159576,-0.004880,0.999424,1.680000,-2.520000,-0.700000
36.648896,-0.152744,0.052216,1.032608,0.700000,-0.700000,-0.420000
36.656983,-0.181536,0.008784,1.018456,0.420000,0.140000,-1.260000
36.665070,-0.178120,-0.016104,0.943304,1.260000,-0.980000,-0.560000
36.673158,-0.181048,0.046360,1.076528,1.260000,-0.140000,-0.420000
36.681245,-0.186416,0.036600,0.989176,0.000000,0.420000,-1.120000
36.689332,-0.172264,-0.031232,1.001376,1.960000,-1.120000,-0.700000
36.697419,-0.171776,0.023912,0.965264,0.560000,-1.120000,-0.420000
36.705506,-0.144448,0.008784,1.036024,1.260000,1.260000,-0.700000
36.713593,-0.196176,0.006344,0.967216,1.400000,0.700000,-1.960000
36.721681,-0.143472,-0.019520,0.967704,0.000000,0.700000,0.000000
36.729768,-0.162016,0.021472,1.036024,0.840000,2.380000,-0.980000
36.737855,-0.191296,0.018056,0.925736,1.260000,1.960000,-1.400000
36.745942,-0.176656,0.016592,1.019432,-0.980000,-0.280000,-0.140000
36.754029,-0.147376,-0.021472,1.015528,3.360000,1.260000,-1.400000
36.762117,-0.236192,0.079544,0.979904,-0.840000,1.400000,-0.140000
36.770204,-0.151280,-0.030744,1.036512,2.100000,0.140000,-1.540000
36.778291,-0.161040,0.001464,0.901824,0.560000,-0.700000,-0.840000
36.786378,-0.193736,0.011224,1.048712,0.560000,0.840000,-0.700000
36.794465,-0.179584,0.012688,0.919392,1.820000,-0.420000,-1.260000
36.802553,-0.126392,-0.005856,1.035048,0.420000,-1.400000,-0.280000
36.810640,-0.141520,0.009272,1.031144,1.120000,1.820000,-1.400000
36.818727,-0.227896,0.033184,0.941840,1.120000,2.240000,-0.280000
36.826814,-0.178120,0.004880,1.001864,-0.140000,-0.420000,-0.840000
36.834901,-0.144936,-0.020496,0.962336,1.680000,0.000000,-1.120000
36.842989,-0.190808,0.060024,1.066768,-0.980000,2.240000,-0.140000
36.851076,-0.192760,-0.006344,0.926712,3.080000,0.980000,-1.400000
36.859163,-0.173728,0.014152,1.011624,-0.560000,-0.840000,-0.280000
36.867250,-0.175680,-0.004880,1.020408,1.960000,1.400000,-1.120000
36.875337,-0.207888,0.018056,0.921344,-0.280000,-0.980000,-0.980000
36.883425,-0.123464,-0.022936,1.079944,1.540000,-0.840000,-0.980000
36.891512,-0.159576,0.034648,0.931104,0.140000,1.820000,-0.560000
36.899599,-0.201056,0.026352,1.022360,1.260000,1.120000,-0.840000
36.907686,-0.183976,0.012688,0.931592,0.980000,-0.700000,-1.260000
36.915773,-0.156648,-0.004880,1.032120,0.840000,-0.700000,-0.140000
36.923861,-0.193248,0.032208,1.094096,0.840000,1.120000,-0.700000
36.931948,-0.214720,0.009760,0.913536,1.120000,2.100000,-0.840000
36.940035,-0.122976,-0.011224,1.030168,0.000000,0.140000,-0.560000
36.948122,-0.159088,0.025376,0.996008,1.260000,1.400000,-1.540000
36.956209,-0.214232,0.004392,0.932080,0.700000,1.680000,-0.280000
36.964297,-0.165920,0.005856,1.010160,2.100000,-1.820000,-0.840000
36.972384,-0.157136,-0.002440,1.017480,0.840000,0.700000,-0.840000
36.980471,-0.176656,0.026840,1.015528,-0.420000,1.960000,-0.840000
36.988558,-0.157624,-0.009272,0.944280,2.520000,0.420000,-1.400000
36.996645,-0.168360,0.020008,1.001376,0.000000,0.700000,-0.700000
37.004733,-0.159576,0.013176,0.938424,0.280000,1.260000,-0.840000
37.012820,-0.199104,0.012688,0.983808,2.520000,-1.260000,-0.980000
37.020907,-0.136152,0.004880,0.996008,-0.280000,-2.100000,-0.140000
37.028994,-0.164944,-0.011712,1.060424,1.680000,1.260000,-0.980000
37.037081,-0.243512,0.053680,0.955016,0.700000,2.240000,-1.540000
37.045169,-0.133712,-0.003904,1.015040,0.840000,-0.980000,-0.420000
37.053256,-0.185928,0.005368,1.048224,0.700000,1.540000,-0.980000
37.061343,-0.204472,0.045384,0.954528,0.000000,2.240000,-0.840000
37.069430,-0.151768,-0.016592,1.013576,1.820000,-1.400000,-0.560000
37.077517,-0.155184,0.005368,0.955504,0.000000,-0.280000,-0.420000
37.085605,-0.199592,0.013664,1.045296,1.540000,0.980000,-0.560000
37.093692,-0.205936,-0.003416,0.887184,1.120000,0.280000,-1.540000
37.101779,-0.122976,-0.003904,1.011624,0.140000,-2.520000,-0.700000
37.109866,-0.167872,0.000976,0.989176,0.840000,0.420000,-0.980000
37.117953,-0.211304,0.029280,0.975512,1.820000,-0.140000,-1.120000
37.126041,-0.123952,0.012200,1.021872,-0.560000,-1.540000,-0.280000
37.134128,-0.124440,0.002440,0.990640,1.540000,0.700000,-1.260000
37.142215,-0.273768,0.023912,0.981856,1.820000,0.700000,-0.980000
37.150302,-0.122000,0.021960,1.024312,-0.560000,-1.680000,-0.560000
37.158389,-0.116144,-0.014640,1.024312,2.520000,0.980000,-0.700000
37.166477,-0.245952,0.042944,0.989664,-0.420000,3.080000,-0.980000
37.174564,-0.175680,0.023424,0.958432,1.680000,0.000000,-1.120000
37.182651,-0.157136,-0.008296,1.037000,0.700000,-1.680000,-0.280000
37.190738,-0.178608,0.011712,0.995520,0.840000,1.260000,-1.400000
37.198825,-0.217648,0.000488,0.969168,1.540000,-0.560000,-0.840000
37.206913,-0.152256,0.009272,1.020896,-0.420000,-1.960000,-0.280000
37.215000,-0.124440,-0.010736,1.016016,2.240000,1.820000,-0.840000
37.223087,-0.210816,0.061000,0.928664,0.420000,0.980000,-1.680000
37.231174,-0.141520,-0.039040,0.999912,-0.280000,-0.980000,-0.420000
37.239261,-0.178120,-0.010248,0.960872,1.680000,1.400000,-1.400000
37.247348,-0.175192,0.052216,0.971120,0.560000,0.000000,-0.420000
37.255436,-0.145424,0.009272,1.063352,0.420000,0.420000,-0.700000
37.263523,-0.154696,0.000488,0.949648,1.400000,0.840000,-1.120000
37.271610,-0.192760,0.028792,1.046760,1.260000,0.840000,-0.560000
37.279697,-0.204960,0.032696,0.968192,0.700000,0.840000,-1.540000
37.287784,-0.129320,-0.019520,1.011624,0.700000,-1.540000,-0.280000
37.295872,-0.186416,0.028304,1.039928,1.400000,1.260000,-0.840000
37.303959,-0.198616,0.010736,0.968680,1.120000,1.120000,-0.560000
37.312046,-0.123952,0.011224,1.006256,-0.140000,-0.840000,-0.560000
37.320133,-0.157136,0.007320,0.967704,1.820000,0.840000,-1.260000
37.328220,-0.242048,0.003904,0.999912,1.260000,1.260000,-0.560000
37.336308,-0.158600,0.013176,0.972584,-0.980000,-0.140000,-0.840000
37.344395,-0.118096,-0.032208,1.016016,1.820000,0.000000,-0.840000
37.352482,-0.199592,0.033184,0.937448,0.980000,1.960000,-1.260000
37.360569,-0.186904,0.021960,0.996008,0.280000,0.840000,-0.560000
37.368656,-0.162992,-0.005856,0.993080,0.980000,-0.420000,-0.700000
37.376744,-0.154696,0.027816,0.990640,0.700000,-0.280000,-0.840000
37.384831,-0.184464,0.002928,1.022360,0.840000,1.120000,-1.120000
37.392918,-0.144936,-0.015616,0.937936,0.000000,0.700000,-0.560000
37.401005,-0.193736,0.047336,1.060424,2.100000,0.420000,-0.560000
37.409092,-0.204960,0.053680,0.997472,0.840000,0.420000,-1.540000
37.417180,-0.147864,-0.023912,1.021872,0.420000,-0.700000,-0.140000
37.425267,-0.169336,-0.008296,1.029192,1.680000,1.540000,-0.980000
37.433354,-0.167384,0.046360,0.968680,0.980000,2.800000,-0.560000
37.441441,-0.114680,0.010248,1.032608,0.980000,0.420000,-0.980000
37.449528,-0.203008,-0.030256,0.902800,0.840000,2.520000,-1.400000
37.457616,-0.191784,0.004392,0.984784,1.400000,0.840000,-0.420000
37.465703,-0.185928,0.039528,0.984784,1.260000,0.280000,-0.840000
37.473790,-0.130296,-0.013176,1.008208,-0.840000,0.420000,-0.840000
37.481877,-0.165432,-0.008296,1.001864,2.100000,1.820000,-0.980000
37.489964,-0.216184,0.037088,0.979416,0.560000,1.960000,-0.140000
37.498052,-0.155184,0.012688,1.037976,0.280000,1.120000,-1.120000
37.506139,-0.145424,-0.018056,0.959408,1.960000,1.960000,-1.120000
37.514226,-0.184464,0.036600,1.033584,0.560000,3.640000,-0.700000
37.522313,-0.190320,-0.001952,0.946232,0.140000,2.940000,-0.980000
37.530400,-0.138592,-0.001952,1.013088,1.680000,1.400000,-0.700000
37.538488,-0.199104,0.046848,1.031632,-0.140000,4.060000,-0.980000
37.546575,-0.183488,-0.009760,0.948184,1.540000,2.940000,-0.980000
37.554662,-0.185440,0.013176,0.996984,0.560000,1.260000,-0.700000
37.562749,-0.162992,0.003904,1.004792,1.260000,1.820000,-0.560000
37.570836,-0.182512,0.021960,1.017968,1.400000,2.520000,-0.980000
37.578924,-0.165432,-0.018544,0.941840,1.120000,1.260000,-0.700000
37.587011,-0.147864,0.019032,1.021872,0.280000,2.380000,-0.980000
37.595098,-0.199104,0.015128,0.985760,1.680000,2.800000,-0.840000
37.603185,-0.152256,-0.011224,0.977464,-0.140000,1.820000,-0.420000
37.611272,-0.145912,0.012688,1.000888,0.980000,3.780000,-1.540000
37.619360,-0.168360,0.027328,0.985272,1.540000,3.500000,-0.840000
37.627447,-0.224480,0.012688,1.016992,-0.140000,3.780000,-1.260000
37.635534,-0.143960,-0.017080,0.944280,2.100000,1.260000,-0.840000
37.643621,-0.173728,0.052216,1.068232,0.840000,3.500000,-0.280000
37.651708,-0.219112,0.025864,1.022360,0.000000,4.200000,-1.540000
37.659796,-0.190808,-0.031720,0.907192,2.380000,3.220000,-0.840000
37.667883,-0.193248,0.028792,1.047248,-0.700000,2.940000,-0.420000
37.675970,-0.158600,0.029280,0.984784,1.960000,3.500000,-1.400000
37.684057,-0.199592,-0.006344,0.939400,1.120000,1.540000,-0.840000
37.692144,-0.164944,-0.020008,1.036512,-0.420000,1.120000,-0.980000
37.700232,-0.170312,0.033672,1.017968,3.080000,3.360000,-0.840000
37.708319,-0.218624,0.020496,0.967704,-0.420000,3.920000,-0.840000
37.716406,-0.130296,-0.019520,0.973072,1.820000,0.560000,-1.120000
37.724493,-0.175680,0.012688,1.039440,1.260000,3.360000,-0.420000
37.732580,-0.208376,0.034160,1.002352,0.000000,4.060000,-1.400000
37.740668,-0.146400,-0.002440,0.929640,2.660000,2.100000,-0.560000
37.748755,-0.164944,0.021472,1.052616,-0.420000,3.360000,-0.840000
37.756842,-0.194712,-0.009272,0.931104,1.260000,3.780000,-1.540000
37.764929,-0.199104,-0.004392,0.958920,1.680000,2.940000,-0.560000
37.773016,-0.157136,0.035624,1.022848,-0.560000,2.240000,-0.280000
37.781104,-0.198128,0.026352,1.014064,2.380000,3.500000,-1.540000
37.789191,-0.201056,0.015128,0.937936,0.000000,2.240000,-0.840000
37.797278,-0.146888,-0.040504,1.060912,1.400000,2.800000,-0.560000
37.805365,-0.222528,0.056120,1.006744,0.560000,5.040000,-1.260000
37.813452,-0.214720,0.022936,0.927688,0.840000,2.380000,-0.700000
37.821540,-0.150792,-0.027328,1.014552,1.680000,0.840000,-0.700000
37.829627,-0.165432,0.009760,1.027728,1.400000,2.520000,-0.840000
37.837714,-0.220088,0.018544,0.993080,0.560000,4.900000,-0.700000
37.845801,-0.182512,0.026352,0.950624,0.980000,1.680000,-0.980000
37.853888,-0.151280,-0.014640,1.025776,0.980000,1.820000,-0.840000
37.861976,-0.206424,0.011224,0.922808,1.260000,4.620000,-1.820000
37.870063,-0.210328,0.017568,0.915000,1.400000,1.120000,-1.400000
37.878150,-0.136640,-0.009760,0.974048,-0.840000,-0.560000,-0.560000
37.886237,-0.214720,0.004392,1.041880,2.100000,1.260000,-1.120000
37.894324,-0.264984,0.053192,0.907680,0.000000,-0.420000,-1.260000
37.902412,-0.192272,0.021960,1.026264,1.540000,-5.880000,-0.140000
37.910499,-0.158600,-0.005856,0.981368,0.140000,-4.620000,-0.840000
37.918586,-0.214232,-0.000488,1.008696,1.960000,-2.660000,-1.260000
37.926673,-0.180560,0.036112,0.944768,0.280000,-5.040000,-0.140000
37.934760,-0.131760,-0.034648,1.087752,1.120000,-3.920000,-0.700000
37.942848,-0.224968,0.030256,0.905240,1.680000,-0.700000,-1.820000
37.950935,-0.243512,0.008296,0.836920,0.000000,-5.460000,-0.700000
37.959022,-0.192272,-0.001952,0.979904,0.420000,-10.360000,-0.560000
37.967109,-0.167384,0.013176,1.035048,1.120000,-10.500000,-0.700000
37.975196,-0.200568,0.026840,1.042856,0.700000,-6.860000,-0.980000
37.983284,-0.180072,0.030256,0.947696,0.420000,-8.960000,-0.840000
37.991371,-0.129808,-0.027328,1.024800,0.560000,-9.800000,-0.140000
37.999458,-0.204472,0.017080,1.041392,1.260000,-5.460000,-1.120000
38.007545,-0.173728,0.039528,0.895968,0.420000,-8.400000,-0.560000
38.015632,-0.143960,-0.012200,1.073112,1.120000,-9.800000,-0.560000
38.023720,-0.208864,0.000488,0.970632,0.700000,-7.280000,-1.260000
38.031807,-0.182512,0.030744,0.979416,1.400000,-9.380000,0.140000
38.039894,-0.122488,-0.005368,1.006256,0.700000,-9.240000,-0.980000
38.047981,-0.126392,0.003416,0.960384,0.280000,-7.560000,-0.980000
38.056068,-0.197152,-0.007808,0.975512,1.400000,-7.140000,-0.560000
38.064156,-0.180072,0.032696,0.985272,0.140000,-8.960000,-0.980000
38.072243,-0.121024,-0.010248,0.983320,0.420000,-9.800000,-0.280000
38.080330,-0.182024,0.008296,1.020408,2.520000,-6.720000,-0.840000
38.088417,-0.164456,0.040016,0.996984,-1.400000,-7.700000,-0.840000
38.096504,-0.163968,-0.020984,0.980392,1.960000,-7.980000,-0.420000
38.104592,-0.172264,0.019032,1.012600,0.840000,-8.540000,-0.560000
38.112679,-0.142008,0.047336,0.968192,0.560000,-8.260000,-0.560000
38.120766,-0.143472,-0.014152,1.032120,0.980000,-7.980000,-0.700000
38.128853,-0.162016,0.019032,0.968680,-0.280000,-8.260000,-0.420000
38.136940,-0.166408,0.023424,1.068232,2.100000,-8.680000,-0.420000
38.145027,-0.201544,0.016592,0.954040,0.140000,-9.380000,-1.120000
38.153115,-0.138592,-0.037088,0.941840,0.560000,-10.360000,-0.560000
38.161202,-0.126392,0.014640,0.976000,0.980000,-11.060000,-0.420000
38.169289,-0.167384,0.019520,1.009184,0.980000,-9.940000,-1.260000
38.177376,-0.124928,-0.008296,0.942328,-0.140000,-11.340000,-0.280000
38.185463,-0.140056,-0.003904,1.066768,1.260000,-10.920000,-0.140000
38.193551,-0.177144,0.059048,0.992592,0.980000,-8.960000,-0.840000
38.201638,-0.086376,0.003904,0.966240,-0.420000,-11.060000,-0.420000
38.209725,-0.144936,-0.029280,0.996008,1.820000,-9.660000,-0.980000
38.217812,-0.173728,0.030256,1.021384,0.140000,-9.240000,-0.560000
38.225899,-0.141520,0.028792,0.965752,0.420000,-10.220000,-0.560000
38.233987,-0.126880,0.001952,0.944280,1.820000,-13.300000,-0.420000
38.242074,-0.126392,0.024400,1.081408,-0.140000,-11.200000,-0.560000
38.250161,-0.133224,-0.011712,1.006256,0.840000,-9.940000,-0.980000
38.258248,-0.134688,0.003416,1.003328,1.960000,-12.040000,0.140000
38.266335,-0.112240,0.009760,1.024312,0.700000,-9.380000,-0.560000
38.274423,-0.166896,0.029280,0.976488,0.280000,-8.120000,-1.680000
38.282510,-0.096624,0.009760,0.976488,-0.700000,-11.060000,-0.420000
38.290597,-0.081496,-0.015128,1.044320,2.100000,-10.640000,-0.280000
38.298684,-0.160064,0.065880,1.017480,0.560000,-8.820000,-0.560000
38.306771,-0.142984,0.015128,0.963312,0.840000,-8.680000,-0.700000
38.314859,-0.133712,-0.014640,1.027728,-0.140000,-11.200000,-0.700000
38.322946,-0.080032,-0.000488,1.035048,1.260000,-10.220000,-0.280000
38.331033,-0.160552,0.027816,0.995032,1.820000,-8.680000,-0.560000
38.339120,-0.066368,0.019032,1.032608,-1.540000,-9.660000,-0.420000
38.347207,-0.075640,-0.012200,1.014064,2.940000,-7.840000,-1.120000
38.355295,-0.197152,0.013664,0.939888,0.000000,-7.140000,-0.560000
38.363382,-0.118584,-0.009760,0.963312,0.140000,-10.220000,-0.560000
38.371469,-0.069784,-0.013176,1.046760,2.100000,-10.500000,-0.560000
38.379556,-0.083448,0.032208,0.990152,-0.560000,-7.420000,-0.420000
38.387643,-0.136152,-0.003904,0.992104,3.080000,-8.120000,-0.980000
38.395731,-0.136152,0.001952,0.984296,-0.980000,-9.520000,-0.420000
38.403818,-0.077592,0.018056,1.003816,0.560000,-9.380000,-0.840000
38.411905,-0.104920,0.031720,0.998936,1.400000,-10.360000,-0.840000
38.419992,-0.074176,0.002440,1.005768,-0.700000,-11.200000,-0.140000
38.428079,-0.078568,-0.014152,1.038952,2.660000,-8.400000,-0.840000
38.436167,-0.153232,0.050752,0.991616,0.140000,-6.440000,-0.700000
38.444254,-0.074176,0.013176,1.006256,-0.140000,-10.220000,-0.280000
38.452341,-0.061000,-0.023424,0.994544,1.960000,-9.100000,-0.560000
38.460428,-0.143472,0.043432,1.055056,-0.280000,-6.440000,-0.840000
38.468515,-0.089304,0.053192,0.992104,0.700000,-9.240000,-0.560000
38.476603,-0.107360,-0.014152,1.036512,0.980000,-9.100000,-0.840000
38.484690,-0.122976,-0.014152,0.974048,0.560000,-9.240000,-0.840000
38.492777,-0.099552,0.041968,1.022360,1.400000,-8.260000,-0.280000
38.500864,-0.087352,0.011224,1.017480,-0.560000,-8.960000,-1.540000
38.508951,-0.074664,-0.018056,0.976976,0.700000,-9.940000,-0.560000
38.517039,-0.117608,0.019520,1.018456,1.960000,-7.980000,-0.280000
38.525126,-0.086864,0.002928,0.962824,-0.420000,-8.400000,-0.840000
38.533213,-0.006832,-0.012688,1.030168,0.420000,-8.680000,-0.700000
38.541300,-0.092720,0.026840,0.991128,0.980000,-8.260000,-0.560000
38.549387,-0.119560,0.022936,1.021384,0.420000,-8.260000,-0.700000
38.557475,-0.083936,-0.008784,1.014064,0.840000,-8.400000,-0.980000
38.565562,-0.021960,-0.006344,1.004304,1.120000,-9.380000,0.140000
38.573649,-0.077104,0.042456,1.057496,1.260000,-6.580000,-0.700000
38.581736,-0.100528,-0.003904,0.970632,-0.560000,-6.720000,-1.260000
38.589823,-0.038552,-0.003904,0.991616,1.680000,-8.540000,0.000000
38.597911,-0.092720,0.034160,1.081408,0.980000,-7.000000,-0.420000
38.605998,-0.075640,-0.002928,0.931592,-0.280000,-6.020000,-1.400000
38.614085,-0.058072,-0.024400,1.011624,2.240000,-7.560000,-0.280000
38.622172,-0.076128,0.026840,1.055056,-0.280000,-5.880000,-0.560000
38.630259,-0.078080,0.016104,0.969656,0.840000,-4.480000,-1.120000
38.638347,0.000488,-0.019032,1.066280,1.260000,-4.900000,-0.560000
38.646434,-0.086864,0.039528,1.118984,-0.700000,0.700000,-0.840000
38.654521,-0.102968,-0.006832,0.939400,1.260000,1.540000,-0.840000
38.662608,-0.043432,0.017568,0.989176,0.560000,-2.660000,-1.120000
38.670695,-0.045872,-0.006344,0.951600,0.840000,-2.660000,-0.420000
38.678783,-0.051240,0.005856,1.075064,0.840000,-1.540000,-0.140000
38.686870,-0.084912,0.028304,0.945744,1.680000,-0.420000,-1.540000
38.694957,-0.049776,0.021960,1.020896,-0.840000,-3.360000,-0.140000
38.703044,-0.085888,0.005368,1.047736,1.120000,-1.260000,-1.540000
38.711131,-0.130784,0.024400,0.951600,2.100000,-2.800000,-0.840000
38.719219,0.015128,-0.014640,1.069208,-0.420000,-4.340000,0.000000
38.727306,-0.017568,0.008296,1.090680,2.100000,0.980000,-1.260000
38.735393,-0.147864,0.025864,0.931104,1.120000,2.800000,-1.260000
38.743480,-0.039528,0.035136,1.076040,-0.280000,-2.100000,0.140000
38.751567,-0.028304,-0.020496,1.008208,3.360000,0.560000,-1.120000
38.759655,-0.101504,0.016592,0.991128,-0.980000,1.680000,-0.420000
38.767742,-0.078080,-0.006344,1.054080,2.520000,2.660000,-1.260000
38.775829,-0.050752,0.000976,0.920856,0.000000,0.700000,-0.560000
38.783916,-0.043432,-0.018544,1.006256,0.140000,0.840000,-0.700000
38.792003,-0.128344,0.036600,0.944768,2.940000,-0.560000,-1.400000
38.800091,-0.058560,0.013176,1.017480,-1.680000,-0.840000,0.420000
38.808178,0.003416,0.002928,1.047736,1.960000,0.420000,-1.120000
38.816265,-0.134688,0.034648,0.965264,1.400000,1.400000,-1.400000
38.824352,-0.119072,0.015128,1.008696,-0.980000,-2.940000,-0.280000
38.832439,0.006344,-0.043432,1.080432,1.680000,-2.660000,-0.700000
38.840527,-0.083448,0.036112,0.977464,2.240000,0.280000,-1.120000
38.848614,-0.082472,0.037088,1.057008,-0.420000,0.420000,-0.420000
38.856701,-0.013664,-0.017568,1.023824,1.120000,0.140000,-1.540000
38.864788,-0.073200,0.013176,0.967704,1.400000,0.700000,-0.420000
38.872875,-0.103944,0.021960,1.034560,0.840000,0.980000,-0.420000
38.880963,-0.020008,0.008784,0.974536,0.700000,-0.700000,-1.260000
38.889050,-0.068320,-0.007320,1.013088,1.120000,1.400000,-0.700000
38.897137,-0.091744,0.026352,1.019432,0.700000,1.820000,-1.120000
38.905224,-0.028792,0.005368,0.976488,0.420000,0.420000,-0.420000
38.913311,-0.023912,-0.015616,1.034072,0.980000,1.400000,-0.560000
38.921399,-0.096624,0.027816,0.943792,0.840000,3.080000,-1.540000
38.929486,-0.092720,0.015616,1.004304,1.400000,-0.560000,-0.140000
38.937573,-0.080520,0.003416,1.033096,-0.700000,-0.280000,-1.120000
38.945660,-0.040992,-0.007808,1.008696,2.240000,0.420000,-0.840000
38.953747,-0.102480,0.078568,1.006744,0.420000,0.840000,-0.700000
38.961835,-0.076616,-0.025376,0.981368,0.560000,-2.240000,-1.260000
38.969922,-0.074664,-0.015616,1.077016,1.540000,-0.840000,-0.420000
38.978009,-0.071248,0.033184,0.991616,0.980000,0.280000,-0.700000
38.986096,-0.059048,-0.000976,0.997960,1.400000,-0.420000,-0.280000
38.994183,-0.040504,-0.001464,1.060424,0.280000,2.100000,-1.540000
39.002271,-0.107848,0.015616,0.900848,0.560000,1.400000,-0.560000
39.010358,-0.063440,0.013176,1.022360,1.260000,-1.960000,-0.420000
39.018445,-0.063928,-0.027328,1.003328,0.840000,-0.560000,-1.680000
39.026532,-0.042456,0.034160,1.025776,0.700000,-0.700000,-0.140000
39.034619,-0.049776,0.017080,1.055544,1.540000,0.700000,-1.260000
39.042707,-0.104432,-0.008784,0.915488,-0.420000,0.420000,-1.260000
39.050794,-0.030256,0.006832,1.075064,1.120000,-0.840000,0.140000
39.058881,-0.060024,0.035624,0.995520,2.100000,0.700000,-0.700000
39.066968,-0.075640,-0.011224,0.974048,0.280000,0.980000,-1.260000
39.075055,-0.034648,-0.031232,0.946720,0.700000,0.700000,-1.120000
39.083143,-0.083448,0.025376,1.042856,0.700000,0.840000,-0.700000
39.091230,-0.084424,0.034160,0.998448,0.840000,0.140000,-0.840000
39.099317,-0.064416,0.016592,1.026264,0.840000,0.420000,-0.840000
39.107404,-0.043432,0.025864,1.048712,0.000000,-0.560000,-0.560000
39.115491,-0.092720,0.003416,1.035536,1.680000,1.680000,-0.840000
39.123579,-0.105896,0.015128,0.959896,0.700000,-0.560000,-0.840000
39.131666,-0.039040,0.002440,1.021384,0.840000,-2.100000,-0.280000
39.139753,-0.071248,0.017568,1.036512,1.400000,-0.420000,-1.120000
39.147840,-0.079544,-0.003904,0.958432,0.840000,0.420000,-0.980000
39.155927,0.025376,-0.018056,1.033584,0.140000,-0.980000,-0.140000
39.164015,-0.062464,0.037576,1.041392,1.540000,1.960000,-1.400000
