Time [s],lsm6dsv16x_acc_x [g],lsm6dsv16x_acc_y [g],lsm6dsv16x_acc_z [g],lsm6dsv16x_gyro_x [dps],lsm6dsv16x_gyro_y [dps],lsm6dsv16x_gyro_z [dps]
0.689071,-0.014152,0.026840,1.009184,-0.700000,-0.420000,-0.420000
0.693137,-0.014640,0.026352,1.007720,-0.560000,-0.420000,-0.420000
0.697204,-0.014152,0.025864,1.007720,-0.700000,-0.420000,-0.420000
0.701270,-0.014640,0.025864,1.008208,-0.700000,-0.280000,-0.420000
0.705337,-0.014640,0.025864,1.008696,-0.560000,-0.420000,-0.420000
0.709403,-0.014640,0.026352,1.007720,-0.700000,-0.420000,-0.420000
0.713469,-0.014640,0.026840,1.008208,-0.560000,-0.420000,-0.420000
0.717536,-0.015128,0.026840,1.009184,-0.700000,-0.420000,-0.420000
0.721602,-0.014152,0.025864,1.010160,-0.700000,-0.420000,-0.420000
0.725669,-0.015128,0.026840,1.007720,-0.560000,-0.560000,-0.420000
0.729735,-0.014640,0.026840,1.007232,-0.560000,-0.420000,-0.420000
0.733802,-0.013664,0.026352,1.007720,-0.560000,-0.420000,-0.420000
0.737868,-0.014640,0.026352,1.008696,-0.700000,-0.420000,-0.420000
0.741935,-0.015616,0.025864,1.007720,-0.560000,-0.280000,-0.420000
0.746001,-0.015128,0.026352,1.007720,-0.560000,-0.420000,-0.420000
0.750068,-0.014640,0.027328,1.007720,-0.700000,-0.420000,-0.420000
0.754134,-0.013664,0.025376,1.006256,-0.700000,-0.280000,-0.420000
0.758201,-0.013176,0.025376,1.008208,-0.560000,-0.420000,-0.420000
0.762267,-0.014640,0.026840,1.008208,-0.560000,-0.420000,-0.420000
0.766333,-0.014640,0.026352,1.008696,-0.560000,-0.420000,-0.280000
0.770400,-0.016104,0.026840,1.007720,-0.560000,-0.280000,-0.420000
0.774466,-0.015616,0.025376,1.009672,-0.700000,-0.560000,-0.420000
0.778533,-0.015616,0.026840,1.007232,-0.560000,-0.420000,-0.280000
0.782599,-0.014640,0.026352,1.007720,-0.560000,-0.280000,-0.420000
0.786666,-0.014640,0.026840,1.008696,-0.560000,-0.280000,-0.420000
0.790732,-0.015128,0.026840,1.007720,-0.560000,-0.420000,-0.420000
0.794799,-0.015616,0.026352,1.008208,-0.700000,-0.420000,-0.420000
0.798865,-0.014640,0.026840,1.009184,-0.700000,-0.560000,-0.420000
0.802932,-0.014152,0.026840,1.009184,-0.700000,-0.420000,-0.420000
0.806998,-0.014152,0.026840,1.008208,-0.560000,-0.420000,-0.420000
0.811065,-0.015128,0.026352,1.008696,-0.700000,-0.420000,-0.280000
0.815131,-0.015616,0.025864,1.008696,-0.560000,-0.420000,-0.280000
0.819197,-0.015616,0.026840,1.009184,-0.560000,-0.420000,-0.280000
0.823264,-0.014640,0.026840,1.007720,-0.560000,-0.420000,-0.420000
0.827330,-0.014640,0.026352,1.007720,-0.560000,-0.420000,-0.420000
0.831397,-0.014152,0.026840,1.008208,-0.700000,-0.560000,-0.280000
0.835463,-0.014152,0.026352,1.008208,-0.560000,-0.420000,-0.420000
0.839530,-0.014640,0.026840,1.007720,-0.420000,-0.420000,-0.420000
0.843596,-0.014640,0.026840,1.007720,-0.560000,-0.560000,-0.420000
0.847663,-0.013664,0.027328,1.006744,-0.560000,-0.420000,-0.420000
0.851729,-0.013664,0.026352,1.008696,-0.560000,-0.420000,-0.280000
0.855796,-0.014152,0.026840,1.008208,-0.560000,-0.420000,-0.280000
0.859862,-0.014640,0.026352,1.008208,-0.560000,-0.420000,-0.420000
0.863929,-0.015128,0.025376,1.009184,-0.560000,-0.420000,-0.420000
0.867995,-0.013664,0.026840,1.008208,-0.560000,-0.420000,-0.420000
0.872061,-0.015128,0.026840,1.008208,-0.560000,-0.420000,-0.420000
0.876128,-0.014640,0.027328,1.007720,-0.700000,-0.560000,-0.420000
0.880194,-0.014640,0.025864,1.008696,-0.560000,-0.420000,-0.420000
0.884261,-0.015616,0.026352,1.008208,-0.700000,-0.560000,-0.420000
0.888327,-0.014152,0.026352,1.008208,-0.560000,-0.420000,-0.420000
0.892394,-0.014640,0.026352,1.009672,-0.700000,-0.280000,-0.420000
0.896460,-0.015128,0.025864,1.008696,-0.420000,-0.420000,-0.420000
0.900527,-0.015128,0.025864,1.008208,-0.560000,-0.420000,-0.420000
0.904593,-0.015616,0.025864,1.007720,-0.560000,-0.420000,-0.420000
0.908660,-0.014152,0.026352,1.009184,-0.700000,-0.420000,-0.420000
0.912726,-0.013176,0.025376,1.009672,-0.560000,-0.560000,-0.420000
0.916793,-0.014152,0.026352,1.009184,-0.560000,-0.420000,-0.420000
0.920859,-0.015128,0.025376,1.008696,-0.560000,-0.420000,-0.280000
0.924925,-0.014640,0.027328,1.008208,-0.560000,-0.420000,-0.420000
0.928992,-0.015128,0.026840,1.007720,-0.560000,-0.420000,-0.420000
0.933058,-0.015128,0.026352,1.008696,-0.560000,-0.420000,-0.420000
0.937125,-0.015128,0.027328,1.008208,-0.700000,-0.420000,-0.420000
0.941191,-0.015616,0.026352,1.008696,-0.560000,-0.420000,-0.420000
0.945258,-0.015128,0.026352,1.008208,-0.560000,-0.420000,-0.420000
0.949324,-0.015616,0.026840,1.008696,-0.700000,-0.420000,-0.420000
0.953391,-0.014640,0.027328,1.007232,-0.560000,-0.420000,-0.420000
0.957457,-0.013664,0.026840,1.008208,-0.700000,-0.420000,-0.280000
0.961524,-0.015128,0.026840,1.008696,-0.560000,-0.420000,-0.280000
0.965590,-0.015128,0.025864,1.008696,-0.560000,-0.560000,-0.420000
0.969656,-0.014152,0.025864,1.008696,-0.560000,-0.420000,-0.420000
0.973723,-0.014640,0.026840,1.008696,-0.700000,-0.420000,-0.420000
0.977789,-0.014640,0.026352,1.007232,-0.700000,-0.280000,-0.420000
0.981856,-0.014152,0.026352,1.008208,-0.560000,-0.420000,-0.420000
0.985922,-0.014152,0.025864,1.008208,-0.560000,-0.420000,-0.420000
0.989989,-0.015128,0.025864,1.009672,-0.560000,-0.420000,-0.420000
0.994055,-0.015128,0.026352,1.008696,-0.700000,-0.560000,-0.280000
0.998122,-0.016104,0.026352,1.008208,-0.700000,-0.420000,-0.420000
1.002188,-0.015128,0.026352,1.008208,-0.700000,-0.420000,-0.420000
1.006255,-0.015616,0.026840,1.008208,-0.560000,-0.420000,-0.420000
1.010321,-0.014640,0.027328,1.009184,-0.560000,-0.280000,-0.420000
1.014388,-0.014152,0.026840,1.008208,-0.560000,-0.420000,-0.420000
1.018454,-0.014640,0.026840,1.008208,-0.560000,-0.420000,-0.420000
1.022520,-0.014640,0.026352,1.007720,-0.700000,-0.420000,-0.420000
1.026587,-0.014640,0.025864,1.008696,-0.560000,-0.560000,-0.420000
1.030653,-0.015128,0.025864,1.009672,-0.700000,-0.280000,-0.420000
1.034720,-0.015128,0.026840,1.007720,-0.560000,-0.420000,-0.420000
1.038786,-0.014152,0.025864,1.007720,-0.560000,-0.560000,-0.420000
1.042853,-0.015616,0.026840,1.008208,-0.700000,-0.280000,-0.420000
1.046919,-0.013664,0.026840,1.008696,-0.560000,-0.280000,-0.420000
1.050986,-0.014640,0.025376,1.008208,-0.700000,-0.280000,-0.420000
1.055052,-0.015616,0.026840,1.007232,-0.700000,-0.420000,-0.420000
1.059119,-0.014152,0.027328,1.008208,-0.560000,-0.420000,-0.420000
1.063185,-0.015128,0.025864,1.007720,-0.560000,-0.420000,-0.420000
1.067252,-0.014152,0.026840,1.008208,-0.560000,-0.420000,-0.420000
1.071318,-0.014640,0.026352,1.007232,-0.700000,-0.420000,-0.280000
1.075384,-0.015128,0.025864,1.009184,-0.700000,-0.420000,-0.280000
1.079451,-0.014640,0.026840,1.009672,-0.700000,-0.280000,-0.420000
1.083517,-0.014640,0.026840,1.008208,-0.560000,-0.420000,-0.420000
1.087584,-0.014152,0.026840,1.007720,-0.420000,-0.420000,-0.420000
1.091650,-0.015616,0.026352,1.008208,-0.700000,-0.280000,-0.420000
1.095717,-0.014152,0.026352,1.009672,-0.560000,-0.560000,-0.420000
1.099783,-0.014152,0.026840,1.007720,-0.560000,-0.420000,-0.420000
1.103850,-0.014640,0.026352,1.007720,-0.560000,-0.420000,-0.420000
1.107916,-0.014152,0.025864,1.008696,-0.700000,-0.420000,-0.420000
1.111983,-0.015128,0.026840,1.009672,-0.560000,-0.420000,-0.420000
1.116049,-0.014640,0.026840,1.009672,-0.560000,-0.420000,-0.420000
1.120116,-0.014152,0.026840,1.006744,-0.700000,-0.280000,-0.420000
1.124182,-0.014640,0.027328,1.009672,-0.560000,-0.560000,-0.420000
1.128248,-0.014640,0.026352,1.007232,-0.420000,-0.420000,-0.420000
1.132315,-0.014640,0.024888,1.008208,-0.560000,-0.420000,-0.420000
1.136381,-0.015128,0.027328,1.007720,-0.700000,-0.420000,-0.420000
1.140448,-0.014640,0.026840,1.007232,-0.560000,-0.420000,-0.420000
1.144514,-0.014152,0.027328,1.007720,-0.700000,-0.420000,-0.420000
1.148581,-0.015128,0.026352,1.009672,-0.560000,-0.420000,-0.280000
1.152647,-0.015128,0.026352,1.007720,-0.560000,-0.420000,-0.420000
1.156714,-0.014152,0.026352,1.007720,-0.560000,-0.420000,-0.420000
1.160780,-0.014640,0.026352,1.008696,-0.700000,-0.280000,-0.420000
1.164847,-0.015128,0.025864,1.008696,-0.700000,-0.280000,-0.420000
1.168913,-0.014152,0.026840,1.008696,-0.700000,-0.420000,-0.420000
1.172980,-0.014640,0.026352,1.008696,-0.700000,-0.280000,-0.280000
1.177046,-0.014640,0.025376,1.008208,-0.560000,-0.420000,-0.420000
1.181112,-0.014152,0.026352,1.009184,-0.560000,-0.420000,-0.420000
1.185179,-0.014640,0.026352,1.008208,-0.700000,-0.420000,-0.420000
1.189245,-0.015128,0.025864,1.007720,-0.560000,-0.560000,-0.420000
1.193312,-0.014152,0.026352,1.008208,-0.560000,-0.420000,-0.420000
1.197378,-0.014640,0.026840,1.009184,-0.700000,-0.280000,-0.420000
1.201445,-0.015616,0.025864,1.008208,-0.560000,-0.420000,-0.420000
1.205511,-0.015128,0.025864,1.008696,-0.560000,-0.560000,-0.420000
1.209578,-0.015128,0.026352,1.008208,-0.700000,-0.420000,-0.280000
1.213644,-0.014640,0.027328,1.008208,-0.560000,-0.420000,-0.420000
1.217711,-0.014640,0.025864,1.007720,-0.560000,-0.280000,-0.420000
1.221777,-0.014152,0.026840,1.008696,-0.560000,-0.420000,-0.280000
1.225844,-0.015128,0.027328,1.006744,-0.700000,-0.420000,-0.420000
1.229910,-0.015616,0.025376,1.007232,-0.560000,-0.420000,-0.420000
1.233976,-0.014152,0.026840,1.008696,-0.560000,-0.420000,-0.420000
1.238043,-0.015128,0.027328,1.008696,-0.560000,-0.420000,-0.420000
1.242109,-0.015128,0.025864,1.008696,-0.560000,-0.420000,-0.420000
1.246176,-0.014152,0.026352,1.008696,-0.700000,-0.420000,-0.420000
1.250242,-0.014640,0.025864,1.009184,-0.560000,-0.420000,-0.420000
1.254309,-0.015616,0.025376,1.009184,-0.560000,-0.420000,-0.420000
1.258375,-0.014152,0.024888,1.008208,-0.560000,-0.420000,-0.420000
1.262442,-0.014640,0.026840,1.006744,-0.560000,-0.560000,-0.420000
1.266508,-0.015128,0.025864,1.009672,-0.560000,-0.280000,-0.420000
1.270575,-0.014640,0.025376,1.008696,-0.560000,-0.420000,-0.420000
1.274641,-0.014640,0.026840,1.009184,-0.560000,-0.280000,-0.420000
1.278708,-0.014640,0.025864,1.008208,-0.560000,-0.420000,-0.420000
1.282774,-0.014152,0.026840,1.008208,-0.560000,-0.420000,-0.280000
1.286840,-0.014640,0.026840,1.007232,-0.700000,-0.420000,-0.280000
1.290907,-0.014640,0.026352,1.008696,-0.560000,-0.420000,-0.420000
1.294973,-0.015128,0.026840,1.008208,-0.560000,-0.420000,-0.420000
1.299040,-0.015128,0.026352,1.009184,-0.560000,-0.420000,-0.420000
1.303106,-0.014640,0.026840,1.009184,-0.560000,-0.280000,-0.420000
1.307173,-0.014152,0.026840,1.007720,-0.560000,-0.560000,-0.280000
1.311239,-0.013664,0.026352,1.007232,-0.700000,-0.280000,-0.280000
1.315306,-0.015616,0.025864,1.008208,-0.560000,-0.420000,-0.420000
1.319372,-0.014152,0.026352,1.009184,-0.560000,-0.420000,-0.420000
1.323439,-0.015128,0.025376,1.008696,-0.560000,-0.420000,-0.420000
1.327505,-0.015128,0.024888,1.009672,-0.560000,-0.280000,-0.420000
1.331572,-0.015128,0.026352,1.008696,-0.700000,-0.420000,-0.280000
1.335638,-0.014640,0.026352,1.008696,-0.560000,-0.420000,-0.420000
1.339704,-0.015128,0.025376,1.008208,-0.560000,-0.280000,-0.420000
1.343771,-0.014640,0.025864,1.008696,-0.700000,-0.420000,-0.420000
1.347837,-0.014152,0.026840,1.010160,-0.700000,-0.420000,-0.420000
1.351904,-0.014640,0.026352,1.008696,-0.560000,-0.420000,-0.420000
1.355970,-0.014152,0.026840,1.008696,-0.700000,-0.560000,-0.420000
1.360037,-0.014640,0.026352,1.008208,-0.700000,-0.420000,-0.420000
1.364103,-0.013176,0.026352,1.007720,-0.560000,-0.420000,-0.280000
1.368170,-0.015616,0.026840,1.008696,-0.560000,-0.420000,-0.420000
1.372236,-0.014640,0.027328,1.010648,-0.700000,-0.280000,-0.280000
1.376303,-0.014640,0.025864,1.008208,-0.560000,-0.280000,-0.420000
1.380369,-0.013664,0.025864,1.008696,-0.560000,-0.420000,-0.420000
1.384436,-0.014152,0.026352,1.008696,-0.700000,-0.420000,-0.280000
1.388502,-0.013664,0.025376,1.006744,-0.560000,-0.420000,-0.420000
1.392568,-0.014640,0.026352,1.008696,-0.560000,-0.420000,-0.420000
1.396635,-0.013664,0.026352,1.008696,-0.560000,-0.420000,-0.420000
1.400701,-0.014640,0.025864,1.007720,-0.560000,-0.420000,-0.420000
1.404768,-0.014640,0.024888,1.007720,-0.560000,-0.420000,-0.420000
1.408834,-0.013664,0.025864,1.009672,-0.560000,-0.420000,-0.280000
1.412901,-0.015616,0.025864,1.008696,-0.700000,-0.420000,-0.420000
1.416967,-0.014640,0.026840,1.008208,-0.700000,-0.420000,-0.420000
1.421034,-0.014640,0.026352,1.009184,-0.560000,-0.420000,-0.420000
1.425100,-0.014640,0.026352,1.008696,-0.700000,-0.420000,-0.420000
1.429167,-0.014640,0.025376,1.007720,-0.700000,-0.420000,-0.420000
1.433233,-0.014640,0.026840,1.009672,-0.700000,-0.420000,-0.420000
1.437299,-0.015128,0.026352,1.007720,-0.560000,-0.420000,-0.420000
1.441366,-0.014640,0.025864,1.008208,-0.560000,-0.420000,-0.420000
1.445432,-0.014640,0.026352,1.007720,-0.560000,-0.420000,-0.420000
1.449499,-0.014640,0.024888,1.008696,-0.700000,-0.420000,-0.420000
1.453565,-0.015616,0.025864,1.008208,-0.560000,-0.280000,-0.420000
1.457632,-0.014152,0.027816,1.008208,-0.700000,-0.420000,-0.420000
1.461698,-0.014152,0.025864,1.007720,-0.700000,-0.560000,-0.280000
1.465765,-0.014640,0.026352,1.009184,-0.560000,-0.280000,-0.420000
1.469831,-0.014640,0.026840,1.008696,-0.700000,-0.420000,-0.420000
1.473898,-0.013664,0.026352,1.007232,-0.560000,-0.420000,-0.420000
1.477964,-0.016104,0.027328,1.007720,-0.560000,-0.420000,-0.420000
1.482031,-0.015616,0.027328,1.008696,-0.560000,-0.420000,-0.420000
1.486097,-0.014152,0.026352,1.008208,-0.560000,-0.420000,-0.420000
1.490163,-0.014152,0.025864,1.008696,-0.560000,-0.420000,-0.420000
1.494230,-0.014640,0.026352,1.008208,-0.700000,-0.560000,-0.420000
1.498296,-0.014152,0.025376,1.007720,-0.700000,-0.420000,-0.420000
1.502363,-0.013664,0.026352,1.008696,-0.700000,-0.420000,-0.420000
1.506429,-0.015616,0.025376,1.009184,-0.560000,-0.420000,-0.420000
1.510496,-0.014152,0.026352,1.009184,-0.560000,-0.420000,-0.420000
1.514562,-0.014152,0.027328,1.008696,-0.560000,-0.420000,-0.420000
1.518629,-0.015616,0.026352,1.008696,-0.560000,-0.560000,-0.280000
1.522695,-0.014152,0.026840,1.008696,-0.560000,-0.420000,-0.280000
1.526762,-0.013176,0.026840,1.008208,-0.560000,-0.420000,-0.280000
1.530828,-0.014640,0.026840,1.009184,-0.560000,-0.280000,-0.280000
1.534895,-0.014640,0.026840,1.008696,-0.700000,-0.420000,-0.420000
1.538961,-0.015128,0.027328,1.009184,-0.700000,-0.560000,-0.420000
1.543027,-0.014640,0.026840,1.008696,-0.560000,-0.420000,-0.420000
1.547094,-0.015128,0.027328,1.008696,-0.560000,-0.280000,-0.420000
1.551160,-0.014640,0.026840,1.008696,-0.700000,-0.420000,-0.420000
1.555227,-0.014640,0.026840,1.009184,-0.560000,-0.420000,-0.420000
1.559293,-0.014152,0.026352,1.008696,-0.560000,-0.280000,-0.420000
1.563360,-0.014640,0.026352,1.008208,-0.560000,-0.280000,-0.280000
1.567426,-0.015616,0.026840,1.008208,-0.700000,-0.420000,-0.420000
1.571493,-0.014152,0.026840,1.008208,-0.560000,-0.420000,-0.420000
1.575559,-0.014152,0.027328,1.006256,-0.560000,-0.560000,-0.420000
1.579626,-0.015128,0.026352,1.008696,-0.700000,-0.560000,-0.420000
1.583692,-0.014152,0.025376,1.008696,-0.700000,-0.420000,-0.280000
1.587759,-0.013664,0.026352,1.008208,-0.700000,-0.420000,-0.420000
1.591825,-0.015128,0.027328,1.008696,-0.560000,-0.420000,-0.420000
1.595891,-0.015616,0.026352,1.007720,-0.560000,-0.420000,-0.420000
1.599958,-0.015128,0.027816,1.009184,-0.560000,-0.420000,-0.420000
1.604024,-0.015128,0.027328,1.008208,-0.560000,-0.420000,-0.280000
1.608091,-0.014152,0.026840,1.008696,-0.560000,-0.420000,-0.420000
1.612157,-0.014640,0.026352,1.008696,-0.700000,-0.420000,-0.420000
1.616224,-0.015616,0.026352,1.010648,-0.560000,-0.420000,-0.420000
1.620290,-0.014152,0.025864,1.008696,-0.560000,-0.560000,-0.420000
1.624357,-0.014152,0.025376,1.009672,-0.560000,-0.560000,-0.420000
1.628423,-0.014152,0.026352,1.008696,-0.560000,-0.420000,-0.420000
1.632490,-0.014640,0.026840,1.008696,-0.560000,-0.420000,-0.420000
1.636556,-0.015128,0.027328,1.008208,-0.560000,-0.420000,-0.420000
1.640623,-0.014640,0.026352,1.008208,-0.560000,-0.420000,-0.420000
1.644689,-0.015128,0.027328,1.008208,-0.560000,-0.560000,-0.420000
1.648755,-0.015616,0.026352,1.009672,-0.560000,-0.420000,-0.280000
1.652822,-0.013664,0.027328,1.007720,-0.560000,-0.420000,-0.420000
1.656888,-0.014640,0.026352,1.007720,-0.560000,-0.420000,-0.420000
1.660955,-0.015128,0.025864,1.008208,-0.700000,-0.420000,-0.420000
1.665021,-0.014640,0.025864,1.007232,-0.560000,-0.420000,-0.420000
1.669088,-0.014152,0.026352,1.009672,-0.560000,-0.420000,-0.420000
1.673154,-0.015128,0.025864,1.008696,-0.560000,-0.420000,-0.420000
1.677220,-0.015128,0.026352,1.007232,-0.700000,-0.420000,-0.280000
1.681286,-0.014152,0.025864,1.008696,-0.560000,-0.280000,-0.420000
1.685353,-0.014640,0.026840,1.007232,-0.700000,-0.420000,-0.420000
1.689419,-0.014152,0.026840,1.008696,-0.560000,-0.420000,-0.280000
1.693485,-0.015128,0.027328,1.009184,-0.560000,-0.560000,-0.420000
1.697551,-0.014640,0.026840,1.007720,-0.560000,-0.560000,-0.420000
1.701618,-0.015128,0.025864,1.009672,-0.700000,-0.420000,-0.420000
1.705684,-0.014152,0.025864,1.009184,-0.560000,-0.420000,-0.280000
1.709750,-0.014640,0.026352,1.009184,-0.560000,-0.420000,-0.420000
1.713816,-0.015616,0.026840,1.009184,-0.560000,-0.420000,-0.420000
1.717883,-0.015128,0.027328,1.008696,-0.560000,-0.420000,-0.420000
1.721949,-0.015128,0.026840,1.007720,-0.560000,-0.420000,-0.420000
1.726015,-0.015128,0.027328,1.008208,-0.560000,-0.420000,-0.280000
1.730081,-0.014640,0.025864,1.008696,-0.560000,-0.420000,-0.280000
1.734148,-0.014640,0.025864,1.009184,-0.560000,-0.420000,-0.420000
1.738214,-0.013664,0.027328,1.008696,-0.560000,-0.420000,-0.280000
1.742280,-0.014640,0.025864,1.009184,-0.560000,-0.420000,-0.420000
1.746346,-0.014152,0.025864,1.007232,-0.560000,-0.280000,-0.420000
1.750413,-0.014152,0.027328,1.010648,-0.560000,-0.280000,-0.420000
1.754479,-0.014152,0.026840,1.007720,-0.560000,-0.280000,-0.420000
1.758545,-0.014640,0.026840,1.008208,-0.560000,-0.420000,-0.280000
1.762611,-0.015128,0.026840,1.008696,-0.560000,-0.420000,-0.420000
1.766678,-0.014640,0.026840,1.008208,-0.700000,-0.420000,-0.280000
1.770744,-0.015128,0.026840,1.007720,-0.700000,-0.420000,-0.420000
1.774810,-0.015128,0.027328,1.008208,-0.700000,-0.560000,-0.420000
1.778876,-0.015128,0.026840,1.009184,-0.560000,-0.420000,-0.280000
1.782943,-0.015616,0.027328,1.009184,-0.700000,-0.420000,-0.280000
1.787009,-0.014152,0.027816,1.007720,-0.560000,-0.560000,-0.280000
1.791075,-0.013176,0.025376,1.008696,-0.560000,-0.420000,-0.420000
1.795141,-0.013176,0.025864,1.007720,-0.560000,-0.420000,-0.420000
1.799208,-0.014152,0.026840,1.009184,-0.560000,-0.420000,-0.420000
1.803274,-0.015128,0.026352,1.008208,-0.560000,-0.420000,-0.420000
1.807340,-0.014152,0.025864,1.009672,-0.560000,-0.280000,-0.420000
1.811406,-0.015128,0.027328,1.008696,-0.700000,-0.420000,-0.280000
1.815473,-0.014640,0.025864,1.008208,-0.560000,-0.420000,-0.420000
1.819539,-0.015128,0.026352,1.008208,-0.700000,-0.420000,-0.420000
1.823605,-0.014640,0.026840,1.008208,-0.560000,-0.420000,-0.420000
1.827671,-0.014640,0.026352,1.008696,-0.560000,-0.420000,-0.420000
1.831738,-0.014640,0.025864,1.009184,-0.560000,-0.420000,-0.420000
1.835804,-0.014640,0.025864,1.007720,-0.700000,-0.420000,-0.420000
1.839870,-0.014152,0.026352,1.006744,-0.560000,-0.420000,-0.420000
1.843936,-0.014640,0.026840,1.007720,-0.420000,-0.420000,-0.420000
1.848003,-0.015128,0.026352,1.008696,-0.560000,-0.280000,-0.420000
1.852069,-0.015128,0.026352,1.008696,-0.560000,-0.420000,-0.280000
1.856135,-0.015128,0.025864,1.006744,-0.560000,-0.420000,-0.420000
1.860201,-0.015128,0.026352,1.007720,-0.560000,-0.420000,-0.420000
1.864268,-0.014152,0.026840,1.007232,-0.560000,-0.420000,-0.420000
1.868334,-0.014152,0.026352,1.010160,-0.560000,-0.420000,-0.420000
1.872400,-0.015128,0.026840,1.008208,-0.700000,-0.420000,-0.420000
1.876466,-0.015128,0.027328,1.008696,-0.560000,-0.420000,-0.420000
1.880533,-0.015128,0.026840,1.008696,-0.560000,-0.420000,-0.420000
1.884599,-0.014640,0.026352,1.007720,-0.560000,-0.420000,-0.420000
1.888665,-0.014152,0.026352,1.007720,-0.700000,-0.420000,-0.420000
1.892731,-0.014640,0.025864,1.010648,-0.560000,-0.420000,-0.280000
1.896798,-0.015128,0.026840,1.008696,-0.560000,-0.420000,-0.420000
1.900864,-0.015128,0.025864,1.008208,-0.560000,-0.420000,-0.280000
1.904930,-0.014152,0.026352,1.007720,-0.700000,-0.280000,-0.420000
1.908996,-0.013664,0.026840,1.008208,-0.560000,-0.420000,-0.420000
1.913063,-0.014152,0.026352,1.008208,-0.560000,-0.420000,-0.420000
1.917129,-0.013664,0.026352,1.007720,-0.560000,-0.420000,-0.420000
1.921195,-0.015128,0.027328,1.007720,-0.420000,-0.420000,-0.420000
1.925261,-0.014152,0.026352,1.007720,-0.700000,-0.420000,-0.420000
1.929328,-0.014640,0.026352,1.009184,-0.700000,-0.420000,-0.420000
1.933394,-0.015128,0.026352,1.008696,-0.560000,-0.420000,-0.280000
1.937460,-0.014152,0.026352,1.008208,-0.560000,-0.420000,-0.420000
1.941526,-0.013664,0.027328,1.008208,-0.560000,-0.560000,-0.420000
1.945593,-0.012688,0.026840,1.007232,-0.700000,-0.420000,-0.420000
1.949659,-0.014640,0.025864,1.008208,-0.700000,-0.420000,-0.420000
1.953725,-0.014640,0.026840,1.009184,-0.560000,-0.420000,-0.420000
1.957791,-0.013664,0.026840,1.007232,-0.700000,-0.420000,-0.420000
1.961858,-0.014640,0.026352,1.008696,-0.560000,-0.420000,-0.420000
1.965924,-0.014152,0.026352,1.008696,-0.420000,-0.420000,-0.420000
1.969990,-0.014640,0.026352,1.008696,-0.560000,-0.420000,-0.420000
1.974056,-0.014640,0.026840,1.008208,-0.560000,-0.420000,-0.280000
1.978123,-0.015128,0.026352,1.009672,-0.560000,-0.420000,-0.280000
1.982189,-0.015616,0.026840,1.009184,-0.560000,-0.420000,-0.420000
1.986255,-0.015128,0.026352,1.008208,-0.560000,-0.420000,-0.420000
1.990321,-0.014640,0.026840,1.009184,-0.560000,-0.560000,-0.280000
1.994388,-0.014152,0.027328,1.009672,-0.560000,-0.560000,-0.280000
1.998454,-0.014152,0.026352,1.009184,-0.560000,-0.420000,-0.420000
2.002520,-0.014640,0.026352,1.008696,-0.560000,-0.420000,-0.420000
2.006586,-0.013664,0.026840,1.008696,-0.560000,-0.560000,-0.420000
2.010653,-0.013664,0.026840,1.007720,-0.420000,-0.420000,-0.420000
2.014719,-0.015128,0.026352,1.007232,-0.700000,-0.420000,-0.420000
2.018785,-0.014640,0.026840,1.009184,-0.560000,-0.420000,-0.420000
2.022851,-0.014152,0.026840,1.008208,-0.560000,-0.420000,-0.280000
2.026918,-0.014152,0.026840,1.006744,-0.560000,-0.420000,-0.420000
2.030984,-0.012688,0.026840,1.008208,-0.560000,-0.420000,-0.420000
2.035050,-0.015616,0.026840,1.007720,-0.560000,-0.420000,-0.420000
2.039116,-0.014640,0.026840,1.009184,-0.560000,-0.420000,-0.420000
2.043183,-0.014640,0.026840,1.009184,-0.700000,-0.420000,-0.420000
2.047249,-0.014152,0.026352,1.008696,-0.700000,-0.420000,-0.420000
2.051315,-0.013664,0.026840,1.007720,-0.560000,-0.280000,-0.420000
2.055381,-0.014152,0.026840,1.007232,-0.560000,-0.420000,-0.420000
2.059448,-0.015128,0.025864,1.008696,-0.700000,-0.420000,-0.420000
2.063514,-0.014640,0.026840,1.006256,-0.560000,-0.280000,-0.420000
2.067580,-0.014640,0.026352,1.007232,-0.560000,-0.420000,-0.420000
2.071646,-0.014640,0.026352,1.008208,-0.560000,-0.420000,-0.420000
2.075713,-0.014152,0.025864,1.008208,-0.560000,-0.420000,-0.420000
2.079779,-0.014640,0.025864,1.007720,-0.560000,-0.420000,-0.420000
2.083845,-0.014152,0.026840,1.007720,-0.560000,-0.560000,-0.420000
2.087911,-0.014640,0.026840,1.008696,-0.560000,-0.280000,-0.280000
2.091978,-0.014640,0.025864,1.008696,-0.700000,-0.420000,-0.280000
2.096044,-0.014640,0.027328,1.009184,-0.560000,-0.420000,-0.280000
2.100110,-0.015128,0.025864,1.008208,-0.560000,-0.560000,-0.420000
2.104176,-0.015128,0.025864,1.006256,-0.560000,-0.420000,-0.280000
2.108243,-0.015128,0.026352,1.008696,-0.560000,-0.420000,-0.420000
2.112309,-0.015128,0.026840,1.008696,-0.560000,-0.420000,-0.280000
2.116375,-0.014152,0.025864,1.008696,-0.560000,-0.420000,-0.420000
2.120441,-0.014152,0.026352,1.008208,-0.560000,-0.420000,-0.280000
2.124508,-0.014640,0.026352,1.008696,-0.560000,-0.420000,-0.280000
2.128574,-0.015128,0.026352,1.008696,-0.700000,-0.280000,-0.280000
2.132640,-0.015128,0.027328,1.009184,-0.560000,-0.280000,-0.280000
2.136706,-0.013664,0.025864,1.008696,-0.560000,-0.420000,-0.420000
2.140773,-0.014640,0.025864,1.008696,-0.560000,-0.420000,-0.420000
2.144839,-0.014152,0.026352,1.008208,-0.560000,-0.420000,-0.420000
2.148905,-0.013664,0.025864,1.008696,-0.560000,-0.280000,-0.420000
2.152971,-0.014640,0.026352,1.008208,-0.560000,-0.280000,-0.420000
2.157038,-0.015128,0.025376,1.008696,-0.560000,-0.420000,-0.420000
2.161104,-0.015128,0.026352,1.010160,-0.560000,-0.420000,-0.280000
2.165170,-0.014152,0.025864,1.008696,-0.560000,-0.420000,-0.420000
2.169236,-0.013664,0.027328,1.008208,-0.560000,-0.560000,-0.420000
2.173303,-0.014640,0.027328,1.007720,-0.560000,-0.560000,-0.420000
2.177369,-0.013664,0.027328,1.010648,-0.700000,-0.420000,-0.420000
2.181435,-0.014640,0.027328,1.008208,-0.700000,-0.420000,-0.420000
2.185501,-0.014640,0.026840,1.008208,-0.560000,-0.420000,-0.420000
2.189568,-0.014640,0.026352,1.009672,-0.560000,-0.420000,-0.420000
2.193634,-0.014640,0.026352,1.009184,-0.700000,-0.420000,-0.420000
2.197700,-0.014640,0.026352,1.007232,-0.560000,-0.420000,-0.420000
2.201766,-0.015128,0.025376,1.007232,-0.700000,-0.280000,-0.420000
2.205833,-0.014152,0.027328,1.007232,-0.700000,-0.420000,-0.420000
2.209899,-0.014152,0.025376,1.008208,-0.700000,-0.420000,-0.280000
2.213965,-0.014640,0.026840,1.009184,-0.560000,-0.420000,-0.420000
2.218031,-0.014640,0.025376,1.008696,-0.560000,-0.420000,-0.420000
2.222098,-0.014640,0.025864,1.008208,-0.560000,-0.420000,-0.420000
2.226164,-0.014640,0.026352,1.008208,-0.560000,-0.420000,-0.280000
2.230230,-0.014640,0.026352,1.009184,-0.560000,-0.420000,-0.420000
2.234296,-0.014152,0.025376,1.006744,-0.560000,-0.560000,-0.420000
2.238363,-0.014152,0.025864,1.008208,-0.560000,-0.420000,-0.280000
2.242429,-0.014640,0.026352,1.008208,-0.420000,-0.560000,-0.420000
2.246495,-0.014640,0.026840,1.009672,-0.560000,-0.280000,-0.420000
2.250561,-0.015128,0.026352,1.008208,-0.560000,-0.420000,-0.420000
2.254628,-0.014152,0.027328,1.007720,-0.700000,-0.280000,-0.420000
2.258694,-0.014152,0.026352,1.008208,-0.560000,-0.420000,-0.420000
2.262760,-0.015128,0.025864,1.009672,-0.560000,-0.420000,-0.420000
2.266826,-0.014640,0.025864,1.009672,-0.700000,-0.420000,-0.420000
2.270893,-0.013176,0.026840,1.009184,-0.560000,-0.420000,-0.420000
2.274959,-0.013664,0.025864,1.008696,-0.560000,-0.280000,-0.420000
2.279025,-0.014640,0.026352,1.006744,-0.560000,-0.420000,-0.420000
2.283091,-0.015128,0.026352,1.008208,-0.560000,-0.280000,-0.420000
2.287158,-0.014640,0.026352,1.007232,-0.560000,-0.420000,-0.420000
2.291224,-0.014152,0.026352,1.007720,-0.560000,-0.420000,-0.420000
2.295290,-0.015128,0.025864,1.007232,-0.700000,-0.420000,-0.420000
2.299356,-0.014152,0.026352,1.008208,-0.420000,-0.280000,-0.420000
2.303423,-0.015128,0.026352,1.010160,-0.560000,-0.420000,-0.420000
2.307489,-0.013664,0.026352,1.009672,-0.560000,-0.420000,-0.420000
2.311555,-0.013664,0.026840,1.008696,-0.700000,-0.420000,-0.420000
2.315621,-0.015128,0.025864,1.007720,-0.700000,-0.420000,-0.420000
2.319688,-0.015128,0.025376,1.007720,-0.560000,-0.280000,-0.420000
2.323754,-0.015128,0.026352,1.009672,-0.560000,-0.420000,-0.420000
2.327820,-0.014640,0.025864,1.009184,-0.700000,-0.420000,-0.280000
2.331886,-0.014640,0.026840,1.008696,-0.560000,-0.420000,-0.420000
2.335953,-0.015128,0.026352,1.008208,-0.560000,-0.280000,-0.420000
2.340019,-0.014152,0.025864,1.007720,-0.560000,-0.420000,-0.280000
2.344085,-0.013664,0.026840,1.008696,-0.560000,-0.420000,-0.420000
2.348151,-0.014640,0.026352,1.007232,-0.560000,-0.280000,-0.420000
2.352218,-0.014152,0.026352,1.008208,-0.700000,-0.280000,-0.420000
2.356284,-0.014640,0.026352,1.009184,-0.700000,-0.420000,-0.420000
2.360350,-0.014640,0.026352,1.009672,-0.560000,-0.420000,-0.420000
2.364416,-0.014152,0.025864,1.009184,-0.560000,-0.420000,-0.420000
2.368483,-0.014152,0.026352,1.008696,-0.560000,-0.420000,-0.420000
2.372549,-0.013664,0.026840,1.007232,-0.560000,-0.420000,-0.420000
2.376615,-0.013664,0.025864,1.008208,-0.560000,-0.420000,-0.420000
2.380681,-0.014152,0.026840,1.007232,-0.560000,-0.420000,-0.420000
2.384748,-0.015128,0.026352,1.008696,-0.560000,-0.420000,-0.420000
2.388814,-0.014640,0.026840,1.007720,-0.560000,-0.420000,-0.280000
2.392880,-0.015128,0.026352,1.009672,-0.560000,-0.420000,-0.420000
2.396946,-0.014640,0.026352,1.008208,-0.700000,-0.420000,-0.420000
2.401013,-0.015128,0.025864,1.008208,-0.420000,-0.420000,-0.280000
2.405079,-0.014640,0.026352,1.008696,-0.560000,-0.420000,-0.420000
2.409145,-0.014152,0.025864,1.008208,-0.700000,-0.420000,-0.420000
2.413211,-0.014640,0.027816,1.006256,-0.560000,-0.280000,-0.280000
2.417278,-0.013664,0.026840,1.007720,-0.700000,-0.420000,-0.420000
2.421344,-0.014640,0.026840,1.008208,-0.560000,-0.420000,-0.280000
2.425410,-0.014152,0.026352,1.009672,-0.700000,-0.420000,-0.420000
2.429476,-0.013664,0.026352,1.009672,-0.560000,-0.420000,-0.420000
2.433543,-0.015128,0.026352,1.008208,-0.560000,-0.420000,-0.420000
2.437609,-0.015128,0.026352,1.008208,-0.700000,-0.420000,-0.420000
2.441675,-0.015128,0.026840,1.008208,-0.700000,-0.420000,-0.420000
2.445741,-0.015128,0.025864,1.008208,-0.560000,-0.280000,-0.420000
2.449808,-0.014152,0.026840,1.007720,-0.560000,-0.420000,-0.420000
2.453874,-0.014640,0.026840,1.008208,-0.700000,-0.420000,-0.420000
2.457940,-0.015128,0.025376,1.009672,-0.560000,-0.560000,-0.420000
2.462006,-0.013664,0.026352,1.009184,-0.700000,-0.420000,-0.280000
2.466073,-0.014152,0.026840,1.007720,-0.560000,-0.420000,-0.420000
2.470139,-0.015616,0.025864,1.008208,-0.700000,-0.420000,-0.420000
2.474205,-0.014640,0.025864,1.008208,-0.560000,-0.280000,-0.420000
2.478271,-0.014640,0.026840,1.007720,-0.560000,-0.280000,-0.420000
2.482338,-0.014152,0.027328,1.008208,-0.560000,-0.420000,-0.420000
2.486404,-0.014152,0.026352,1.008696,-0.560000,-0.420000,-0.420000
2.490470,-0.015616,0.026352,1.008208,-0.560000,-0.420000,-0.420000
2.494536,-0.015616,0.026352,1.008208,-0.560000,-0.420000,-0.420000
2.498603,-0.014640,0.027328,1.009672,-0.560000,-0.420000,-0.420000
2.502669,-0.014640,0.026840,1.008696,-0.700000,-0.420000,-0.420000
2.506735,-0.014640,0.026352,1.008208,-0.700000,-0.280000,-0.420000
2.510801,-0.014152,0.026840,1.008696,-0.560000,-0.420000,-0.420000
2.514868,-0.014640,0.026840,1.009672,-0.700000,-0.280000,-0.280000
2.518934,-0.014640,0.026352,1.008208,-0.560000,-0.420000,-0.420000
2.523000,-0.014640,0.026840,1.007720,-0.560000,-0.420000,-0.420000
2.527066,-0.015616,0.026352,1.007720,-0.560000,-0.420000,-0.420000
2.531133,-0.015128,0.025864,1.007720,-0.560000,-0.420000,-0.420000
2.535199,-0.014152,0.026352,1.008208,-0.700000,-0.420000,-0.420000
2.539265,-0.014152,0.026352,1.008696,-0.560000,-0.420000,-0.420000
2.543331,-0.013664,0.027328,1.007720,-0.560000,-0.420000,-0.420000
2.547398,-0.013664,0.025864,1.008208,-0.560000,-0.560000,-0.420000
2.551464,-0.013664,0.026840,1.007720,-0.700000,-0.560000,-0.420000
2.555530,-0.014152,0.025376,1.008208,-0.560000,-0.420000,-0.420000
2.559596,-0.014640,0.026352,1.009184,-0.700000,-0.420000,-0.420000
2.563663,-0.015128,0.025864,1.008696,-0.700000,-0.420000,-0.420000
2.567729,-0.015128,0.025864,1.008208,-0.560000,-0.420000,-0.420000
2.571795,-0.014640,0.026840,1.009672,-0.560000,-0.420000,-0.420000
2.575861,-0.014152,0.025864,1.007720,-0.560000,-0.420000,-0.420000
2.579928,-0.014152,0.025864,1.008208,-0.560000,-0.420000,-0.420000
2.583994,-0.014640,0.025864,1.007720,-0.560000,-0.420000,-0.420000
2.588060,-0.014152,0.025376,1.008208,-0.560000,-0.280000,-0.280000
2.592126,-0.014640,0.027328,1.008696,-0.700000,-0.560000,-0.420000
2.596193,-0.015128,0.025864,1.009184,-0.560000,-0.420000,-0.420000
2.600259,-0.014152,0.024888,1.008696,-0.560000,-0.420000,-0.420000
2.604325,-0.014152,0.026840,1.007720,-0.560000,-0.420000,-0.420000
2.608391,-0.015616,0.026840,1.010160,-0.560000,-0.420000,-0.420000
2.612458,-0.014152,0.026840,1.008696,-0.560000,-0.420000,-0.420000
2.616524,-0.014640,0.025864,1.009184,-0.560000,-0.420000,-0.280000
2.620590,-0.015616,0.026840,1.008208,-0.560000,-0.560000,-0.420000
2.624656,-0.014152,0.026352,1.009184,-0.560000,-0.420000,-0.420000
2.628723,-0.013664,0.025864,1.008208,-0.560000,-0.420000,-0.420000
2.632789,-0.014152,0.027328,1.008208,-0.560000,-0.420000,-0.280000
2.636855,-0.014640,0.026352,1.008696,-0.560000,-0.420000,-0.420000
2.640921,-0.014152,0.026352,1.007720,-0.560000,-0.420000,-0.280000
2.644988,-0.014152,0.025864,1.009672,-0.420000,-0.420000,-0.280000
2.649054,-0.015128,0.025376,1.008208,-0.420000,-0.420000,-0.420000
2.653120,-0.014640,0.026352,1.008208,-0.560000,-0.420000,-0.420000
2.657186,-0.015128,0.027328,1.008208,-0.560000,-0.280000,-0.420000
2.661253,-0.013664,0.026352,1.008208,-0.560000,-0.420000,-0.420000
2.665319,-0.014152,0.027328,1.008208,-0.560000,-0.560000,-0.420000
2.669385,-0.014640,0.027328,1.008208,-0.560000,-0.420000,-0.420000
2.673451,-0.015128,0.026352,1.008696,-0.700000,-0.420000,-0.420000
2.677518,-0.014152,0.027816,1.008208,-0.560000,-0.420000,-0.420000
2.681584,-0.013664,0.026352,1.007720,-0.700000,-0.420000,-0.420000
2.685650,-0.014640,0.027328,1.008208,-0.700000,-0.420000,-0.420000
2.689716,-0.014640,0.026840,1.006744,-0.560000,-0.280000,-0.280000
2.693783,-0.014152,0.026840,1.008696,-0.560000,-0.420000,-0.420000
2.697849,-0.014152,0.026352,1.009184,-0.700000,-0.420000,-0.280000
2.701915,-0.015128,0.026352,1.007232,-0.700000,-0.420000,-0.420000
2.705981,-0.015128,0.027816,1.006744,-0.700000,-0.420000,-0.420000
2.710048,-0.014640,0.026840,1.007232,-0.560000,-0.420000,-0.280000
2.714114,-0.014152,0.025864,1.009184,-0.560000,-0.420000,-0.280000
2.718180,-0.015128,0.026840,1.007232,-0.560000,-0.420000,-0.420000
2.722246,-0.015128,0.026352,1.009184,-0.560000,-0.420000,-0.420000
2.726313,-0.014640,0.026840,1.008208,-0.560000,-0.420000,-0.420000
2.730379,-0.014152,0.026352,1.008696,-0.560000,-0.280000,-0.420000
2.734445,-0.014640,0.025376,1.008696,-0.560000,-0.420000,-0.420000
2.738511,-0.014152,0.026352,1.008208,-0.560000,-0.420000,-0.280000
2.742578,-0.014152,0.026352,1.008696,-0.560000,-0.420000,-0.420000
2.746644,-0.015128,0.025864,1.009672,-0.560000,-0.420000,-0.420000
2.750710,-0.015128,0.025376,1.008696,-0.560000,-0.420000,-0.280000
2.754776,-0.014152,0.026840,1.008696,-0.560000,-0.420000,-0.420000
2.758843,-0.014640,0.026352,1.006744,-0.560000,-0.420000,-0.420000
2.762909,-0.014640,0.026840,1.009184,-0.560000,-0.420000,-0.420000
2.766975,-0.015128,0.026352,1.007232,-0.560000,-0.420000,-0.420000
2.771041,-0.014152,0.025864,1.008696,-0.560000,-0.420000,-0.420000
2.775108,-0.013664,0.026840,1.009184,-0.700000,-0.420000,-0.420000
2.779174,-0.013664,0.025864,1.006256,-0.700000,-0.420000,-0.420000
2.783240,-0.014152,0.026352,1.008208,-0.700000,-0.420000,-0.420000
2.787306,-0.014640,0.025864,1.008208,-0.700000,-0.420000,-0.280000
2.791373,-0.014152,0.026352,1.008208,-0.560000,-0.420000,-0.420000
2.795439,-0.014640,0.026840,1.008208,-0.560000,-0.420000,-0.280000
2.799505,-0.015128,0.026840,1.008696,-0.560000,-0.420000,-0.420000
2.803571,-0.014640,0.026352,1.008208,-0.560000,-0.420000,-0.420000
2.807638,-0.014152,0.026840,1.007720,-0.700000,-0.420000,-0.420000
2.811704,-0.014152,0.026352,1.009184,-0.700000,-0.560000,-0.420000
2.815770,-0.014640,0.026352,1.007720,-0.560000,-0.420000,-0.420000
2.819836,-0.013664,0.026840,1.006744,-0.700000,-0.420000,-0.420000
2.823903,-0.014640,0.026352,1.008696,-0.560000,-0.420000,-0.420000
2.827969,-0.014640,0.026352,1.009672,-0.700000,-0.420000,-0.420000
2.832035,-0.014640,0.026352,1.007232,-0.700000,-0.560000,-0.420000
2.836101,-0.014152,0.026352,1.008696,-0.700000,-0.420000,-0.420000
2.840168,-0.014640,0.026352,1.008208,-0.560000,-0.560000,-0.420000
2.844234,-0.014152,0.026840,1.007232,-0.560000,-0.420000,-0.420000
2.848300,-0.013664,0.025864,1.009672,-0.560000,-0.420000,-0.280000
2.852366,-0.013664,0.026352,1.009672,-0.560000,-0.420000,-0.420000
2.856433,-0.014152,0.026840,1.007720,-0.700000,-0.560000,-0.420000
2.860499,-0.012688,0.024888,1.007232,-0.560000,-0.420000,-0.420000
2.864565,-0.014640,0.027328,1.007720,-0.560000,-0.420000,-0.420000
2.868631,-0.015128,0.025864,1.009184,-0.420000,-0.420000,-0.420000
2.872698,-0.014640,0.026840,1.008208,-0.560000,-0.420000,-0.420000
2.876764,-0.015128,0.027328,1.008208,-0.420000,-0.420000,-0.280000
2.880830,-0.015128,0.025376,1.009184,-0.560000,-0.420000,-0.280000
2.884896,-0.014640,0.026840,1.009184,-0.560000,-0.420000,-0.420000
2.888963,-0.015128,0.025864,1.008208,-0.560000,-0.420000,-0.420000
2.893029,-0.014640,0.026352,1.007720,-0.560000,-0.420000,-0.280000
2.897095,-0.015128,0.026840,1.008208,-0.560000,-0.420000,-0.420000
2.901161,-0.015128,0.025864,1.007232,-0.700000,-0.280000,-0.420000
2.905228,-0.013664,0.025376,1.007720,-0.560000,-0.280000,-0.420000
2.909294,-0.015128,0.027816,1.008208,-0.560000,-0.420000,-0.420000
2.913360,-0.015616,0.026840,1.008696,-0.560000,-0.560000,-0.280000
2.917426,-0.015128,0.027328,1.009672,-0.700000,-0.420000,-0.420000
2.921493,-0.015128,0.026840,1.008696,-0.560000,-0.420000,-0.280000
2.925559,-0.015128,0.025376,1.007720,-0.560000,-0.420000,-0.420000
2.929625,-0.015128,0.026352,1.009672,-0.700000,-0.280000,-0.420000
2.933691,-0.014640,0.026352,1.008208,-0.560000,-0.420000,-0.420000
2.937758,-0.015128,0.026840,1.007232,-0.700000,-0.420000,-0.420000
2.941824,-0.014640,0.027328,1.006256,-0.560000,-0.420000,-0.420000
2.945890,-0.014152,0.026352,1.006256,-0.560000,-0.420000,-0.420000
2.949956,-0.014152,0.026352,1.008696,-0.700000,-0.280000,-0.420000
2.954023,-0.014152,0.025864,1.008696,-0.560000,-0.420000,-0.420000
2.958089,-0.014152,0.025864,1.008696,-0.560000,-0.420000,-0.420000
2.962155,-0.015616,0.025864,1.008208,-0.700000,-0.420000,-0.420000
2.966221,-0.014640,0.026352,1.007232,-0.560000,-0.420000,-0.420000
2.970288,-0.015128,0.026840,1.010160,-0.560000,-0.420000,-0.420000
2.974354,-0.014640,0.025376,1.007720,-0.700000,-0.420000,-0.420000
2.978420,-0.014152,0.026352,1.008208,-0.700000,-0.420000,-0.420000
2.982486,-0.015616,0.026352,1.007232,-0.700000,-0.420000,-0.280000
2.986553,-0.014152,0.026352,1.008208,-0.560000,-0.420000,-0.420000
2.990619,-0.015128,0.025376,1.008696,-0.560000,-0.280000,-0.420000
2.994685,-0.013664,0.026352,1.006744,-0.560000,-0.420000,-0.280000
2.998751,-0.014152,0.026352,1.008208,-0.560000,-0.420000,-0.420000
3.002818,-0.015616,0.026352,1.009672,-0.420000,-0.420000,-0.420000
3.006884,-0.015128,0.026840,1.008696,-0.560000,-0.560000,-0.420000
3.010950,-0.014640,0.025864,1.008696,-0.700000,-0.420000,-0.420000
3.015016,-0.015128,0.025864,1.008208,-0.560000,-0.420000,-0.420000
3.019083,-0.015128,0.026840,1.008208,-0.700000,-0.420000,-0.420000
3.023149,-0.014152,0.026840,1.008208,-0.560000,-0.420000,-0.420000
3.027215,-0.014640,0.027328,1.009184,-0.560000,-0.420000,-0.420000
3.031281,-0.014152,0.026352,1.009184,-0.560000,-0.560000,-0.420000
3.035348,-0.013176,0.025864,1.008208,-0.560000,-0.420000,-0.420000
3.039414,-0.015128,0.025864,1.009672,-0.560000,-0.420000,-0.420000
3.043480,-0.015128,0.025864,1.008696,-0.420000,-0.420000,-0.280000
3.047546,-0.014640,0.025864,1.008696,-0.560000,-0.420000,-0.280000
3.051613,-0.013664,0.025864,1.008208,-0.560000,-0.420000,-0.420000
3.055679,-0.014640,0.026840,1.008208,-0.560000,-0.420000,-0.420000
3.059745,-0.013664,0.026352,1.010160,-0.420000,-0.420000,-0.420000
3.063811,-0.014640,0.025864,1.008696,-0.560000,-0.560000,-0.280000
3.067878,-0.014640,0.027328,1.008208,-0.560000,-0.420000,-0.420000
3.071944,-0.014640,0.025864,1.007720,-0.560000,-0.420000,-0.420000
3.076010,-0.014640,0.025864,1.008208,-0.560000,-0.560000,-0.420000
3.080076,-0.014640,0.026352,1.008208,-0.560000,-0.420000,-0.420000
3.084143,-0.014640,0.025864,1.007232,-0.700000,-0.560000,-0.420000
3.088209,-0.014640,0.026352,1.008208,-0.560000,-0.420000,-0.420000
3.092275,-0.015128,0.026352,1.008696,-0.560000,-0.420000,-0.420000
3.096341,-0.014640,0.026352,1.008696,-0.700000,-0.420000,-0.420000
3.100408,-0.013664,0.026352,1.008696,-0.560000,-0.280000,-0.420000
3.104474,-0.013664,0.025864,1.005768,-0.560000,-0.280000,-0.420000
3.108540,-0.015616,0.026840,1.007232,-0.560000,-0.280000,-0.420000
3.112606,-0.013664,0.026352,1.008696,-0.420000,-0.420000,-0.420000
3.116673,-0.014640,0.025376,1.009184,-0.560000,-0.420000,-0.420000
3.120739,-0.015616,0.025864,1.007720,-0.560000,-0.560000,-0.420000
3.124805,-0.014152,0.026840,1.007232,-0.700000,-0.560000,-0.420000
3.128871,-0.014640,0.026840,1.007232,-0.560000,-0.280000,-0.420000
3.132938,-0.015128,0.026352,1.008696,-0.560000,-0.420000,-0.420000
3.137004,-0.013664,0.026352,1.007720,-0.420000,-0.420000,-0.420000
3.141070,-0.014640,0.026352,1.008696,-0.420000,-0.280000,-0.420000
3.145136,-0.016104,0.027328,1.007720,-0.700000,-0.280000,-0.420000
3.149203,-0.014152,0.025864,1.008208,-0.560000,-0.420000,-0.420000
3.153269,-0.013664,0.027328,1.008696,-0.700000,-0.420000,-0.420000
3.157335,-0.013664,0.026840,1.008696,-0.560000,-0.420000,-0.420000
3.161401,-0.014152,0.026840,1.008696,-0.700000,-0.420000,-0.420000
3.165468,-0.014640,0.026352,1.008208,-0.700000,-0.420000,-0.420000
3.169534,-0.013664,0.026352,1.007232,-0.700000,-0.420000,-0.420000
3.173600,-0.015616,0.026352,1.008208,-0.560000,-0.280000,-0.280000
3.177666,-0.013664,0.025864,1.009672,-0.560000,-0.420000,-0.420000
3.181733,-0.014640,0.025864,1.009184,-0.560000,-0.420000,-0.420000
3.185799,-0.014640,0.026352,1.009672,-0.560000,-0.420000,-0.420000
3.189865,-0.015128,0.027328,1.009184,-0.560000,-0.560000,-0.280000
3.193931,-0.014640,0.026352,1.008208,-0.560000,-0.420000,-0.420000
3.197998,-0.014152,0.025864,1.008208,-0.420000,-0.560000,-0.420000
3.202064,-0.015128,0.026352,1.008696,-0.560000,-0.420000,-0.420000
3.206130,-0.015128,0.026840,1.007720,-0.560000,-0.420000,-0.420000
3.210196,-0.014640,0.025376,1.008696,-0.560000,-0.420000,-0.420000
3.214263,-0.015128,0.024400,1.009184,-0.560000,-0.420000,-0.420000
3.218329,-0.015616,0.026352,1.007720,-0.560000,-0.420000,-0.420000
3.222395,-0.014152,0.026352,1.007720,-0.560000,-0.420000,-0.420000
3.226461,-0.014640,0.026352,1.007232,-0.560000,-0.420000,-0.420000
3.230528,-0.015616,0.026840,1.008208,-0.700000,-0.420000,-0.420000
3.234594,-0.015128,0.026352,1.007720,-0.560000,-0.280000,-0.420000
3.238660,-0.014640,0.026840,1.008208,-0.560000,-0.420000,-0.420000
3.242727,-0.016104,0.026840,1.007232,-0.700000,-0.420000,-0.420000
3.246793,-0.015616,0.025864,1.009184,-0.560000,-0.420000,-0.280000
3.250859,-0.013664,0.026840,1.008696,-0.560000,-0.420000,-0.280000
3.254925,-0.014640,0.026352,1.009184,-0.700000,-0.420000,-0.420000
3.258992,-0.014640,0.026352,1.008208,-0.700000,-0.420000,-0.420000
3.263058,-0.014640,0.025864,1.008208,-0.700000,-0.420000,-0.420000
3.267124,-0.015128,0.025864,1.007720,-0.700000,-0.420000,-0.420000
3.271190,-0.014152,0.026352,1.007720,-0.700000,-0.560000,-0.420000
3.275257,-0.014152,0.026352,1.007720,-0.560000,-0.420000,-0.280000
3.279323,-0.014640,0.025864,1.007232,-0.560000,-0.420000,-0.420000
3.283389,-0.015128,0.026352,1.008696,-0.560000,-0.420000,-0.420000
3.287455,-0.013664,0.026352,1.010160,-0.560000,-0.420000,-0.420000
3.291522,-0.013664,0.026840,1.007232,-0.560000,-0.420000,-0.420000
3.295588,-0.014640,0.026840,1.009184,-0.560000,-0.420000,-0.420000
3.299654,-0.015128,0.025864,1.008208,-0.560000,-0.560000,-0.420000
3.303720,-0.013664,0.026840,1.008208,-0.560000,-0.420000,-0.420000
3.307787,-0.014152,0.026352,1.008208,-0.700000,-0.420000,-0.420000
3.311853,-0.014640,0.026352,1.009184,-0.560000,-0.280000,-0.420000
3.315919,-0.014640,0.026840,1.007720,-0.560000,-0.420000,-0.420000
3.319985,-0.015128,0.026352,1.008208,-0.420000,-0.420000,-0.420000
3.324052,-0.014640,0.027328,1.006256,-0.700000,-0.420000,-0.420000
3.328118,-0.015128,0.026352,1.007232,-0.700000,-0.420000,-0.420000
3.332184,-0.014640,0.025864,1.008696,-0.560000,-0.420000,-0.280000
3.336250,-0.014640,0.026352,1.007720,-0.560000,-0.420000,-0.420000
3.340317,-0.015128,0.026352,1.007720,-0.560000,-0.420000,-0.420000
3.344383,-0.014152,0.025864,1.009672,-0.560000,-0.420000,-0.420000
3.348449,-0.015128,0.026352,1.006744,-0.560000,-0.280000,-0.420000
3.352515,-0.014640,0.027816,1.006744,-0.560000,-0.420000,-0.280000
3.356582,-0.015128,0.026840,1.007720,-0.700000,-0.420000,-0.280000
3.360648,-0.014152,0.026840,1.007720,-0.560000,-0.560000,-0.420000
3.364714,-0.015128,0.026352,1.007232,-0.560000,-0.420000,-0.280000
3.368780,-0.015616,0.026840,1.008208,-0.420000,-0.420000,-0.420000
3.372847,-0.015128,0.027328,1.006744,-0.560000,-0.560000,-0.420000
3.376913,-0.014152,0.027328,1.008208,-0.560000,-0.420000,-0.420000
3.380979,-0.015616,0.026840,1.009184,-0.700000,-0.560000,-0.420000
3.385045,-0.014152,0.025864,1.008696,-0.560000,-0.420000,-0.420000
3.389112,-0.013176,0.026352,1.010160,-0.560000,-0.420000,-0.420000
3.393178,-0.014640,0.026840,1.009184,-0.560000,-0.420000,-0.420000
3.397244,-0.015128,0.026352,1.009184,-0.560000,-0.560000,-0.420000
3.401310,-0.014640,0.026352,1.008208,-0.560000,-0.420000,-0.420000
3.405377,-0.014640,0.026352,1.007720,-0.560000,-0.280000,-0.420000
3.409443,-0.013664,0.026840,1.007720,-0.560000,-0.560000,-0.420000
3.413509,-0.013176,0.025376,1.008208,-0.700000,-0.420000,-0.420000
3.417575,-0.014640,0.026352,1.008208,-0.560000,-0.420000,-0.420000
3.421642,-0.014640,0.026840,1.007232,-0.560000,-0.420000,-0.280000
3.425708,-0.015128,0.027328,1.008696,-0.700000,-0.560000,-0.280000
3.429774,-0.013664,0.026840,1.008696,-0.700000,-0.420000,-0.420000
3.433840,-0.014152,0.027328,1.008208,-0.560000,-0.420000,-0.420000
3.437907,-0.015128,0.026840,1.008696,-0.560000,-0.420000,-0.420000
3.441973,-0.014152,0.026352,1.008696,-0.560000,-0.420000,-0.420000
3.446039,-0.013664,0.026352,1.008696,-0.560000,-0.420000,-0.420000
3.450105,-0.014152,0.026352,1.008696,-0.700000,-0.420000,-0.420000
3.454172,-0.013664,0.025864,1.009672,-0.560000,-0.420000,-0.420000
3.458238,-0.014640,0.026840,1.008696,-0.560000,-0.420000,-0.420000
3.462304,-0.014152,0.026352,1.009184,-0.560000,-0.420000,-0.280000
3.466370,-0.014152,0.025864,1.009672,-0.560000,-0.420000,-0.420000
3.470437,-0.014152,0.025864,1.008208,-0.700000,-0.420000,-0.420000
3.474503,-0.015128,0.026352,1.007232,-0.700000,-0.420000,-0.420000
3.478569,-0.014152,0.026840,1.009184,-0.700000,-0.420000,-0.280000
3.482635,-0.015128,0.025376,1.008696,-0.560000,-0.420000,-0.420000
3.486702,-0.014640,0.025864,1.008208,-0.560000,-0.560000,-0.420000
3.490768,-0.014640,0.027328,1.008208,-0.420000,-0.420000,-0.420000
3.494834,-0.015128,0.026352,1.007232,-0.420000,-0.420000,-0.280000
3.498900,-0.015128,0.027328,1.007720,-0.560000,-0.420000,-0.420000
3.502967,-0.015128,0.026352,1.007720,-0.560000,-0.420000,-0.420000
3.507033,-0.013664,0.026352,1.008696,-0.700000,-0.420000,-0.420000
3.511099,-0.014640,0.026840,1.008208,-0.700000,-0.420000,-0.420000
3.515165,-0.015616,0.026352,1.007720,-0.560000,-0.420000,-0.420000
3.519232,-0.014152,0.027328,1.007720,-0.700000,-0.420000,-0.420000
3.523298,-0.015128,0.025864,1.009672,-0.560000,-0.420000,-0.280000
3.527364,-0.013664,0.026352,1.007232,-0.560000,-0.560000,-0.420000
3.531430,-0.015128,0.028304,1.008696,-0.700000,-0.420000,-0.420000
3.535497,-0.016592,0.026840,1.008696,-0.560000,-0.420000,-0.420000
3.539563,-0.014640,0.026352,1.008208,-0.560000,-0.420000,-0.420000
3.543629,-0.014152,0.025864,1.007720,-0.700000,-0.420000,-0.420000
3.547695,-0.014640,0.026352,1.007720,-0.560000,-0.420000,-0.420000
3.551762,-0.014152,0.026352,1.008208,-0.700000,-0.420000,-0.420000
3.555828,-0.014640,0.026352,1.008208,-0.700000,-0.560000,-0.420000
3.559894,-0.014152,0.027328,1.007232,-0.560000,-0.420000,-0.420000
3.563960,-0.014640,0.025864,1.008208,-0.560000,-0.420000,-0.420000
3.568027,-0.015128,0.026352,1.009672,-0.420000,-0.420000,-0.280000
3.572093,-0.015128,0.026840,1.008208,-0.560000,-0.420000,-0.420000
3.576159,-0.014640,0.026840,1.009184,-0.700000,-0.280000,-0.420000
3.580225,-0.013664,0.027328,1.008696,-0.560000,-0.420000,-0.280000
3.584292,-0.014152,0.025864,1.008696,-0.560000,-0.420000,-0.280000
3.588358,-0.015128,0.027328,1.007720,-0.560000,-0.420000,-0.280000
3.592424,-0.015128,0.027328,1.007720,-0.700000,-0.280000,-0.280000
3.596490,-0.014152,0.025864,1.009672,-0.560000,-0.420000,-0.420000
3.600557,-0.014152,0.025864,1.008696,-0.560000,-0.420000,-0.420000
3.604623,-0.015616,0.025864,1.009184,-0.700000,-0.420000,-0.420000
3.608689,-0.015128,0.026840,1.008696,-0.560000,-0.420000,-0.420000
3.612755,-0.014640,0.026840,1.008696,-0.560000,-0.420000,-0.420000
3.616822,-0.014152,0.026352,1.008208,-0.560000,-0.420000,-0.420000
3.620888,-0.014640,0.025376,1.007720,-0.560000,-0.420000,-0.280000
3.624954,-0.015128,0.027328,1.008208,-0.560000,-0.420000,-0.420000
3.629020,-0.014640,0.026352,1.008208,-0.560000,-0.560000,-0.420000
3.633087,-0.015128,0.026840,1.009184,-0.560000,-0.560000,-0.420000
3.637153,-0.015128,0.026840,1.007720,-0.420000,-0.280000,-0.280000
3.641219,-0.015128,0.026352,1.007232,-0.560000,-0.420000,-0.420000
3.645285,-0.014640,0.025864,1.008208,-0.700000,-0.420000,-0.420000
3.649352,-0.014640,0.026840,1.008696,-0.560000,-0.420000,-0.420000
3.653418,-0.015128,0.026352,1.007232,-0.560000,-0.420000,-0.420000
3.657484,-0.014640,0.027328,1.006744,-0.700000,-0.280000,-0.420000
3.661550,-0.014640,0.026352,1.008208,-0.560000,-0.280000,-0.420000
3.665617,-0.014640,0.026352,1.007720,-0.700000,-0.280000,-0.420000
3.669683,-0.014152,0.027328,1.008696,-0.560000,-0.420000,-0.420000
3.673749,-0.014152,0.025376,1.007720,-0.700000,-0.420000,-0.420000
3.677815,-0.015128,0.026840,1.008696,-0.700000,-0.420000,-0.420000
3.681882,-0.014152,0.025864,1.008696,-0.700000,-0.420000,-0.280000
3.685948,-0.014152,0.026840,1.007720,-0.560000,-0.560000,-0.420000
3.690014,-0.013664,0.026840,1.008696,-0.560000,-0.560000,-0.420000
3.694080,-0.014640,0.025376,1.008208,-0.560000,-0.420000,-0.420000
3.698147,-0.014152,0.025376,1.007720,-0.560000,-0.420000,-0.420000
3.702213,-0.013664,0.026840,1.007720,-0.560000,-0.420000,-0.420000
3.706279,-0.014152,0.025864,1.009184,-0.560000,-0.420000,-0.420000
3.710345,-0.014152,0.026840,1.008208,-0.560000,-0.420000,-0.420000
3.714412,-0.015128,0.026840,1.007232,-0.700000,-0.420000,-0.420000
3.718478,-0.014640,0.026840,1.007720,-0.700000,-0.280000,-0.420000
3.722544,-0.014640,0.025864,1.007720,-0.560000,-0.420000,-0.420000
3.726610,-0.015616,0.026840,1.008696,-0.560000,-0.420000,-0.420000
3.730677,-0.014640,0.026352,1.007720,-0.700000,-0.420000,-0.420000
3.734743,-0.014640,0.025864,1.006256,-0.700000,-0.280000,-0.420000
3.738809,-0.014640,0.025376,1.007232,-0.560000,-0.420000,-0.280000
3.742875,-0.014152,0.025864,1.008208,-0.560000,-0.420000,-0.420000
3.746942,-0.014640,0.026352,1.007720,-0.700000,-0.420000,-0.420000
3.751008,-0.015128,0.026352,1.009672,-0.560000,-0.420000,-0.420000
3.755074,-0.014152,0.025864,1.009184,-0.420000,-0.420000,-0.420000
3.759140,-0.015616,0.027328,1.006744,-0.560000,-0.280000,-0.420000
3.763207,-0.015128,0.026840,1.008208,-0.560000,-0.420000,-0.420000
3.767273,-0.014640,0.026352,1.008208,-0.700000,-0.420000,-0.420000
3.771339,-0.014152,0.025864,1.007232,-0.560000,-0.420000,-0.420000
3.775405,-0.014640,0.025864,1.007720,-0.560000,-0.420000,-0.420000
3.779472,-0.014640,0.026840,1.007232,-0.560000,-0.420000,-0.420000
3.783538,-0.014152,0.026352,1.007720,-0.700000,-0.420000,-0.420000
3.787604,-0.014152,0.027328,1.007720,-0.560000,-0.420000,-0.420000
3.791670,-0.015128,0.026352,1.008696,-0.560000,-0.420000,-0.280000
3.795737,-0.015128,0.026840,1.007720,-0.700000,-0.420000,-0.420000
3.799803,-0.014152,0.027328,1.006744,-0.560000,-0.420000,-0.420000
3.803869,-0.015128,0.025864,1.009184,-0.560000,-0.420000,-0.420000
3.807935,-0.014152,0.026840,1.008696,-0.560000,-0.420000,-0.420000
3.812002,-0.014640,0.026352,1.008696,-0.560000,-0.420000,-0.420000
3.816068,-0.014640,0.026840,1.008696,-0.560000,-0.560000,-0.420000
3.820134,-0.015616,0.027328,1.008208,-0.560000,-0.280000,-0.280000
3.824200,-0.013176,0.026840,1.007720,-0.560000,-0.420000,-0.420000
3.828267,-0.014152,0.026840,1.008208,-0.700000,-0.420000,-0.420000
3.832333,-0.014640,0.026840,1.008696,-0.560000,-0.420000,-0.420000
3.836399,-0.015128,0.026352,1.008696,-0.700000,-0.420000,-0.420000
3.840465,-0.014640,0.026840,1.007232,-0.560000,-0.420000,-0.420000
3.844532,-0.013664,0.026840,1.008696,-0.560000,-0.420000,-0.280000
3.848598,-0.015616,0.026840,1.007232,-0.560000,-0.420000,-0.420000
3.852664,-0.014640,0.027328,1.008696,-0.560000,-0.420000,-0.420000
3.856730,-0.015128,0.026352,1.008208,-0.560000,-0.420000,-0.420000
3.860797,-0.014152,0.026352,1.008208,-0.560000,-0.420000,-0.420000
3.864863,-0.013664,0.026352,1.006744,-0.700000,-0.420000,-0.420000
3.868929,-0.014640,0.026352,1.007720,-0.700000,-0.560000,-0.420000
3.872995,-0.014640,0.026352,1.009184,-0.700000,-0.560000,-0.420000
3.877062,-0.014152,0.025864,1.009672,-0.560000,-0.420000,-0.280000
3.881128,-0.015128,0.027328,1.008208,-0.560000,-0.420000,-0.420000
3.885194,-0.016104,0.026352,1.009184,-0.700000,-0.560000,-0.420000
3.889260,-0.015128,0.025864,1.007720,-0.560000,-0.420000,-0.420000
3.893327,-0.014640,0.026352,1.007720,-0.700000,-0.420000,-0.280000
3.897393,-0.014640,0.025864,1.008696,-0.560000,-0.420000,-0.420000
3.901459,-0.015128,0.026840,1.008208,-0.560000,-0.420000,-0.420000
3.905525,-0.015128,0.026840,1.009184,-0.560000,-0.420000,-0.420000
3.909592,-0.014640,0.026352,1.007720,-0.560000,-0.420000,-0.420000
3.913658,-0.015616,0.026840,1.009184,-0.420000,-0.420000,-0.420000
3.917724,-0.014152,0.025864,1.009184,-0.560000,-0.420000,-0.420000
3.921790,-0.013664,0.025864,1.007232,-0.700000,-0.420000,-0.420000
3.925857,-0.013664,0.025376,1.007720,-0.560000,-0.280000,-0.420000
3.929923,-0.014152,0.025376,1.007232,-0.560000,-0.420000,-0.420000
3.933989,-0.014640,0.026352,1.008208,-0.560000,-0.420000,-0.420000
3.938055,-0.014640,0.025376,1.009184,-0.560000,-0.420000,-0.420000
3.942122,-0.015128,0.026840,1.007720,-0.700000,-0.420000,-0.280000
3.946188,-0.014152,0.025376,1.007720,-0.560000,-0.420000,-0.420000
3.950254,-0.013176,0.026352,1.009672,-0.560000,-0.420000,-0.420000
3.954321,-0.014640,0.026840,1.008208,-0.560000,-0.420000,-0.420000
3.958387,-0.013664,0.026352,1.008208,-0.560000,-0.420000,-0.420000
3.962453,-0.012688,0.026840,1.008208,-0.560000,-0.420000,-0.280000
3.966519,-0.015128,0.027328,1.007720,-0.560000,-0.420000,-0.420000
3.970586,-0.015128,0.026840,1.007232,-0.560000,-0.420000,-0.420000
3.974652,-0.014640,0.026840,1.008208,-0.560000,-0.280000,-0.280000
3.978718,-0.014640,0.026352,1.008696,-0.560000,-0.420000,-0.420000
3.982784,-0.014152,0.026352,1.009184,-0.560000,-0.420000,-0.420000
3.986851,-0.014152,0.025864,1.008208,-0.700000,-0.420000,-0.420000
3.990917,-0.013664,0.026352,1.008208,-0.700000,-0.420000,-0.420000
3.994983,-0.014152,0.025864,1.008696,-0.560000,-0.420000,-0.420000
3.999049,-0.015616,0.025864,1.008208,-0.700000,-0.420000,-0.420000
4.003116,-0.014640,0.025376,1.007720,-0.560000,-0.560000,-0.420000
4.007182,-0.014640,0.026352,1.006256,-0.700000,-0.420000,-0.420000
4.011248,-0.014640,0.026352,1.008696,-0.560000,-0.420000,-0.420000
4.015314,-0.013176,0.026352,1.008696,-0.560000,-0.420000,-0.420000
4.019381,-0.014640,0.026352,1.007232,-0.700000,-0.420000,-0.280000
4.023447,-0.014640,0.025376,1.008208,-0.560000,-0.420000,-0.420000
4.027513,-0.014152,0.026840,1.007720,-0.560000,-0.420000,-0.420000
4.031579,-0.014640,0.026352,1.008696,-0.560000,-0.560000,-0.420000
4.035646,-0.014152,0.026840,1.007232,-0.560000,-0.420000,-0.280000
4.039712,-0.014640,0.026352,1.008696,-0.560000,-0.420000,-0.420000
4.043778,-0.014152,0.025864,1.008208,-0.560000,-0.420000,-0.420000
4.047844,-0.015128,0.026840,1.006744,-0.700000,-0.420000,-0.420000
4.051911,-0.014640,0.025864,1.008696,-0.700000,-0.560000,-0.420000
4.055977,-0.014640,0.025376,1.008696,-0.560000,-0.420000,-0.420000
4.060043,-0.015616,0.027816,1.008208,-0.700000,-0.420000,-0.420000
4.064109,-0.014152,0.026840,1.007232,-0.560000,-0.420000,-0.420000
4.068176,-0.013664,0.025864,1.008208,-0.560000,-0.560000,-0.420000
4.072242,-0.014640,0.025864,1.008208,-0.560000,-0.420000,-0.420000
4.076308,-0.014640,0.026352,1.008696,-0.560000,-0.560000,-0.420000
4.080374,-0.014152,0.025376,1.007720,-0.560000,-0.420000,-0.420000
4.084441,-0.013664,0.026352,1.008208,-0.560000,-0.420000,-0.420000
4.088507,-0.013664,0.025864,1.009672,-0.560000,-0.420000,-0.280000
4.092573,-0.014152,0.026352,1.008696,-0.700000,-0.420000,-0.420000
4.096639,-0.014152,0.026840,1.007720,-0.700000,-0.420000,-0.420000
4.100706,-0.014152,0.026352,1.008696,-0.700000,-0.420000,-0.420000
4.104772,-0.015128,0.026840,1.008696,-0.700000,-0.420000,-0.420000
4.108838,-0.014640,0.026840,1.008208,-0.560000,-0.420000,-0.280000
4.112904,-0.013664,0.026840,1.007232,-0.560000,-0.420000,-0.420000
4.116971,-0.014152,0.025376,1.007720,-0.560000,-0.420000,-0.420000
4.121037,-0.014152,0.025864,1.008208,-0.560000,-0.280000,-0.420000
4.125103,-0.014640,0.026840,1.008696,-0.560000,-0.420000,-0.420000
4.129169,-0.014640,0.026840,1.008696,-0.560000,-0.420000,-0.420000
4.133236,-0.014152,0.025864,1.008696,-0.560000,-0.420000,-0.420000
4.137302,-0.014640,0.025864,1.007232,-0.560000,-0.420000,-0.420000
4.141368,-0.014640,0.026840,1.006744,-0.560000,-0.420000,-0.420000
4.145434,-0.013664,0.026352,1.008208,-0.560000,-0.420000,-0.420000
4.149501,-0.015128,0.026352,1.008696,-0.420000,-0.420000,-0.420000
4.153567,-0.014152,0.026840,1.007232,-0.700000,-0.420000,-0.420000
4.157633,-0.015128,0.026840,1.007720,-0.560000,-0.420000,-0.420000
4.161699,-0.014640,0.026840,1.008208,-0.560000,-0.280000,-0.420000
4.165766,-0.014640,0.026840,1.007720,-0.560000,-0.560000,-0.420000
4.169832,-0.015128,0.024888,1.008696,-0.560000,-0.560000,-0.420000
4.173898,-0.014152,0.025864,1.009184,-0.560000,-0.420000,-0.420000
4.177964,-0.015128,0.025864,1.009184,-0.560000,-0.420000,-0.420000
4.182031,-0.014640,0.026352,1.006744,-0.560000,-0.420000,-0.280000
4.186097,-0.014640,0.026840,1.008696,-0.700000,-0.280000,-0.420000
4.190163,-0.014152,0.027328,1.007232,-0.700000,-0.420000,-0.280000
4.194229,-0.014152,0.026352,1.007232,-0.560000,-0.420000,-0.280000
4.198296,-0.014152,0.025864,1.010160,-0.700000,-0.420000,-0.420000
4.202362,-0.014640,0.026352,1.009184,-0.560000,-0.420000,-0.420000
4.206428,-0.015128,0.026840,1.007720,-0.560000,-0.280000,-0.420000
4.210494,-0.014640,0.026840,1.008696,-0.700000,-0.420000,-0.420000
4.214561,-0.012688,0.026352,1.008696,-0.700000,-0.560000,-0.420000
4.218627,-0.013664,0.026352,1.007232,-0.560000,-0.420000,-0.420000
4.222693,-0.016104,0.027328,1.008208,-0.560000,-0.280000,-0.280000
4.226759,-0.013664,0.027328,1.007232,-0.700000,-0.420000,-0.420000
4.230826,-0.014152,0.025864,1.007720,-0.560000,-0.420000,-0.420000
4.234892,-0.014152,0.026840,1.008208,-0.560000,-0.560000,-0.420000
4.238958,-0.014640,0.026352,1.007720,-0.560000,-0.420000,-0.420000
4.243024,-0.014640,0.025864,1.008696,-0.700000,-0.420000,-0.420000
4.247091,-0.015616,0.026352,1.008696,-0.420000,-0.420000,-0.420000
4.251157,-0.014152,0.025376,1.008696,-0.560000,-0.420000,-0.420000
4.255223,-0.014152,0.026840,1.007720,-0.560000,-0.420000,-0.420000
4.259289,-0.014640,0.026352,1.007232,-0.560000,-0.420000,-0.420000
4.263356,-0.015128,0.027328,1.007720,-0.560000,-0.420000,-0.420000
4.267422,-0.014640,0.026840,1.009672,-0.560000,-0.420000,-0.420000
4.271488,-0.014152,0.025864,1.007720,-0.560000,-0.420000,-0.420000
4.275554,-0.015616,0.025864,1.007720,-0.560000,-0.420000,-0.420000
4.279621,-0.014640,0.026840,1.007720,-0.560000,-0.420000,-0.420000
4.283687,-0.014152,0.026352,1.008208,-0.560000,-0.420000,-0.420000
4.287753,-0.014152,0.026352,1.008696,-0.700000,-0.280000,-0.420000
4.291819,-0.014640,0.025864,1.007232,-0.560000,-0.420000,-0.420000
4.295886,-0.014640,0.026352,1.007232,-0.560000,-0.420000,-0.420000
4.299952,-0.014640,0.027328,1.008208,-0.700000,-0.420000,-0.420000
4.304018,-0.014152,0.026840,1.006744,-0.560000,-0.560000,-0.420000
4.308084,-0.015128,0.026840,1.008696,-0.560000,-0.420000,-0.420000
4.312151,-0.014640,0.026840,1.008208,-0.700000,-0.420000,-0.420000
4.316217,-0.014152,0.025376,1.007720,-0.560000,-0.560000,-0.420000
4.320283,-0.014640,0.026840,1.006256,-0.560000,-0.420000,-0.420000
4.324349,-0.014640,0.026352,1.007720,-0.560000,-0.420000,-0.280000
4.328416,-0.014152,0.027328,1.009184,-0.560000,-0.420000,-0.420000
4.332482,-0.014640,0.027328,1.009184,-0.560000,-0.420000,-0.420000
4.336548,-0.014152,0.026840,1.008696,-0.560000,-0.420000,-0.420000
4.340614,-0.014152,0.027328,1.008208,-0.560000,-0.560000,-0.420000
4.344681,-0.014640,0.026840,1.007720,-0.560000,-0.280000,-0.420000
4.348747,-0.014640,0.025376,1.008696,-0.560000,-0.560000,-0.420000
4.352813,-0.013664,0.027328,1.009184,-0.560000,-0.280000,-0.280000
4.356879,-0.015616,0.026840,1.006744,-0.700000,-0.420000,-0.420000
4.360946,-0.015128,0.026352,1.008208,-0.560000,-0.420000,-0.420000
4.365012,-0.015128,0.026352,1.006744,-0.560000,-0.560000,-0.420000
4.369078,-0.014640,0.025864,1.008208,-0.700000,-0.420000,-0.420000
4.373144,-0.014152,0.026352,1.006744,-0.560000,-0.420000,-0.280000
4.377211,-0.014152,0.026352,1.007720,-0.560000,-0.420000,-0.420000
4.381277,-0.014152,0.026352,1.009184,-0.700000,-0.420000,-0.420000
4.385343,-0.014640,0.026840,1.005768,-0.560000,-0.420000,-0.280000
4.389409,-0.014152,0.026840,1.008696,-0.560000,-0.560000,-0.420000
4.393476,-0.015616,0.027816,1.009184,-0.700000,-0.560000,-0.420000
4.397542,-0.015128,0.026352,1.007232,-0.560000,-0.420000,-0.420000
4.401608,-0.014152,0.025864,1.008208,-0.560000,-0.420000,-0.420000
4.405674,-0.014640,0.026352,1.008696,-0.700000,-0.420000,-0.420000
4.409741,-0.014152,0.027328,1.008208,-0.560000,-0.420000,-0.420000
4.413807,-0.015128,0.026352,1.006744,-0.420000,-0.280000,-0.420000
4.417873,-0.014152,0.026352,1.008696,-0.560000,-0.420000,-0.420000
4.421939,-0.016104,0.025864,1.008208,-0.560000,-0.560000,-0.420000
4.426006,-0.015128,0.025864,1.009184,-0.700000,-0.420000,-0.420000
4.430072,-0.015128,0.025864,1.009184,-0.560000,-0.420000,-0.420000
4.434138,-0.014152,0.027328,1.008696,-0.560000,-0.420000,-0.420000
4.438204,-0.015128,0.025864,1.008208,-0.560000,-0.280000,-0.420000
4.442271,-0.015616,0.025864,1.007720,-0.560000,-0.420000,-0.420000
4.446337,-0.015616,0.026840,1.008696,-0.700000,-0.420000,-0.420000
4.450403,-0.014640,0.025864,1.008696,-0.560000,-0.420000,-0.420000
4.454469,-0.014152,0.026840,1.008208,-0.560000,-0.560000,-0.280000
4.458536,-0.015128,0.026840,1.008696,-0.560000,-0.700000,-0.420000
4.462602,-0.016104,0.026840,1.006744,-0.560000,-0.420000,-0.420000
4.466668,-0.013664,0.026840,1.007720,-0.700000,-0.420000,-0.420000
4.470734,-0.014640,0.026352,1.009672,-0.560000,-0.560000,-0.420000
4.474801,-0.015128,0.026352,1.008208,-0.560000,-0.420000,-0.420000
4.478867,-0.014152,0.026840,1.008208,-0.560000,-0.280000,-0.420000
4.482933,-0.014152,0.026352,1.008696,-0.560000,-0.420000,-0.420000
4.486999,-0.014640,0.026840,1.008696,-0.560000,-0.420000,-0.280000
4.491066,-0.015616,0.027328,1.009184,-0.420000,-0.420000,-0.420000
4.495132,-0.014152,0.025864,1.008208,-0.560000,-0.420000,-0.420000
4.499198,-0.014152,0.027328,1.007720,-0.560000,-0.420000,-0.420000
4.503264,-0.014640,0.026840,1.008208,-0.700000,-0.560000,-0.420000
4.507331,-0.014152,0.026840,1.008208,-0.560000,-0.420000,-0.280000
4.511397,-0.014152,0.025864,1.008696,-0.560000,-0.420000,-0.420000
4.515463,-0.015128,0.026840,1.007720,-0.560000,-0.420000,-0.420000
4.519530,-0.014152,0.026352,1.007720,-0.560000,-0.420000,-0.280000
4.523596,-0.014640,0.026352,1.009184,-0.560000,-0.420000,-0.280000
4.527662,-0.014152,0.026352,1.008696,-0.560000,-0.420000,-0.280000
4.531728,-0.014152,0.025376,1.007720,-0.560000,-0.420000,-0.420000
4.535795,-0.015128,0.026840,1.007720,-0.700000,-0.420000,-0.420000
4.539861,-0.014152,0.026352,1.008208,-0.700000,-0.420000,-0.420000
4.543927,-0.015128,0.026352,1.006256,-0.700000,-0.420000,-0.420000
4.547993,-0.015128,0.025864,1.008696,-0.560000,-0.560000,-0.420000
4.552060,-0.014640,0.026840,1.008696,-0.700000,-0.420000,-0.420000
4.556126,-0.015128,0.026352,1.008696,-0.700000,-0.420000,-0.420000
4.560192,-0.015616,0.027328,1.008208,-0.560000,-0.280000,-0.420000
4.564258,-0.015616,0.026352,1.008208,-0.560000,-0.420000,-0.420000
4.568325,-0.014152,0.027816,1.008696,-0.560000,-0.420000,-0.280000
4.572391,-0.014152,0.026840,1.009184,-0.560000,-0.420000,-0.420000
4.576457,-0.013664,0.026352,1.007720,-0.560000,-0.280000,-0.420000
4.580523,-0.015128,0.026840,1.007232,-0.700000,-0.420000,-0.280000
4.584590,-0.015616,0.025864,1.008208,-0.560000,-0.420000,-0.280000
4.588656,-0.014152,0.025864,1.010160,-0.560000,-0.420000,-0.420000
4.592722,-0.015128,0.026840,1.007720,-0.700000,-0.420000,-0.280000
4.596788,-0.014640,0.026840,1.009672,-0.560000,-0.420000,-0.280000
4.600855,-0.015128,0.025864,1.008696,-0.560000,-0.420000,-0.420000
4.604921,-0.014152,0.025864,1.008208,-0.700000,-0.420000,-0.420000
4.608987,-0.014152,0.026352,1.008208,-0.560000,-0.280000,-0.280000
4.613053,-0.014152,0.025864,1.006256,-0.560000,-0.560000,-0.420000
4.617120,-0.013664,0.025864,1.009672,-0.560000,-0.560000,-0.420000
4.621186,-0.013664,0.026352,1.009184,-0.560000,-0.420000,-0.420000
4.625252,-0.015128,0.025864,1.007232,-0.560000,-0.420000,-0.420000
4.629318,-0.016104,0.025864,1.008696,-0.560000,-0.280000,-0.420000
4.633385,-0.014640,0.026840,1.008208,-0.700000,-0.280000,-0.420000
4.637451,-0.014152,0.025864,1.008208,-0.700000,-0.420000,-0.420000
4.641517,-0.014152,0.026840,1.008696,-0.560000,-0.420000,-0.420000
4.645583,-0.013664,0.025864,1.008696,-0.560000,-0.420000,-0.280000
4.649650,-0.015128,0.026840,1.008208,-0.560000,-0.420000,-0.420000
4.653716,-0.015128,0.026352,1.008208,-0.560000,-0.420000,-0.420000
4.657782,-0.015616,0.027328,1.009672,-0.700000,-0.420000,-0.420000
4.661848,-0.013664,0.025864,1.008208,-0.560000,-0.420000,-0.420000
4.665915,-0.013664,0.026840,1.008208,-0.700000,-0.420000,-0.420000
4.669981,-0.013176,0.026352,1.007232,-0.560000,-0.280000,-0.280000
4.674047,-0.013664,0.025864,1.008208,-0.560000,-0.280000,-0.420000
4.678113,-0.013664,0.026352,1.008696,-0.560000,-0.420000,-0.420000
4.682180,-0.013664,0.025864,1.007720,-0.560000,-0.420000,-0.420000
4.686246,-0.014152,0.027328,1.008208,-0.700000,-0.420000,-0.420000
4.690312,-0.015128,0.025864,1.006744,-0.560000,-0.420000,-0.280000
4.694378,-0.014640,0.025864,1.008208,-0.560000,-0.420000,-0.420000
4.698445,-0.015128,0.025864,1.007232,-0.560000,-0.420000,-0.420000
4.702511,-0.014152,0.027328,1.008208,-0.700000,-0.420000,-0.420000
4.706577,-0.014152,0.027328,1.008208,-0.560000,-0.420000,-0.420000
4.710643,-0.015616,0.026352,1.006256,-0.560000,-0.280000,-0.420000
4.714710,-0.014640,0.026352,1.007720,-0.560000,-0.420000,-0.420000
4.718776,-0.014640,0.026352,1.008696,-0.560000,-0.420000,-0.420000
4.722842,-0.015128,0.027328,1.009184,-0.560000,-0.420000,-0.420000
4.726908,-0.014640,0.025864,1.007720,-0.560000,-0.420000,-0.420000
4.730975,-0.014640,0.026352,1.007232,-0.700000,-0.420000,-0.280000
4.735041,-0.014152,0.026352,1.007720,-0.700000,-0.420000,-0.420000
4.739107,-0.015128,0.026840,1.008696,-0.700000,-0.420000,-0.420000
4.743173,-0.015128,0.026352,1.008208,-0.700000,-0.420000,-0.420000
4.747240,-0.015128,0.026352,1.007720,-0.560000,-0.420000,-0.420000
4.751306,-0.013176,0.025376,1.007232,-0.560000,-0.560000,-0.420000
4.755372,-0.014152,0.026840,1.007720,-0.560000,-0.560000,-0.420000
4.759438,-0.014640,0.026352,1.007720,-0.560000,-0.420000,-0.420000
4.763505,-0.014640,0.026840,1.009184,-0.560000,-0.420000,-0.420000
4.767571,-0.014640,0.025864,1.006744,-0.560000,-0.420000,-0.420000
4.771637,-0.014640,0.026840,1.008208,-0.560000,-0.420000,-0.420000
4.775703,-0.015616,0.026840,1.007720,-0.560000,-0.280000,-0.420000
4.779770,-0.014640,0.027328,1.009184,-0.560000,-0.420000,-0.420000
4.783836,-0.015128,0.027328,1.008696,-0.700000,-0.280000,-0.420000
4.787902,-0.014152,0.026352,1.008208,-0.560000,-0.420000,-0.420000
4.791968,-0.014152,0.026352,1.008208,-0.560000,-0.420000,-0.420000
4.796035,-0.013664,0.026840,1.007232,-0.560000,-0.420000,-0.420000
4.800101,-0.014640,0.026352,1.007720,-0.560000,-0.420000,-0.420000
4.804167,-0.014152,0.026352,1.010648,-0.560000,-0.420000,-0.420000
4.808233,-0.014640,0.026840,1.007232,-0.700000,-0.420000,-0.280000
4.812300,-0.014640,0.026352,1.009184,-0.560000,-0.420000,-0.280000
4.816366,-0.014640,0.026840,1.008208,-0.560000,-0.560000,-0.420000
4.820432,-0.014640,0.026352,1.007232,-0.560000,-0.420000,-0.280000
4.824498,-0.014152,0.026352,1.008696,-0.560000,-0.420000,-0.420000
4.828565,-0.014640,0.025376,1.007232,-0.560000,-0.420000,-0.280000
4.832631,-0.015128,0.026840,1.009184,-0.560000,-0.420000,-0.420000
4.836697,-0.014152,0.024888,1.008208,-0.700000,-0.420000,-0.280000
4.840763,-0.013664,0.025864,1.009672,-0.560000,-0.420000,-0.420000
4.844830,-0.014152,0.026352,1.009184,-0.560000,-0.420000,-0.420000
4.848896,-0.014152,0.025864,1.008208,-0.560000,-0.420000,-0.420000
4.852962,-0.015128,0.025864,1.006744,-0.560000,-0.420000,-0.420000
4.857028,-0.013664,0.026352,1.008208,-0.560000,-0.420000,-0.420000
4.861095,-0.014152,0.025864,1.007720,-0.560000,-0.280000,-0.280000
4.865161,-0.014640,0.026840,1.007232,-0.700000,-0.420000,-0.420000
4.869227,-0.013176,0.025864,1.009184,-0.560000,-0.420000,-0.420000
4.873293,-0.015128,0.025864,1.008208,-0.560000,-0.420000,-0.420000
4.877360,-0.013664,0.025864,1.007232,-0.560000,-0.420000,-0.420000
4.881426,-0.015128,0.025864,1.008696,-0.560000,-0.560000,-0.420000
4.885492,-0.015128,0.025864,1.007232,-0.560000,-0.560000,-0.420000
4.889558,-0.014152,0.026840,1.009184,-0.700000,-0.420000,-0.420000
4.893625,-0.014152,0.026352,1.007720,-0.560000,-0.420000,-0.420000
4.897691,-0.015128,0.026840,1.007232,-0.560000,-0.420000,-0.420000
4.901757,-0.014152,0.025864,1.009672,-0.560000,-0.560000,-0.420000
4.905823,-0.014640,0.026352,1.009184,-0.700000,-0.420000,-0.280000
4.909890,-0.014640,0.025864,1.009184,-0.700000,-0.420000,-0.280000
4.913956,-0.013664,0.026840,1.008696,-0.700000,-0.560000,-0.420000
4.918022,-0.014152,0.026352,1.006744,-0.420000,-0.420000,-0.420000
4.922088,-0.014640,0.026840,1.006744,-0.560000,-0.420000,-0.420000
4.926155,-0.014640,0.026840,1.008208,-0.560000,-0.420000,-0.420000
4.930221,-0.014640,0.026840,1.009184,-0.700000,-0.420000,-0.420000
4.934287,-0.014152,0.025864,1.008696,-0.560000,-0.420000,-0.420000
4.938353,-0.013664,0.026840,1.008208,-0.700000,-0.420000,-0.420000
4.942420,-0.015128,0.026352,1.007720,-0.560000,-0.420000,-0.420000
4.946486,-0.014640,0.025864,1.008208,-0.560000,-0.420000,-0.420000
4.950552,-0.014640,0.025864,1.009184,-0.700000,-0.420000,-0.280000
4.954618,-0.013664,0.026352,1.008208,-0.560000,-0.280000,-0.420000
4.958685,-0.014640,0.026352,1.007720,-0.700000,-0.420000,-0.420000
4.962751,-0.013664,0.025864,1.009672,-0.560000,-0.280000,-0.420000
4.966817,-0.014152,0.025376,1.007720,-0.560000,-0.420000,-0.420000
4.970883,-0.014640,0.025864,1.009184,-0.560000,-0.560000,-0.420000
4.974950,-0.015128,0.026352,1.007720,-0.700000,-0.420000,-0.420000
4.979016,-0.014640,0.026352,1.006256,-0.560000,-0.560000,-0.420000
4.983082,-0.014152,0.026352,1.008208,-0.700000,-0.280000,-0.420000
4.987148,-0.013664,0.027328,1.006744,-0.700000,-0.420000,-0.420000
4.991215,-0.014640,0.026352,1.007232,-0.560000,-0.420000,-0.420000
4.995281,-0.014640,0.026352,1.009672,-0.560000,-0.420000,-0.420000
4.999347,-0.014152,0.025864,1.007720,-0.560000,-0.420000,-0.420000
5.003414,-0.015128,0.026352,1.007720,-0.560000,-0.420000,-0.420000
5.007480,-0.015128,0.026352,1.007720,-0.560000,-0.420000,-0.420000
5.011546,-0.014640,0.026352,1.007232,-0.560000,-0.420000,-0.420000
5.015612,-0.014152,0.026840,1.008696,-0.560000,-0.420000,-0.420000
5.019679,-0.014152,0.026352,1.008208,-0.700000,-0.420000,-0.420000
5.023745,-0.013664,0.026840,1.008208,-0.700000,-0.420000,-0.420000
5.027811,-0.014152,0.026352,1.007720,-0.560000,-0.420000,-0.420000
5.031877,-0.014640,0.024888,1.007232,-0.560000,-0.420000,-0.420000
5.035944,-0.014640,0.026352,1.008696,-0.420000,-0.420000,-0.280000
5.040010,-0.015128,0.025864,1.008208,-0.560000,-0.420000,-0.280000
5.044076,-0.013664,0.026352,1.009184,-0.560000,-0.420000,-0.280000
5.048142,-0.013664,0.027816,1.007720,-0.700000,-0.420000,-0.420000
5.052209,-0.015128,0.026840,1.007720,-0.560000,-0.420000,-0.420000
5.056275,-0.014152,0.026352,1.007232,-0.560000,-0.420000,-0.420000
5.060341,-0.014640,0.025864,1.008696,-0.560000,-0.420000,-0.420000
5.064407,-0.015128,0.025864,1.008696,-0.560000,-0.420000,-0.420000
5.068474,-0.014640,0.026352,1.008696,-0.700000,-0.420000,-0.420000
5.072540,-0.014152,0.025864,1.009672,-0.560000,-0.280000,-0.420000
5.076606,-0.014640,0.026352,1.008208,-0.560000,-0.420000,-0.420000
5.080672,-0.015128,0.026352,1.007232,-0.560000,-0.420000,-0.420000
5.084739,-0.014152,0.026840,1.007232,-0.700000,-0.420000,-0.420000
5.088805,-0.014640,0.026352,1.009184,-0.700000,-0.420000,-0.420000
5.092871,-0.014640,0.026840,1.007720,-0.560000,-0.420000,-0.280000
5.096937,-0.014640,0.026352,1.008208,-0.560000,-0.420000,-0.420000
5.101004,-0.014640,0.027328,1.007720,-0.560000,-0.420000,-0.420000
5.105070,-0.015128,0.026352,1.007720,-0.560000,-0.420000,-0.420000
5.109136,-0.014640,0.025864,1.007232,-0.560000,-0.420000,-0.420000
5.113202,-0.015128,0.025864,1.008208,-0.700000,-0.420000,-0.420000
5.117269,-0.014152,0.025376,1.008208,-0.700000,-0.420000,-0.420000
5.121335,-0.014152,0.026840,1.008208,-0.700000,-0.420000,-0.420000
5.125401,-0.014640,0.026840,1.006744,-0.700000,-0.280000,-0.420000
5.129467,-0.014152,0.026352,1.009184,-0.560000,-0.420000,-0.280000
5.133534,-0.014152,0.026352,1.007232,-0.700000,-0.420000,-0.420000
5.137600,-0.013664,0.027328,1.006744,-0.560000,-0.420000,-0.420000
5.141666,-0.013176,0.027328,1.005280,-0.560000,-0.560000,-0.420000
5.145732,-0.015128,0.026840,1.008208,-0.560000,-0.560000,-0.280000
5.149799,-0.013664,0.025376,1.007232,-0.560000,-0.420000,-0.420000
5.153865,-0.014640,0.026840,1.009184,-0.560000,-0.420000,-0.420000
5.157931,-0.014640,0.026840,1.008696,-0.560000,-0.420000,-0.280000
5.161997,-0.015128,0.027328,1.008696,-0.700000,-0.420000,-0.420000
5.166064,-0.014640,0.026352,1.007720,-0.560000,-0.420000,-0.420000
5.170130,-0.014152,0.026352,1.007720,-0.560000,-0.280000,-0.420000
5.174196,-0.014152,0.027328,1.008208,-0.560000,-0.420000,-0.280000
5.178262,-0.015128,0.025864,1.007232,-0.560000,-0.420000,-0.420000
5.182329,-0.013664,0.025376,1.008696,-0.560000,-0.420000,-0.420000
5.186395,-0.015616,0.026352,1.009672,-0.560000,-0.420000,-0.420000
5.190461,-0.015128,0.027328,1.008208,-0.560000,-0.420000,-0.420000
5.194527,-0.015616,0.026352,1.005768,-0.560000,-0.420000,-0.420000
5.198594,-0.014152,0.025864,1.007720,-0.560000,-0.420000,-0.420000
5.202660,-0.014640,0.026840,1.008208,-0.560000,-0.420000,-0.420000
5.206726,-0.015128,0.027328,1.008208,-0.700000,-0.420000,-0.420000
5.210792,-0.015128,0.025864,1.008696,-0.700000,-0.280000,-0.420000
5.214859,-0.014640,0.025376,1.008696,-0.560000,-0.420000,-0.420000
5.218925,-0.014640,0.025864,1.008696,-0.560000,-0.560000,-0.420000
5.222991,-0.014152,0.026840,1.008208,-0.700000,-0.420000,-0.420000
5.227057,-0.014640,0.026352,1.007720,-0.700000,-0.420000,-0.420000
5.231124,-0.015616,0.025864,1.007720,-0.560000,-0.420000,-0.420000
5.235190,-0.013664,0.026352,1.008696,-0.560000,-0.420000,-0.280000
5.239256,-0.013664,0.026840,1.008208,-0.560000,-0.420000,-0.420000
5.243322,-0.015128,0.026840,1.008208,-0.560000,-0.420000,-0.420000
5.247389,-0.014640,0.027816,1.009184,-0.700000,-0.420000,-0.420000
5.251455,-0.014152,0.025864,1.008208,-0.560000,-0.420000,-0.280000
5.255521,-0.014152,0.027328,1.008696,-0.560000,-0.420000,-0.420000
5.259587,-0.014152,0.027816,1.007720,-0.560000,-0.560000,-0.420000
5.263654,-0.013664,0.026352,1.008696,-0.560000,-0.420000,-0.420000
5.267720,-0.015128,0.026352,1.008696,-0.560000,-0.420000,-0.420000
5.271786,-0.015128,0.025864,1.008208,-0.560000,-0.420000,-0.420000
5.275852,-0.014152,0.027328,1.009184,-0.700000,-0.420000,-0.420000
5.279919,-0.015128,0.027328,1.008696,-0.560000,-0.420000,-0.420000
5.283985,-0.014640,0.025864,1.008696,-0.700000,-0.280000,-0.280000
5.288051,-0.014152,0.026840,1.009184,-0.700000,-0.420000,-0.420000
5.292117,-0.014640,0.026840,1.007720,-0.560000,-0.280000,-0.420000
5.296184,-0.015616,0.026840,1.008208,-0.560000,-0.420000,-0.280000
5.300250,-0.015128,0.027328,1.008208,-0.560000,-0.420000,-0.420000
5.304316,-0.014152,0.026840,1.007232,-0.560000,-0.420000,-0.280000
5.308382,-0.015616,0.027328,1.007720,-0.420000,-0.420000,-0.280000
5.312449,-0.013664,0.026352,1.007232,-0.420000,-0.560000,-0.280000
5.316515,-0.015128,0.025376,1.008208,-0.560000,-0.560000,-0.420000
5.320581,-0.015128,0.026352,1.007720,-0.560000,-0.420000,-0.420000
5.324647,-0.014152,0.027328,1.006744,-0.560000,-0.420000,-0.420000
5.328714,-0.015616,0.026840,1.007232,-0.700000,-0.420000,-0.420000
5.332780,-0.015128,0.026840,1.006256,-0.700000,-0.560000,-0.420000
5.336846,-0.014152,0.027328,1.007720,-0.700000,-0.420000,-0.420000
5.340912,-0.014640,0.025376,1.009184,-0.560000,-0.420000,-0.420000
5.344979,-0.015616,0.025864,1.009184,-0.560000,-0.420000,-0.420000
5.349045,-0.013664,0.026352,1.008208,-0.560000,-0.420000,-0.420000
5.353111,-0.015616,0.026840,1.007232,-0.560000,-0.560000,-0.420000
5.357177,-0.015128,0.026352,1.008208,-0.560000,-0.420000,-0.420000
5.361244,-0.014152,0.026352,1.008696,-0.560000,-0.420000,-0.420000
5.365310,-0.014640,0.025864,1.007232,-0.560000,-0.420000,-0.280000
5.369376,-0.014152,0.026352,1.007720,-0.700000,-0.420000,-0.420000
5.373442,-0.015128,0.026840,1.008208,-0.700000,-0.560000,-0.420000
5.377509,-0.015128,0.025864,1.007720,-0.560000,-0.420000,-0.420000
5.381575,-0.015616,0.026352,1.007232,-0.700000,-0.420000,-0.420000
5.385641,-0.015128,0.027328,1.007720,-0.700000,-0.560000,-0.280000
5.389707,-0.013664,0.025864,1.007720,-0.560000,-0.560000,-0.420000
5.393774,-0.013664,0.026840,1.008208,-0.560000,-0.420000,-0.420000
5.397840,-0.015128,0.026352,1.006256,-0.560000,-0.420000,-0.420000
5.401906,-0.015128,0.026352,1.008208,-0.700000,-0.420000,-0.420000
5.405972,-0.014152,0.025864,1.009184,-0.560000,-0.420000,-0.420000
5.410039,-0.014640,0.026840,1.009184,-0.700000,-0.420000,-0.420000
5.414105,-0.014152,0.027328,1.008208,-0.560000,-0.420000,-0.420000
5.418171,-0.014152,0.026840,1.008208,-0.560000,-0.420000,-0.420000
5.422237,-0.015616,0.025864,1.007720,-0.560000,-0.420000,-0.420000
5.426304,-0.013664,0.027328,1.008696,-0.700000,-0.280000,-0.420000
5.430370,-0.015128,0.026352,1.008208,-0.560000,-0.420000,-0.420000
5.434436,-0.014152,0.026840,1.006744,-0.700000,-0.420000,-0.420000
5.438502,-0.013664,0.027328,1.007232,-0.560000,-0.420000,-0.420000
5.442569,-0.013664,0.026840,1.008696,-0.560000,-0.420000,-0.280000
5.446635,-0.015128,0.026352,1.008208,-0.560000,-0.420000,-0.420000
5.450701,-0.014640,0.026840,1.007720,-0.700000,-0.420000,-0.420000
5.454767,-0.014152,0.027328,1.007720,-0.700000,-0.560000,-0.420000
5.458834,-0.015128,0.026352,1.008208,-0.700000,-0.420000,-0.420000
5.462900,-0.015616,0.026352,1.007720,-0.560000,-0.420000,-0.420000
5.466966,-0.014152,0.027328,1.006744,-0.560000,-0.560000,-0.420000
5.471033,-0.015128,0.027328,1.008696,-0.700000,-0.420000,-0.420000
5.475099,-0.014152,0.025864,1.008208,-0.560000,-0.420000,-0.420000
5.479165,-0.014640,0.026352,1.007720,-0.560000,-0.560000,-0.420000
5.483231,-0.015128,0.025864,1.007232,-0.700000,-0.560000,-0.420000
5.487298,-0.015616,0.027816,1.007232,-0.700000,-0.420000,-0.420000
5.491364,-0.014640,0.025864,1.008208,-0.700000,-0.420000,-0.280000
5.495430,-0.014152,0.026840,1.008208,-0.700000,-0.420000,-0.280000
5.499496,-0.015128,0.026840,1.008208,-0.700000,-0.560000,-0.420000
5.503563,-0.014640,0.025864,1.007720,-0.560000,-0.420000,-0.420000
5.507629,-0.013176,0.026840,1.007720,-0.560000,-0.560000,-0.420000
5.511695,-0.014640,0.025864,1.006744,-0.700000,-0.420000,-0.420000
5.515761,-0.015128,0.026352,1.007720,-0.560000,-0.420000,-0.420000
5.519828,-0.014640,0.027328,1.008208,-0.560000,-0.420000,-0.420000
5.523894,-0.015128,0.025864,1.007232,-0.560000,-0.420000,-0.420000
5.527960,-0.013664,0.026352,1.009184,-0.700000,-0.420000,-0.420000
5.532026,-0.014152,0.026352,1.008208,-0.560000,-0.420000,-0.280000
5.536093,-0.014640,0.026352,1.008696,-0.700000,-0.280000,-0.420000
5.540159,-0.014640,0.026840,1.008696,-0.420000,-0.420000,-0.420000
5.544225,-0.014152,0.026352,1.008208,-0.560000,-0.420000,-0.420000
5.548291,-0.015616,0.026352,1.008696,-0.700000,-0.420000,-0.280000
5.552358,-0.014640,0.025864,1.008208,-0.560000,-0.420000,-0.420000
5.556424,-0.014152,0.026352,1.007232,-0.560000,-0.420000,-0.420000
5.560490,-0.014152,0.026840,1.007720,-0.700000,-0.420000,-0.420000
5.564556,-0.013664,0.027328,1.008208,-0.560000,-0.420000,-0.420000
5.568623,-0.015616,0.026840,1.009672,-0.560000,-0.420000,-0.280000
5.572689,-0.014152,0.026352,1.009184,-0.560000,-0.420000,-0.420000
5.576755,-0.014152,0.026352,1.009672,-0.560000,-0.420000,-0.420000
5.580821,-0.014640,0.027328,1.006744,-0.560000,-0.420000,-0.420000
5.584888,-0.014152,0.027328,1.007232,-0.560000,-0.420000,-0.420000
5.588954,-0.014152,0.027328,1.008208,-0.560000,-0.560000,-0.420000
5.593020,-0.014640,0.026840,1.007720,-0.700000,-0.280000,-0.420000
5.597086,-0.014152,0.025376,1.008208,-0.560000,-0.420000,-0.420000
5.601153,-0.014640,0.025864,1.008696,-0.700000,-0.560000,-0.280000
5.605219,-0.014640,0.026352,1.008208,-0.700000,-0.420000,-0.420000
5.609285,-0.014152,0.027816,1.007232,-0.560000,-0.420000,-0.280000
5.613351,-0.014640,0.026352,1.008696,-0.560000,-0.420000,-0.280000
5.617418,-0.015616,0.025864,1.007232,-0.560000,-0.560000,-0.420000
5.621484,-0.014152,0.025864,1.007720,-0.560000,-0.420000,-0.420000
5.625550,-0.014152,0.025376,1.007232,-0.560000,-0.420000,-0.420000
5.629616,-0.014152,0.027328,1.008208,-0.700000,-0.420000,-0.420000
5.633683,-0.014640,0.026352,1.008696,-0.420000,-0.420000,-0.420000
5.637749,-0.014152,0.025376,1.008696,-0.560000,-0.420000,-0.420000
5.641815,-0.014640,0.025864,1.007720,-0.560000,-0.420000,-0.280000
5.645881,-0.014640,0.026352,1.007720,-0.560000,-0.420000,-0.420000
5.649948,-0.015128,0.026352,1.008208,-0.560000,-0.420000,-0.420000
5.654014,-0.013664,0.027328,1.007720,-0.700000,-0.420000,-0.420000
5.658080,-0.014152,0.026352,1.007232,-0.560000,-0.420000,-0.420000
5.662146,-0.014152,0.026840,1.007232,-0.560000,-0.420000,-0.420000
5.666213,-0.015128,0.027328,1.008208,-0.560000,-0.420000,-0.420000
5.670279,-0.014152,0.027328,1.007720,-0.560000,-0.420000,-0.420000
5.674345,-0.014640,0.025864,1.007232,-0.560000,-0.420000,-0.280000
5.678411,-0.014152,0.027328,1.009184,-0.560000,-0.420000,-0.420000
5.682478,-0.014152,0.026840,1.008696,-0.560000,-0.420000,-0.420000
5.686544,-0.013176,0.024888,1.008696,-0.560000,-0.420000,-0.280000
5.690610,-0.014152,0.026352,1.006744,-0.560000,-0.420000,-0.420000
5.694676,-0.014152,0.026352,1.007720,-0.560000,-0.420000,-0.420000
5.698743,-0.014640,0.026840,1.009184,-0.560000,-0.420000,-0.420000
5.702809,-0.014640,0.026840,1.009672,-0.560000,-0.420000,-0.420000
5.706875,-0.015128,0.026840,1.008696,-0.700000,-0.420000,-0.420000
5.710941,-0.014640,0.027328,1.009184,-0.560000,-0.420000,-0.420000
5.715008,-0.015128,0.026840,1.008208,-0.700000,-0.420000,-0.280000
5.719074,-0.014640,0.026840,1.007232,-0.420000,-0.420000,-0.420000
5.723140,-0.015128,0.026840,1.008696,-0.560000,-0.420000,-0.420000
5.727206,-0.013664,0.026840,1.008208,-0.560000,-0.420000,-0.420000
5.731273,-0.014152,0.026352,1.008208,-0.560000,-0.560000,-0.420000
5.735339,-0.014640,0.026352,1.009672,-0.420000,-0.420000,-0.420000
5.739405,-0.014640,0.026352,1.007720,-0.560000,-0.420000,-0.280000
5.743471,-0.014640,0.026840,1.009184,-0.560000,-0.420000,-0.420000
5.747538,-0.015128,0.026352,1.008208,-0.560000,-0.560000,-0.280000
5.751604,-0.015128,0.026352,1.008208,-0.560000,-0.420000,-0.420000
5.755670,-0.015128,0.026352,1.007720,-0.420000,-0.280000,-0.420000
5.759736,-0.014640,0.027328,1.009184,-0.420000,-0.420000,-0.420000
5.763803,-0.014152,0.026352,1.008208,-0.560000,-0.280000,-0.420000
5.767869,-0.015128,0.026352,1.008696,-0.560000,-0.280000,-0.420000
5.771935,-0.015616,0.025864,1.008696,-0.560000,-0.280000,-0.420000
5.776001,-0.014640,0.026352,1.008696,-0.700000,-0.420000,-0.280000
5.780068,-0.014640,0.026840,1.008696,-0.700000,-0.420000,-0.280000
5.784134,-0.013664,0.026840,1.008208,-0.560000,-0.420000,-0.420000
5.788200,-0.015128,0.027328,1.008208,-0.560000,-0.420000,-0.420000
5.792266,-0.014640,0.027328,1.006744,-0.560000,-0.280000,-0.420000
5.796333,-0.015616,0.027328,1.009184,-0.560000,-0.420000,-0.420000
5.800399,-0.014640,0.026840,1.008208,-0.560000,-0.420000,-0.420000
5.804465,-0.013664,0.026840,1.008696,-0.560000,-0.420000,-0.420000
5.808531,-0.014152,0.026352,1.008208,-0.420000,-0.420000,-0.420000
5.812598,-0.014640,0.026352,1.007720,-0.420000,-0.420000,-0.420000
5.816664,-0.014152,0.026352,1.006256,-0.700000,-0.420000,-0.280000
5.820730,-0.014152,0.026840,1.008208,-0.560000,-0.280000,-0.420000
5.824796,-0.014152,0.026352,1.008696,-0.560000,-0.420000,-0.420000
5.828863,-0.013664,0.025864,1.008696,-0.700000,-0.420000,-0.420000
5.832929,-0.014640,0.026352,1.007720,-0.700000,-0.420000,-0.420000
5.836995,-0.014640,0.025864,1.007720,-0.420000,-0.420000,-0.420000
5.841061,-0.013664,0.026352,1.008208,-0.560000,-0.420000,-0.420000
5.845128,-0.014640,0.026840,1.006256,-0.560000,-0.420000,-0.420000
5.849194,-0.014640,0.027816,1.007232,-0.560000,-0.420000,-0.420000
5.853260,-0.013664,0.026352,1.007720,-0.700000,-0.420000,-0.420000
5.857326,-0.015128,0.026840,1.008696,-0.700000,-0.420000,-0.420000
5.861393,-0.015616,0.027328,1.007720,-0.700000,-0.420000,-0.280000
5.865459,-0.014640,0.026840,1.008208,-0.560000,-0.420000,-0.420000
5.869525,-0.013664,0.026352,1.008696,-0.560000,-0.560000,-0.420000
5.873591,-0.014640,0.027328,1.008208,-0.560000,-0.420000,-0.420000
5.877658,-0.014152,0.027328,1.006256,-0.700000,-0.420000,-0.420000
5.881724,-0.014640,0.026840,1.006256,-0.560000,-0.420000,-0.280000
5.885790,-0.015128,0.026840,1.007232,-0.560000,-0.560000,-0.420000
5.889856,-0.014152,0.026352,1.007720,-0.560000,-0.560000,-0.420000
5.893923,-0.015616,0.026840,1.009672,-0.700000,-0.420000,-0.420000
5.897989,-0.015128,0.025864,1.007720,-0.560000,-0.420000,-0.420000
5.902055,-0.014640,0.026840,1.008696,-0.560000,-0.420000,-0.280000
5.906122,-0.015128,0.026840,1.007720,-0.560000,-0.420000,-0.420000
5.910188,-0.014152,0.026840,1.008208,-0.420000,-0.420000,-0.420000
5.914254,-0.014152,0.026840,1.007232,-0.700000,-0.420000,-0.420000
5.918320,-0.015616,0.026352,1.007720,-0.560000,-0.420000,-0.420000
5.922387,-0.013176,0.027328,1.009184,-0.560000,-0.420000,-0.420000
5.926453,-0.014640,0.026352,1.008208,-0.560000,-0.560000,-0.420000
5.930519,-0.014640,0.026352,1.008208,-0.560000,-0.420000,-0.420000
5.934585,-0.014152,0.026840,1.007232,-0.560000,-0.420000,-0.420000
5.938652,-0.014152,0.025376,1.008208,-0.560000,-0.420000,-0.420000
5.942718,-0.014152,0.026352,1.007720,-0.560000,-0.420000,-0.420000
5.946784,-0.014640,0.026352,1.007720,-0.560000,-0.420000,-0.420000
5.950850,-0.015128,0.026352,1.009184,-0.560000,-0.560000,-0.420000
5.954917,-0.014152,0.025864,1.007232,-0.560000,-0.420000,-0.280000
5.958983,-0.014640,0.026352,1.008696,-0.560000,-0.420000,-0.420000
5.963049,-0.015128,0.025864,1.010160,-0.560000,-0.420000,-0.420000
5.967115,-0.015128,0.026352,1.007720,-0.560000,-0.420000,-0.280000
5.971182,-0.014152,0.026840,1.008208,-0.560000,-0.280000,-0.420000
5.975248,-0.014640,0.025864,1.008696,-0.560000,-0.420000,-0.420000
5.979314,-0.014640,0.025864,1.008208,-0.700000,-0.560000,-0.420000
5.983380,-0.014640,0.026352,1.007720,-0.560000,-0.420000,-0.280000
5.987447,-0.015128,0.026352,1.009184,-0.700000,-0.420000,-0.420000
5.991513,-0.015128,0.026352,1.008208,-0.560000,-0.560000,-0.280000
5.995579,-0.014640,0.026352,1.008208,-0.560000,-0.420000,-0.420000
5.999645,-0.015128,0.026352,1.006744,-0.560000,-0.420000,-0.280000
6.003712,-0.014640,0.026352,1.008696,-0.560000,-0.420000,-0.420000
6.007778,-0.016104,0.025864,1.007232,-0.560000,-0.280000,-0.420000
6.011844,-0.015128,0.024888,1.009184,-0.700000,-0.420000,-0.420000
6.015910,-0.014640,0.025864,1.007720,-0.700000,-0.420000,-0.420000
6.019977,-0.015128,0.027328,1.008696,-0.560000,-0.420000,-0.420000
6.024043,-0.014640,0.027328,1.007232,-0.560000,-0.420000,-0.420000
6.028109,-0.014640,0.026840,1.007720,-0.700000,-0.420000,-0.420000
6.032175,-0.014640,0.025864,1.008208,-0.560000,-0.420000,-0.420000
6.036242,-0.014152,0.026840,1.006256,-0.420000,-0.560000,-0.420000
6.040308,-0.014152,0.026840,1.007720,-0.560000,-0.420000,-0.420000
6.044374,-0.015616,0.026840,1.007232,-0.560000,-0.560000,-0.420000
6.048440,-0.015616,0.026352,1.008208,-0.700000,-0.420000,-0.280000
6.052507,-0.014152,0.026352,1.006744,-0.700000,-0.420000,-0.420000
6.056573,-0.015128,0.026840,1.007232,-0.560000,-0.420000,-0.420000
6.060639,-0.014640,0.026352,1.009184,-0.560000,-0.420000,-0.280000
6.064705,-0.015128,0.025864,1.006256,-0.560000,-0.420000,-0.420000
6.068772,-0.014640,0.027328,1.005768,-0.560000,-0.420000,-0.420000
6.072838,-0.014152,0.026840,1.006744,-0.560000,-0.560000,-0.280000
6.076904,-0.014640,0.025864,1.008208,-0.560000,-0.420000,-0.420000
6.080970,-0.015128,0.026352,1.009184,-0.700000,-0.420000,-0.420000
6.085037,-0.014640,0.026840,1.009672,-0.700000,-0.420000,-0.420000
6.089103,-0.013664,0.026352,1.006744,-0.560000,-0.420000,-0.420000
6.093169,-0.015616,0.026352,1.007232,-0.560000,-0.420000,-0.420000
6.097235,-0.014152,0.025864,1.008696,-0.560000,-0.420000,-0.280000
6.101302,-0.013664,0.026352,1.008696,-0.560000,-0.280000,-0.420000
6.105368,-0.013176,0.026352,1.009672,-0.700000,-0.420000,-0.420000
6.109434,-0.014640,0.026840,1.006744,-0.560000,-0.420000,-0.420000
6.113500,-0.014152,0.026840,1.007232,-0.560000,-0.420000,-0.280000
6.117567,-0.013664,0.027328,1.008208,-0.700000,-0.420000,-0.420000
6.121633,-0.013176,0.026840,1.008208,-0.700000,-0.280000,-0.280000
6.125699,-0.015128,0.026840,1.009184,-0.560000,-0.420000,-0.420000
6.129765,-0.014640,0.025864,1.008696,-0.560000,-0.420000,-0.420000
6.133832,-0.015128,0.026840,1.008696,-0.560000,-0.420000,-0.420000
6.137898,-0.014152,0.026840,1.007720,-0.560000,-0.420000,-0.420000
6.141964,-0.014152,0.026352,1.008696,-0.560000,-0.420000,-0.420000
6.146030,-0.013176,0.026352,1.008696,-0.700000,-0.280000,-0.420000
6.150097,-0.014640,0.025376,1.008696,-0.560000,-0.420000,-0.420000
6.154163,-0.014152,0.026352,1.007720,-0.700000,-0.420000,-0.420000
6.158229,-0.014152,0.026352,1.008208,-0.560000,-0.420000,-0.420000
6.162295,-0.016104,0.025864,1.009184,-0.700000,-0.420000,-0.420000
6.166362,-0.014640,0.026352,1.007720,-0.700000,-0.420000,-0.420000
6.170428,-0.014640,0.026352,1.007232,-0.700000,-0.420000,-0.280000
6.174494,-0.014640,0.025376,1.008208,-0.560000,-0.420000,-0.420000
6.178560,-0.013664,0.026352,1.007720,-0.700000,-0.420000,-0.280000
6.182627,-0.014152,0.027328,1.007720,-0.700000,-0.420000,-0.420000
6.186693,-0.013176,0.027328,1.007232,-0.700000,-0.420000,-0.420000
6.190759,-0.014640,0.025864,1.006744,-0.560000,-0.420000,-0.420000
6.194825,-0.013664,0.027328,1.008696,-0.700000,-0.420000,-0.420000
6.198892,-0.014640,0.026840,1.008208,-0.560000,-0.420000,-0.420000
6.202958,-0.015616,0.026352,1.008208,-0.560000,-0.420000,-0.280000
6.207024,-0.014640,0.027816,1.008208,-0.700000,-0.420000,-0.420000
6.211090,-0.013664,0.025864,1.007232,-0.560000,-0.420000,-0.420000
6.215157,-0.014640,0.026840,1.007232,-0.560000,-0.420000,-0.420000
6.219223,-0.014152,0.026352,1.009184,-0.560000,-0.420000,-0.420000
6.223289,-0.016104,0.026352,1.007720,-0.560000,-0.420000,-0.420000
6.227355,-0.015128,0.026352,1.007232,-0.560000,-0.420000,-0.420000
6.231422,-0.014640,0.026840,1.008208,-0.560000,-0.280000,-0.420000
6.235488,-0.015128,0.026840,1.008696,-0.560000,-0.420000,-0.280000
6.239554,-0.014640,0.027328,1.008696,-0.700000,-0.280000,-0.420000
6.243620,-0.014152,0.025864,1.006744,-0.560000,-0.280000,-0.420000
6.247687,-0.014152,0.026352,1.007232,-0.700000,-0.280000,-0.420000
6.251753,-0.014640,0.026352,1.009184,-0.560000,-0.560000,-0.280000
6.255819,-0.015128,0.026840,1.009672,-0.560000,-0.420000,-0.420000
6.259885,-0.013664,0.026840,1.008208,-0.560000,-0.280000,-0.280000
6.263952,-0.014152,0.027328,1.009672,-0.560000,-0.420000,-0.420000
6.268018,-0.014640,0.027816,1.009184,-0.560000,-0.420000,-0.280000
6.272084,-0.013664,0.027328,1.008208,-0.700000,-0.420000,-0.420000
6.276150,-0.014152,0.025864,1.007720,-0.560000,-0.420000,-0.420000
6.280217,-0.014152,0.026840,1.009184,-0.560000,-0.420000,-0.420000
6.284283,-0.014152,0.025864,1.007720,-0.560000,-0.420000,-0.420000
6.288349,-0.014640,0.026352,1.007232,-0.560000,-0.420000,-0.420000
6.292415,-0.014152,0.026352,1.008208,-0.560000,-0.420000,-0.420000
6.296482,-0.014152,0.026352,1.009184,-0.560000,-0.560000,-0.420000
6.300548,-0.013664,0.026352,1.008208,-0.560000,-0.420000,-0.420000
6.304614,-0.014640,0.026840,1.007232,-0.560000,-0.420000,-0.420000
6.308680,-0.014152,0.026352,1.007720,-0.560000,-0.420000,-0.420000
6.312747,-0.014152,0.026352,1.008696,-0.560000,-0.280000,-0.420000
6.316813,-0.015128,0.025864,1.007720,-0.560000,-0.420000,-0.420000
6.320879,-0.013176,0.026352,1.008208,-0.560000,-0.560000,-0.420000
6.324945,-0.015128,0.025864,1.007720,-0.560000,-0.420000,-0.420000
6.329012,-0.015128,0.025864,1.007232,-0.560000,-0.420000,-0.280000
6.333078,-0.013664,0.025864,1.008208,-0.700000,-0.420000,-0.420000
6.337144,-0.016104,0.026840,1.007232,-0.700000,-0.280000,-0.420000
6.341211,-0.014640,0.026840,1.008208,-0.560000,-0.420000,-0.420000
6.345277,-0.013664,0.026840,1.007720,-0.560000,-0.420000,-0.420000
6.349343,-0.014152,0.026840,1.007720,-0.560000,-0.280000,-0.420000
6.353409,-0.013664,0.026352,1.009184,-0.700000,-0.420000,-0.420000
6.357476,-0.014152,0.026352,1.008208,-0.700000,-0.420000,-0.420000
6.361542,-0.015128,0.026352,1.006744,-0.560000,-0.560000,-0.280000
6.365608,-0.014640,0.025376,1.008208,-0.560000,-0.420000,-0.420000
6.369674,-0.016104,0.025864,1.008208,-0.700000,-0.420000,-0.420000
6.373741,-0.014152,0.026352,1.008208,-0.560000,-0.420000,-0.280000
6.377807,-0.014152,0.026840,1.008696,-0.560000,-0.420000,-0.280000
6.381873,-0.015616,0.025864,1.007720,-0.560000,-0.420000,-0.420000
6.385939,-0.015128,0.026352,1.007232,-0.700000,-0.420000,-0.420000
6.390006,-0.015616,0.026840,1.007720,-0.560000,-0.420000,-0.420000
6.394072,-0.015616,0.025864,1.006744,-0.560000,-0.420000,-0.420000
6.398138,-0.015128,0.026840,1.006744,-0.560000,-0.420000,-0.420000
6.402204,-0.014640,0.026352,1.008696,-0.560000,-0.420000,-0.420000
6.406271,-0.014640,0.027328,1.007720,-0.560000,-0.420000,-0.420000
6.410337,-0.014152,0.025864,1.008696,-0.560000,-0.420000,-0.420000
6.414403,-0.013664,0.026352,1.007720,-0.560000,-0.420000,-0.420000
6.418469,-0.015616,0.026840,1.007720,-0.560000,-0.420000,-0.420000
6.422536,-0.015128,0.025864,1.007720,-0.700000,-0.280000,-0.420000
6.426602,-0.014640,0.026840,1.008696,-0.700000,-0.420000,-0.420000
6.430668,-0.014640,0.026352,1.007720,-0.560000,-0.420000,-0.420000
6.434734,-0.014152,0.025864,1.008696,-0.560000,-0.420000,-0.420000
6.438801,-0.015616,0.025376,1.009184,-0.560000,-0.420000,-0.420000
6.442867,-0.015128,0.025864,1.008208,-0.560000,-0.420000,-0.420000
6.446933,-0.014152,0.026840,1.008208,-0.560000,-0.420000,-0.420000
6.450999,-0.015128,0.026352,1.008208,-0.700000,-0.420000,-0.280000
6.455066,-0.014152,0.026352,1.008208,-0.700000,-0.420000,-0.280000
6.459132,-0.015128,0.026840,1.007232,-0.700000,-0.280000,-0.420000
6.463198,-0.015128,0.026352,1.008696,-0.700000,-0.280000,-0.420000
6.467264,-0.014640,0.025376,1.007232,-0.560000,-0.420000,-0.420000
6.471331,-0.014152,0.026352,1.007232,-0.560000,-0.420000,-0.420000
6.475397,-0.014152,0.025864,1.007232,-0.560000,-0.420000,-0.420000
6.479463,-0.015128,0.026840,1.007232,-0.560000,-0.420000,-0.420000
6.483529,-0.014640,0.026840,1.006256,-0.560000,-0.420000,-0.420000
6.487596,-0.014152,0.026352,1.008696,-0.560000,-0.420000,-0.420000
6.491662,-0.014152,0.027328,1.008696,-0.700000,-0.420000,-0.420000
6.495728,-0.014152,0.027328,1.008208,-0.560000,-0.420000,-0.280000
6.499794,-0.015128,0.025376,1.007232,-0.560000,-0.420000,-0.420000
6.503861,-0.015128,0.027328,1.007720,-0.560000,-0.280000,-0.420000
6.507927,-0.013664,0.026840,1.007720,-0.560000,-0.420000,-0.420000
6.511993,-0.014640,0.026840,1.008208,-0.700000,-0.280000,-0.420000
6.516059,-0.014152,0.027328,1.008208,-0.700000,-0.420000,-0.420000
6.520126,-0.014152,0.026352,1.007232,-0.560000,-0.140000,-0.420000
6.524192,-0.015128,0.026840,1.008696,-0.700000,-0.420000,-0.420000
6.528258,-0.014640,0.026840,1.008208,-0.560000,-0.280000,-0.420000
6.532324,-0.016104,0.026352,1.007720,-0.560000,-0.420000,-0.420000
6.536391,-0.014640,0.026840,1.006256,-0.700000,-0.420000,-0.420000
6.540457,-0.014640,0.026352,1.007232,-0.700000,-0.420000,-0.420000
6.544523,-0.014640,0.026840,1.007720,-0.700000,-0.420000,-0.420000
6.548589,-0.015128,0.025864,1.008696,-0.560000,-0.420000,-0.420000
6.552656,-0.014640,0.025864,1.008208,-0.700000,-0.420000,-0.280000
6.556722,-0.014152,0.026840,1.007720,-0.560000,-0.420000,-0.420000
6.560788,-0.015616,0.027328,1.007232,-0.560000,-0.420000,-0.420000
6.564854,-0.013664,0.025864,1.007720,-0.560000,-0.420000,-0.280000
6.568921,-0.015128,0.025864,1.007720,-0.560000,-0.420000,-0.420000
6.572987,-0.014152,0.025864,1.008208,-0.700000,-0.420000,-0.280000
6.577053,-0.014640,0.026840,1.007720,-0.560000,-0.560000,-0.420000
6.581119,-0.015128,0.025864,1.008208,-0.560000,-0.560000,-0.420000
6.585186,-0.014152,0.026840,1.007720,-0.560000,-0.420000,-0.420000
6.589252,-0.014152,0.026840,1.008208,-0.560000,-0.560000,-0.420000
6.593318,-0.014640,0.025864,1.007232,-0.560000,-0.560000,-0.420000
6.597384,-0.015128,0.025376,1.008208,-0.700000,-0.420000,-0.420000
6.601451,-0.014152,0.026352,1.009184,-0.560000,-0.420000,-0.420000
6.605517,-0.013664,0.026352,1.008696,-0.700000,-0.280000,-0.420000
6.609583,-0.016104,0.026352,1.007232,-0.700000,-0.420000,-0.420000
6.613649,-0.013664,0.026352,1.007232,-0.560000,-0.420000,-0.420000
6.617716,-0.015128,0.026840,1.005768,-0.560000,-0.420000,-0.420000
6.621782,-0.014152,0.026352,1.007232,-0.560000,-0.420000,-0.420000
6.625848,-0.014640,0.027328,1.008208,-0.560000,-0.420000,-0.420000
6.629914,-0.015128,0.025864,1.008696,-0.560000,-0.280000,-0.420000
6.633981,-0.015128,0.025864,1.008696,-0.560000,-0.280000,-0.280000
6.638047,-0.015128,0.026352,1.008696,-0.560000,-0.280000,-0.420000
6.642113,-0.014640,0.026840,1.008208,-0.560000,-0.420000,-0.420000
6.646179,-0.014640,0.027328,1.006744,-0.560000,-0.420000,-0.420000
6.650246,-0.014152,0.027328,1.008696,-0.560000,-0.420000,-0.420000
6.654312,-0.014152,0.026840,1.009184,-0.560000,-0.420000,-0.420000
6.658378,-0.015128,0.026352,1.009672,-0.700000,-0.420000,-0.420000
6.662444,-0.014640,0.027328,1.008208,-0.560000,-0.420000,-0.280000
6.666511,-0.015128,0.026840,1.007232,-0.560000,-0.420000,-0.420000
6.670577,-0.013664,0.027328,1.008208,-0.700000,-0.420000,-0.420000
6.674643,-0.014640,0.026352,1.008696,-0.560000,-0.560000,-0.420000
6.678709,-0.015128,0.027328,1.009184,-0.700000,-0.560000,-0.420000
6.682776,-0.016592,0.026840,1.007720,-0.700000,-0.420000,-0.420000
6.686842,-0.013664,0.026352,1.008208,-0.560000,-0.420000,-0.420000
6.690908,-0.014640,0.026840,1.008696,-0.560000,-0.420000,-0.420000
6.694974,-0.013176,0.026352,1.009672,-0.560000,-0.560000,-0.280000
6.699041,-0.015128,0.026840,1.007720,-0.700000,-0.420000,-0.420000
6.703107,-0.014640,0.025864,1.007720,-0.560000,-0.560000,-0.420000
6.707173,-0.014152,0.025864,1.007720,-0.560000,-0.280000,-0.420000
6.711239,-0.014640,0.026840,1.008208,-0.560000,-0.420000,-0.420000
6.715306,-0.014640,0.026840,1.008696,-0.700000,-0.280000,-0.420000
6.719372,-0.015616,0.026352,1.007720,-0.560000,-0.420000,-0.420000
6.723438,-0.014640,0.026840,1.008208,-0.560000,-0.420000,-0.280000
6.727504,-0.013664,0.025864,1.008696,-0.420000,-0.420000,-0.420000
6.731571,-0.013664,0.026352,1.008208,-0.560000,-0.420000,-0.420000
6.735637,-0.015128,0.026840,1.007720,-0.560000,-0.420000,-0.420000
6.739703,-0.014640,0.026840,1.008208,-0.700000,-0.420000,-0.420000
6.743769,-0.015616,0.026352,1.007720,-0.700000,-0.420000,-0.420000
6.747836,-0.014152,0.026840,1.008208,-0.700000,-0.420000,-0.420000
6.751902,-0.016104,0.026840,1.006256,-0.560000,-0.420000,-0.420000
6.755968,-0.014152,0.025376,1.007720,-0.560000,-0.420000,-0.420000
6.760034,-0.014640,0.026352,1.007232,-0.700000,-0.420000,-0.420000
6.764101,-0.015128,0.024888,1.007720,-0.560000,-0.420000,-0.420000
6.768167,-0.015616,0.027328,1.008696,-0.560000,-0.420000,-0.420000
6.772233,-0.015128,0.026352,1.006744,-0.560000,-0.420000,-0.420000
6.776300,-0.014640,0.027328,1.007720,-0.560000,-0.420000,-0.420000
6.780366,-0.014152,0.026352,1.008208,-0.560000,-0.420000,-0.420000
6.784432,-0.014152,0.026352,1.007232,-0.560000,-0.420000,-0.420000
6.788498,-0.013664,0.025864,1.006256,-0.700000,-0.560000,-0.420000
6.792565,-0.014640,0.025864,1.008208,-0.560000,-0.420000,-0.420000
6.796631,-0.014152,0.026840,1.008208,-0.560000,-0.560000,-0.420000
6.800697,-0.014152,0.025864,1.009184,-0.560000,-0.420000,-0.280000
6.804763,-0.014152,0.027328,1.007720,-0.560000,-0.420000,-0.420000
6.808830,-0.015128,0.026352,1.009184,-0.700000,-0.420000,-0.420000
6.812896,-0.014640,0.026840,1.007720,-0.560000,-0.420000,-0.420000
6.816962,-0.014640,0.026840,1.007720,-0.700000,-0.420000,-0.420000
6.821028,-0.014152,0.027328,1.008696,-0.700000,-0.420000,-0.420000
6.825095,-0.015128,0.026840,1.009672,-0.560000,-0.420000,-0.420000
6.829161,-0.013664,0.026840,1.008208,-0.420000,-0.560000,-0.420000
6.833227,-0.015128,0.026352,1.008696,-0.560000,-0.560000,-0.280000
6.837293,-0.013664,0.025864,1.008208,-0.700000,-0.420000,-0.420000
6.841360,-0.014152,0.026352,1.007232,-0.560000,-0.420000,-0.420000
6.845426,-0.014640,0.027816,1.008208,-0.560000,-0.420000,-0.280000
6.849492,-0.014640,0.027328,1.008208,-0.700000,-0.280000,-0.420000
6.853558,-0.014640,0.026840,1.008208,-0.560000,-0.420000,-0.420000
6.857625,-0.015128,0.026352,1.007232,-0.700000,-0.420000,-0.420000
6.861691,-0.013176,0.025864,1.006744,-0.700000,-0.420000,-0.420000
6.865757,-0.014640,0.026352,1.008208,-0.560000,-0.420000,-0.420000
6.869823,-0.014640,0.025376,1.008696,-0.700000,-0.420000,-0.420000
6.873890,-0.014152,0.026840,1.008208,-0.700000,-0.420000,-0.420000
6.877956,-0.014640,0.026840,1.007232,-0.560000,-0.420000,-0.420000
6.882022,-0.014640,0.026840,1.008696,-0.420000,-0.420000,-0.420000
6.886088,-0.013664,0.025864,1.009184,-0.700000,-0.560000,-0.420000
6.890155,-0.014640,0.027328,1.006744,-0.560000,-0.420000,-0.420000
6.894221,-0.013664,0.026352,1.008696,-0.420000,-0.560000,-0.420000
6.898287,-0.015128,0.025864,1.007232,-0.560000,-0.420000,-0.420000
6.902353,-0.014640,0.026352,1.008208,-0.560000,-0.420000,-0.420000
6.906420,-0.015128,0.025864,1.008208,-0.560000,-0.420000,-0.420000
6.910486,-0.014640,0.026840,1.006256,-0.700000,-0.420000,-0.420000
6.914552,-0.014152,0.026352,1.010160,-0.560000,-0.420000,-0.420000
6.918618,-0.013664,0.025864,1.008208,-0.560000,-0.420000,-0.420000
6.922685,-0.014152,0.025864,1.007232,-0.700000,-0.420000,-0.420000
6.926751,-0.014640,0.026352,1.006744,-0.560000,-0.280000,-0.420000
6.930817,-0.014640,0.026840,1.008208,-0.700000,-0.420000,-0.420000
6.934883,-0.014152,0.027328,1.008696,-0.560000,-0.420000,-0.420000
6.938950,-0.015616,0.026352,1.006744,-0.560000,-0.420000,-0.420000
6.943016,-0.015128,0.026352,1.006744,-0.560000,-0.420000,-0.280000
6.947082,-0.015128,0.025864,1.007720,-0.560000,-0.420000,-0.420000
6.951148,-0.015128,0.025864,1.006256,-0.560000,-0.420000,-0.420000
6.955215,-0.013664,0.027328,1.007720,-0.560000,-0.420000,-0.420000
6.959281,-0.014640,0.026840,1.009184,-0.560000,-0.420000,-0.420000
6.963347,-0.013176,0.026840,1.008208,-0.560000,-0.420000,-0.420000
6.967413,-0.013664,0.025864,1.007232,-0.560000,-0.420000,-0.420000
6.971480,-0.013176,0.026352,1.007720,-0.560000,-0.420000,-0.420000
6.975546,-0.013176,0.026352,1.006256,-0.700000,-0.420000,-0.420000
6.979612,-0.014152,0.026352,1.007232,-0.560000,-0.420000,-0.420000
6.983678,-0.014640,0.024888,1.007232,-0.560000,-0.420000,-0.420000
6.987745,-0.014640,0.027328,1.008696,-0.700000,-0.420000,-0.280000
6.991811,-0.014152,0.026840,1.008208,-0.700000,-0.420000,-0.420000
6.995877,-0.013664,0.026840,1.009184,-0.700000,-0.420000,-0.420000
6.999943,-0.014152,0.027328,1.006744,-0.560000,-0.420000,-0.420000
7.004010,-0.014152,0.026352,1.006744,-0.560000,-0.420000,-0.420000
7.008076,-0.015128,0.025864,1.007720,-0.420000,-0.280000,-0.420000
7.012142,-0.014152,0.025864,1.007720,-0.560000,-0.280000,-0.420000
7.016208,-0.014152,0.026840,1.007232,-0.560000,-0.560000,-0.420000
7.020275,-0.014152,0.026840,1.009184,-0.560000,-0.420000,-0.280000
7.024341,-0.015128,0.026352,1.007232,-0.560000,-0.420000,-0.420000
7.028407,-0.014152,0.026840,1.008208,-0.700000,-0.420000,-0.420000
7.032473,-0.015616,0.026352,1.008696,-0.560000,-0.280000,-0.420000
7.036540,-0.015128,0.026352,1.008208,-0.700000,-0.560000,-0.420000
7.040606,-0.014640,0.027328,1.007232,-0.560000,-0.420000,-0.420000
7.044672,-0.014640,0.025864,1.006256,-0.560000,-0.420000,-0.420000
7.048738,-0.015128,0.025864,1.007720,-0.560000,-0.420000,-0.280000
7.052805,-0.014152,0.026352,1.007720,-0.560000,-0.420000,-0.420000
7.056871,-0.014152,0.026840,1.008696,-0.560000,-0.420000,-0.420000
7.060937,-0.013664,0.027328,1.007232,-0.700000,-0.420000,-0.280000
7.065003,-0.014152,0.026840,1.007720,-0.560000,-0.420000,-0.420000
7.069070,-0.015128,0.026840,1.007232,-0.560000,-0.420000,-0.420000
7.073136,-0.015616,0.026352,1.007232,-0.700000,-0.420000,-0.420000
7.077202,-0.015128,0.025864,1.008696,-0.560000,-0.420000,-0.420000
7.081268,-0.015128,0.025376,1.008696,-0.560000,-0.420000,-0.420000
7.085335,-0.015128,0.025864,1.008696,-0.560000,-0.420000,-0.420000
7.089401,-0.014640,0.026352,1.007720,-0.560000,-0.420000,-0.420000
7.093467,-0.014152,0.026352,1.008696,-0.700000,-0.420000,-0.420000
7.097533,-0.014152,0.026840,1.007720,-0.560000,-0.420000,-0.420000
7.101600,-0.014152,0.027816,1.007720,-0.560000,-0.420000,-0.420000
7.105666,-0.014152,0.026352,1.006744,-0.560000,-0.560000,-0.420000
7.109732,-0.014640,0.027328,1.007720,-0.700000,-0.420000,-0.420000
7.113798,-0.015128,0.027816,1.007232,-0.560000,-0.420000,-0.420000
7.117865,-0.014152,0.026352,1.007232,-0.700000,-0.280000,-0.420000
7.121931,-0.013664,0.027328,1.008208,-0.700000,-0.420000,-0.420000
7.125997,-0.014640,0.025864,1.007720,-0.560000,-0.420000,-0.280000
7.130063,-0.014152,0.027328,1.009184,-0.560000,-0.420000,-0.280000
7.134130,-0.013664,0.026840,1.008696,-0.560000,-0.420000,-0.420000
7.138196,-0.015128,0.026840,1.006744,-0.560000,-0.560000,-0.420000
7.142262,-0.015128,0.026840,1.007232,-0.560000,-0.420000,-0.420000
7.146328,-0.015616,0.026352,1.007232,-0.560000,-0.420000,-0.420000
7.150395,-0.015128,0.026352,1.007720,-0.560000,-0.420000,-0.280000
7.154461,-0.015128,0.026840,1.007232,-0.420000,-0.420000,-0.420000
7.158527,-0.014640,0.026352,1.008208,-0.560000,-0.420000,-0.420000
7.162593,-0.015128,0.026352,1.008208,-0.560000,-0.420000,-0.420000
7.166660,-0.015616,0.026352,1.007720,-0.700000,-0.420000,-0.280000
7.170726,-0.014152,0.026840,1.008208,-0.560000,-0.420000,-0.420000
7.174792,-0.014152,0.026352,1.007232,-0.560000,-0.420000,-0.420000
7.178859,-0.014152,0.026840,1.008208,-0.560000,-0.560000,-0.420000
7.182925,-0.015128,0.026840,1.008696,-0.560000,-0.420000,-0.420000
7.186991,-0.015128,0.026840,1.009184,-0.700000,-0.420000,-0.280000
7.191057,-0.013664,0.026352,1.007232,-0.560000,-0.420000,-0.420000
7.195124,-0.015128,0.027328,1.009672,-0.560000,-0.420000,-0.280000
7.199190,-0.014640,0.026840,1.007232,-0.560000,-0.420000,-0.420000
7.203256,-0.014152,0.026352,1.006256,-0.560000,-0.420000,-0.420000
7.207322,-0.013664,0.027816,1.006256,-0.700000,-0.420000,-0.420000
7.211389,-0.014640,0.027328,1.007720,-0.700000,-0.420000,-0.420000
7.215455,-0.013664,0.026840,1.006256,-0.700000,-0.420000,-0.420000
7.219521,-0.014152,0.026840,1.007720,-0.420000,-0.420000,-0.280000
7.223587,-0.014152,0.025864,1.007720,-0.560000,-0.420000,-0.420000
7.227654,-0.013664,0.026840,1.009184,-0.560000,-0.420000,-0.420000
7.231720,-0.014640,0.026352,1.006256,-0.560000,-0.280000,-0.420000
7.235786,-0.015128,0.025864,1.008208,-0.560000,-0.420000,-0.420000
7.239852,-0.013664,0.026352,1.005280,-0.700000,-0.280000,-0.420000
7.243919,-0.014640,0.026840,1.007720,-0.560000,-0.420000,-0.420000
7.247985,-0.014640,0.026840,1.006744,-0.700000,-0.560000,-0.420000
7.252051,-0.013664,0.027328,1.007232,-0.560000,-0.420000,-0.420000
7.256117,-0.015128,0.026840,1.006256,-0.700000,-0.420000,-0.420000
7.260184,-0.015128,0.026840,1.008696,-0.560000,-0.560000,-0.420000
7.264250,-0.015128,0.026352,1.007232,-0.560000,-0.420000,-0.420000
7.268316,-0.014152,0.026352,1.009184,-0.700000,-0.420000,-0.420000
7.272382,-0.015128,0.025864,1.007720,-0.700000,-0.420000,-0.420000
7.276449,-0.015128,0.026352,1.008696,-0.560000,-0.420000,-0.280000
7.280515,-0.014152,0.026840,1.010648,-0.560000,-0.420000,-0.280000
7.284581,-0.014640,0.026840,1.008696,-0.560000,-0.420000,-0.420000
7.288647,-0.015128,0.026840,1.008208,-0.700000,-0.420000,-0.420000
7.292714,-0.014152,0.027328,1.007720,-0.560000,-0.420000,-0.420000
7.296780,-0.013664,0.026840,1.006256,-0.700000,-0.420000,-0.420000
7.300846,-0.015128,0.026840,1.008208,-0.560000,-0.420000,-0.420000
7.304912,-0.014640,0.026352,1.006256,-0.560000,-0.420000,-0.420000
7.308979,-0.013664,0.026352,1.007232,-0.560000,-0.420000,-0.280000
7.313045,-0.014640,0.026352,1.008696,-0.560000,-0.420000,-0.420000
7.317111,-0.014640,0.026840,1.007720,-0.560000,-0.420000,-0.420000
7.321177,-0.015128,0.027328,1.007720,-0.700000,-0.560000,-0.420000
7.325244,-0.015128,0.026840,1.007720,-0.700000,-0.560000,-0.280000
7.329310,-0.015616,0.025864,1.007232,-0.700000,-0.420000,-0.420000
7.333376,-0.014152,0.026352,1.007232,-0.560000,-0.420000,-0.420000
7.337442,-0.013176,0.025864,1.006256,-0.700000,-0.280000,-0.280000
7.341509,-0.014152,0.026352,1.008208,-0.560000,-0.420000,-0.420000
7.345575,-0.013664,0.027328,1.008696,-0.700000,-0.420000,-0.420000
7.349641,-0.013664,0.025864,1.008208,-0.700000,-0.420000,-0.420000
7.353707,-0.015128,0.026840,1.008208,-0.560000,-0.420000,-0.280000
7.357774,-0.014152,0.027328,1.006744,-0.560000,-0.420000,-0.420000
7.361840,-0.014640,0.026352,1.008696,-0.560000,-0.420000,-0.420000
7.365906,-0.013664,0.025376,1.008208,-0.560000,-0.420000,-0.420000
7.369972,-0.014640,0.026840,1.006744,-0.560000,-0.280000,-0.420000
7.374039,-0.015616,0.025864,1.008696,-0.560000,-0.420000,-0.420000
7.378105,-0.014152,0.026840,1.007720,-0.560000,-0.420000,-0.280000
7.382171,-0.014152,0.026352,1.007720,-0.700000,-0.560000,-0.420000
7.386237,-0.014640,0.025864,1.008208,-0.700000,-0.560000,-0.420000
7.390304,-0.014152,0.027328,1.008696,-0.560000,-0.420000,-0.420000
7.394370,-0.014640,0.025864,1.008208,-0.560000,-0.420000,-0.420000
7.398436,-0.015128,0.026352,1.008696,-0.560000,-0.420000,-0.280000
7.402502,-0.013664,0.026352,1.006744,-0.560000,-0.420000,-0.420000
7.406569,-0.014640,0.027328,1.007232,-0.560000,-0.420000,-0.420000
7.410635,-0.015128,0.026352,1.007232,-0.560000,-0.280000,-0.420000
7.414701,-0.014640,0.027328,1.008696,-0.560000,-0.420000,-0.280000
7.418767,-0.015616,0.025864,1.007720,-0.560000,-0.420000,-0.420000
7.422834,-0.015128,0.026352,1.007232,-0.420000,-0.560000,-0.420000
7.426900,-0.014152,0.026352,1.008208,-0.560000,-0.420000,-0.420000
7.430966,-0.013664,0.026840,1.008696,-0.560000,-0.420000,-0.420000
7.435032,-0.014152,0.026352,1.008208,-0.700000,-0.420000,-0.420000
7.439099,-0.014640,0.026352,1.007232,-0.560000,-0.420000,-0.420000
7.443165,-0.014640,0.026840,1.006744,-0.420000,-0.420000,-0.420000
7.447231,-0.013176,0.026352,1.009672,-0.560000,-0.420000,-0.420000
7.451297,-0.014152,0.026840,1.008208,-0.560000,-0.420000,-0.420000
7.455364,-0.014640,0.026352,1.007232,-0.560000,-0.560000,-0.420000
7.459430,-0.014152,0.026352,1.007232,-0.560000,-0.420000,-0.420000
7.463496,-0.014152,0.026840,1.008208,-0.560000,-0.420000,-0.420000
7.467562,-0.015128,0.026840,1.007720,-0.560000,-0.420000,-0.420000
7.471629,-0.013664,0.026840,1.007232,-0.560000,-0.420000,-0.420000
7.475695,-0.014152,0.026840,1.008208,-0.560000,-0.420000,-0.420000
7.479761,-0.013664,0.026840,1.007232,-0.560000,-0.420000,-0.420000
7.483827,-0.014640,0.026352,1.009184,-0.560000,-0.420000,-0.280000
7.487894,-0.015128,0.027328,1.008696,-0.560000,-0.420000,-0.420000
7.491960,-0.014640,0.026352,1.007232,-0.560000,-0.560000,-0.420000
7.496026,-0.014640,0.025864,1.008696,-0.560000,-0.420000,-0.420000
7.500092,-0.015128,0.027328,1.009672,-0.560000,-0.560000,-0.420000
7.504159,-0.015128,0.027328,1.007720,-0.560000,-0.420000,-0.420000
7.508225,-0.014640,0.026352,1.007232,-0.560000,-0.420000,-0.420000
7.512291,-0.014640,0.026352,1.007720,-0.560000,-0.420000,-0.420000
7.516357,-0.014640,0.026840,1.007232,-0.560000,-0.420000,-0.420000
7.520424,-0.015128,0.026352,1.008208,-0.420000,-0.280000,-0.420000
7.524490,-0.014640,0.027816,1.008208,-0.700000,-0.560000,-0.420000
7.528556,-0.015128,0.026840,1.006256,-0.560000,-0.420000,-0.420000
7.532622,-0.014152,0.025864,1.008696,-0.560000,-0.420000,-0.420000
7.536689,-0.015128,0.026840,1.007232,-0.700000,-0.420000,-0.420000
7.540755,-0.014152,0.027816,1.008696,-0.700000,-0.280000,-0.420000
7.544821,-0.015128,0.027328,1.007720,-0.560000,-0.420000,-0.420000
7.548887,-0.015128,0.026352,1.008696,-0.560000,-0.420000,-0.420000
7.552954,-0.015128,0.025864,1.008696,-0.560000,-0.420000,-0.420000
7.557020,-0.015128,0.026352,1.008696,-0.560000,-0.420000,-0.420000
7.561086,-0.015128,0.025376,1.007720,-0.560000,-0.280000,-0.420000
7.565152,-0.013664,0.025864,1.008208,-0.560000,-0.420000,-0.280000
7.569219,-0.014640,0.026840,1.008208,-0.560000,-0.420000,-0.420000
7.573285,-0.015128,0.026840,1.006744,-0.560000,-0.420000,-0.420000
7.577351,-0.015128,0.027328,1.008696,-0.560000,-0.420000,-0.420000
7.581417,-0.014640,0.026352,1.008696,-0.560000,-0.420000,-0.420000
7.585484,-0.014640,0.026840,1.007720,-0.560000,-0.420000,-0.280000
7.589550,-0.014640,0.026352,1.008208,-0.560000,-0.420000,-0.420000
7.593616,-0.014640,0.025376,1.008208,-0.560000,-0.420000,-0.420000
7.597682,-0.014152,0.026840,1.009672,-0.560000,-0.560000,-0.280000
7.601749,-0.013664,0.026352,1.008696,-0.560000,-0.560000,-0.420000
7.605815,-0.014640,0.027328,1.007720,-0.560000,-0.420000,-0.280000
7.609881,-0.014152,0.026352,1.008696,-0.560000,-0.420000,-0.280000
7.613947,-0.014640,0.026352,1.007720,-0.560000,-0.560000,-0.420000
7.618014,-0.014640,0.025864,1.007232,-0.560000,-0.420000,-0.420000
7.622080,-0.014640,0.026840,1.006744,-0.560000,-0.420000,-0.420000
7.626146,-0.014152,0.025864,1.008208,-0.560000,-0.420000,-0.420000
7.630213,-0.014640,0.027328,1.007720,-0.560000,-0.280000,-0.280000
7.634279,-0.014152,0.027816,1.007720,-0.560000,-0.280000,-0.420000
7.638345,-0.015128,0.026352,1.006256,-0.560000,-0.420000,-0.280000
7.642411,-0.014152,0.027328,1.008208,-0.560000,-0.420000,-0.420000
7.646478,-0.015128,0.026352,1.007232,-0.560000,-0.420000,-0.420000
7.650544,-0.014152,0.027328,1.008696,-0.560000,-0.420000,-0.420000
7.654610,-0.014152,0.026840,1.007720,-0.560000,-0.420000,-0.280000
7.658676,-0.014152,0.027328,1.009184,-0.560000,-0.420000,-0.420000
7.662743,-0.014640,0.026352,1.008208,-0.560000,-0.280000,-0.420000
7.666809,-0.013176,0.026840,1.008696,-0.560000,-0.420000,-0.420000
7.670875,-0.014640,0.025376,1.007232,-0.560000,-0.420000,-0.420000
7.674941,-0.015128,0.025376,1.008208,-0.560000,-0.420000,-0.420000
7.679008,-0.014152,0.026840,1.007232,-0.560000,-0.420000,-0.420000
7.683074,-0.013176,0.026840,1.007720,-0.560000,-0.420000,-0.420000
7.687140,-0.015128,0.026840,1.007232,-0.560000,-0.420000,-0.420000
7.691206,-0.014152,0.025864,1.009184,-0.560000,-0.420000,-0.560000
7.695273,-0.014152,0.026840,1.008696,-0.420000,-0.420000,-0.420000
7.699339,-0.013664,0.026352,1.008208,-0.560000,-0.280000,-0.420000
7.703405,-0.014152,0.026840,1.006744,-0.560000,-0.560000,-0.420000
7.707471,-0.013664,0.025864,1.006744,-0.700000,-0.420000,-0.420000
7.711538,-0.015616,0.026840,1.008208,-0.560000,-0.560000,-0.420000
7.715604,-0.013664,0.026840,1.007720,-0.560000,-0.420000,-0.420000
7.719670,-0.014640,0.026352,1.008696,-0.560000,-0.420000,-0.420000
7.723736,-0.014640,0.025864,1.008208,-0.700000,-0.420000,-0.420000
7.727803,-0.015616,0.026840,1.008696,-0.560000,-0.420000,-0.420000
7.731869,-0.014640,0.025864,1.009184,-0.560000,-0.420000,-0.280000
7.735935,-0.014152,0.026840,1.009672,-0.420000,-0.420000,-0.420000
7.740001,-0.014640,0.026352,1.008208,-0.700000,-0.420000,-0.420000
7.744068,-0.014640,0.026352,1.009184,-0.700000,-0.420000,-0.420000
7.748134,-0.014152,0.026352,1.006744,-0.700000,-0.420000,-0.420000
7.752200,-0.015128,0.025376,1.008208,-0.700000,-0.560000,-0.420000
7.756266,-0.015128,0.026840,1.008696,-0.560000,-0.420000,-0.280000
7.760333,-0.015616,0.027816,1.009184,-0.700000,-0.420000,-0.420000
7.764399,-0.013664,0.026840,1.008696,-0.560000,-0.420000,-0.420000
7.768465,-0.015128,0.026840,1.007232,-0.700000,-0.280000,-0.420000
7.772531,-0.014640,0.026840,1.007720,-0.560000,-0.420000,-0.280000
7.776598,-0.014152,0.027328,1.006744,-0.700000,-0.420000,-0.420000
7.780664,-0.013664,0.026840,1.006744,-0.560000,-0.280000,-0.420000
7.784730,-0.015128,0.026352,1.008208,-0.560000,-0.420000,-0.420000
7.788796,-0.014640,0.026840,1.008696,-0.700000,-0.420000,-0.420000
7.792863,-0.014640,0.026840,1.006744,-0.700000,-0.420000,-0.420000
7.796929,-0.013664,0.026352,1.007720,-0.560000,-0.560000,-0.420000
7.800995,-0.014640,0.025864,1.006256,-0.560000,-0.560000,-0.420000
7.805061,-0.015128,0.025864,1.008208,-0.560000,-0.420000,-0.420000
7.809128,-0.014152,0.027816,1.006744,-0.700000,-0.420000,-0.420000
7.813194,-0.014640,0.027328,1.007232,-0.560000,-0.560000,-0.420000
7.817260,-0.015616,0.026840,1.008696,-0.700000,-0.420000,-0.280000
7.821326,-0.013664,0.026352,1.008208,-0.420000,-0.420000,-0.420000
7.825393,-0.014152,0.026840,1.008208,-0.700000,-0.420000,-0.420000
7.829459,-0.014640,0.027328,1.005768,-0.560000,-0.420000,-0.420000
7.833525,-0.015128,0.027816,1.007232,-0.560000,-0.420000,-0.420000
7.837591,-0.015616,0.025864,1.008208,-0.560000,-0.420000,-0.420000
7.841658,-0.014640,0.026352,1.005768,-0.560000,-0.420000,-0.420000
7.845724,-0.015128,0.026840,1.007720,-0.700000,-0.420000,-0.280000
7.849790,-0.016104,0.026352,1.007720,-0.560000,-0.560000,-0.420000
7.853856,-0.014152,0.026352,1.008696,-0.560000,-0.420000,-0.420000
7.857923,-0.014640,0.026840,1.007720,-0.560000,-0.420000,-0.420000
7.861989,-0.015128,0.026352,1.008208,-0.560000,-0.420000,-0.420000
7.866055,-0.013664,0.026352,1.006744,-0.560000,-0.420000,-0.280000
7.870121,-0.013664,0.025864,1.008208,-0.700000,-0.420000,-0.420000
7.874188,-0.013664,0.027816,1.007232,-0.700000,-0.420000,-0.420000
7.878254,-0.014152,0.026352,1.007720,-0.420000,-0.420000,-0.420000
7.882320,-0.014640,0.026352,1.008696,-0.420000,-0.420000,-0.420000
7.886386,-0.015128,0.026352,1.007720,-0.560000,-0.420000,-0.280000
7.890453,-0.014640,0.026840,1.008208,-0.700000,-0.420000,-0.420000
7.894519,-0.014152,0.027328,1.007232,-0.560000,-0.420000,-0.280000
7.898585,-0.014640,0.026352,1.008696,-0.700000,-0.420000,-0.280000
7.902651,-0.015128,0.026352,1.007720,-0.560000,-0.420000,-0.420000
7.906718,-0.014152,0.026840,1.007232,-0.560000,-0.280000,-0.420000
7.910784,-0.014152,0.026840,1.006744,-0.560000,-0.420000,-0.420000
7.914850,-0.013664,0.026840,1.008696,-0.560000,-0.420000,-0.420000
7.918916,-0.014152,0.026352,1.007720,-0.700000,-0.420000,-0.420000
7.922983,-0.015128,0.025864,1.007232,-0.560000,-0.420000,-0.280000
7.927049,-0.014152,0.026352,1.006256,-0.560000,-0.420000,-0.420000
7.931115,-0.014152,0.026352,1.009184,-0.700000,-0.420000,-0.420000
7.935181,-0.015128,0.026352,1.007232,-0.560000,-0.420000,-0.420000
7.939248,-0.014152,0.027816,1.009184,-0.700000,-0.420000,-0.420000
7.943314,-0.013664,0.025864,1.007720,-0.560000,-0.560000,-0.420000
7.947380,-0.014152,0.026840,1.007720,-0.700000,-0.420000,-0.420000
7.951446,-0.015128,0.026352,1.006744,-0.700000,-0.420000,-0.420000
7.955513,-0.014640,0.025376,1.006744,-0.560000,-0.420000,-0.420000
