Time [s],lsm6dsv16x_acc_x [g],lsm6dsv16x_acc_y [g],lsm6dsv16x_acc_z [g],lsm6dsv16x_gyro_x [dps],lsm6dsv16x_gyro_y [dps],lsm6dsv16x_gyro_z [dps]
40.375753,-0.008296,0.027328,1.006744,-0.420000,-0.560000,-0.280000
40.379819,-0.008784,0.028304,1.006256,-0.700000,-0.420000,-0.280000
40.383885,-0.008296,0.028792,1.007232,-0.560000,-0.560000,-0.420000
40.387951,-0.009272,0.026840,1.007232,-0.700000,-0.420000,-0.420000
40.392018,-0.008784,0.027328,1.007232,-0.560000,-0.420000,-0.420000
40.396084,-0.007320,0.027328,1.006256,-0.560000,-0.420000,-0.420000
40.400150,-0.007808,0.027816,1.007720,-0.560000,-0.420000,-0.420000
40.404216,-0.007808,0.026840,1.005768,-0.560000,-0.420000,-0.420000
40.408283,-0.009272,0.029280,1.008208,-0.560000,-0.420000,-0.420000
40.412349,-0.008784,0.028304,1.006744,-0.560000,-0.420000,-0.420000
40.416415,-0.008784,0.026840,1.005768,-0.560000,-0.420000,-0.420000
40.420481,-0.007320,0.027328,1.007232,-0.700000,-0.420000,-0.420000
40.424548,-0.008784,0.027328,1.005768,-0.560000,-0.420000,-0.420000
40.428614,-0.008784,0.026352,1.007720,-0.560000,-0.420000,-0.420000
40.432680,-0.007808,0.027816,1.007232,-0.560000,-0.420000,-0.420000
40.436746,-0.008784,0.027328,1.006744,-0.560000,-0.280000,-0.420000
40.440813,-0.009272,0.027328,1.007232,-0.420000,-0.420000,-0.420000
40.444879,-0.009760,0.026352,1.005768,-0.560000,-0.420000,-0.420000
40.448945,-0.008784,0.027328,1.008208,-0.560000,-0.420000,-0.420000
40.453011,-0.007808,0.028304,1.007232,-0.560000,-0.420000,-0.420000
40.457078,-0.008784,0.027816,1.007232,-0.560000,-0.420000,-0.420000
40.461144,-0.008296,0.027328,1.005768,-0.700000,-0.420000,-0.420000
40.465210,-0.009272,0.028304,1.006744,-0.560000,-0.420000,-0.280000
40.469277,-0.008296,0.026840,1.007232,-0.560000,-0.560000,-0.420000
40.473343,-0.007320,0.027816,1.006744,-0.700000,-0.420000,-0.420000
40.477409,-0.008296,0.027816,1.006744,-0.560000,-0.420000,-0.420000
40.481475,-0.008296,0.027328,1.005280,-0.560000,-0.420000,-0.280000
40.485542,-0.008296,0.026840,1.006744,-0.700000,-0.420000,-0.420000
40.489608,-0.009272,0.027328,1.004792,-0.560000,-0.420000,-0.420000
40.493674,-0.009272,0.027816,1.005768,-0.700000,-0.420000,-0.420000
40.497740,-0.007808,0.027816,1.006256,-0.560000,-0.420000,-0.420000
40.501807,-0.008296,0.028792,1.007232,-0.560000,-0.420000,-0.420000
40.505873,-0.009272,0.028792,1.006256,-0.560000,-0.420000,-0.280000
40.509939,-0.008296,0.028304,1.006256,-0.560000,-0.280000,-0.420000
40.514005,-0.009272,0.027328,1.004792,-0.560000,-0.420000,-0.420000
40.518072,-0.008784,0.027328,1.006256,-0.560000,-0.420000,-0.420000
40.522138,-0.008296,0.028304,1.005280,-0.560000,-0.560000,-0.420000
40.526204,-0.008296,0.028304,1.007232,-0.700000,-0.420000,-0.420000
40.530270,-0.007808,0.026840,1.005768,-0.560000,-0.420000,-0.420000
40.534337,-0.008296,0.027816,1.006256,-0.560000,-0.420000,-0.420000
40.538403,-0.007808,0.027328,1.006744,-0.560000,-0.420000,-0.420000
40.542469,-0.008784,0.028304,1.004792,-0.560000,-0.420000,-0.420000
40.546535,-0.008784,0.027816,1.005768,-0.560000,-0.420000,-0.420000
40.550602,-0.007808,0.027816,1.005768,-0.560000,-0.420000,-0.280000
40.554668,-0.008784,0.027816,1.007232,-0.560000,-0.420000,-0.420000
40.558734,-0.007808,0.027328,1.006744,-0.560000,-0.420000,-0.420000
40.562800,-0.008296,0.027816,1.005768,-0.560000,-0.280000,-0.420000
40.566867,-0.007808,0.028304,1.006744,-0.560000,-0.420000,-0.280000
40.570933,-0.007808,0.027328,1.007232,-0.560000,-0.420000,-0.280000
40.574999,-0.007808,0.027816,1.006744,-0.700000,-0.420000,-0.420000
40.579065,-0.009272,0.027328,1.006744,-0.700000,-0.420000,-0.420000
40.583132,-0.007808,0.027816,1.006744,-0.560000,-0.420000,-0.280000
40.587198,-0.008296,0.026840,1.005280,-0.700000,-0.420000,-0.420000
40.591264,-0.008296,0.027816,1.006744,-0.560000,-0.420000,-0.420000
40.595330,-0.008784,0.027328,1.006256,-0.560000,-0.280000,-0.420000
40.599397,-0.008784,0.028304,1.006256,-0.700000,-0.420000,-0.420000
40.603463,-0.008296,0.027816,1.008208,-0.560000,-0.420000,-0.420000
40.607529,-0.008296,0.027328,1.007720,-0.700000,-0.420000,-0.420000
40.611595,-0.009760,0.027328,1.007232,-0.560000,-0.420000,-0.420000
40.615662,-0.009272,0.026840,1.006744,-0.700000,-0.420000,-0.420000
40.619728,-0.009272,0.028792,1.006256,-0.560000,-0.560000,-0.420000
40.623794,-0.007808,0.027328,1.006744,-0.560000,-0.420000,-0.420000
40.627860,-0.008296,0.027816,1.007232,-0.560000,-0.420000,-0.420000
40.631927,-0.008784,0.027328,1.007720,-0.560000,-0.280000,-0.420000
40.635993,-0.008784,0.027816,1.008208,-0.560000,-0.420000,-0.280000
40.640059,-0.008296,0.028304,1.006744,-0.420000,-0.420000,-0.420000
40.644125,-0.008296,0.027816,1.008208,-0.700000,-0.420000,-0.280000
40.648192,-0.008296,0.028304,1.007232,-0.560000,-0.420000,-0.280000
40.652258,-0.009272,0.027816,1.007720,-0.560000,-0.420000,-0.420000
40.656324,-0.007808,0.026840,1.006256,-0.700000,-0.420000,-0.420000
40.660390,-0.008296,0.028304,1.007232,-0.700000,-0.560000,-0.280000
40.664457,-0.008784,0.027328,1.005768,-0.560000,-0.420000,-0.420000
40.668523,-0.007808,0.028304,1.005280,-0.560000,-0.420000,-0.420000
40.672589,-0.008784,0.026840,1.006744,-0.560000,-0.420000,-0.420000
40.676655,-0.008784,0.027328,1.005768,-0.700000,-0.420000,-0.280000
40.680722,-0.008296,0.028304,1.005768,-0.560000,-0.420000,-0.420000
40.684788,-0.008296,0.028304,1.006256,-0.560000,-0.280000,-0.420000
40.688854,-0.008784,0.026840,1.006256,-0.700000,-0.420000,-0.420000
40.692920,-0.007808,0.027328,1.004304,-0.560000,-0.420000,-0.420000
40.696987,-0.007808,0.026840,1.006256,-0.560000,-0.420000,-0.420000
40.701053,-0.007320,0.027328,1.006256,-0.560000,-0.420000,-0.420000
40.705119,-0.008296,0.027816,1.006256,-0.700000,-0.420000,-0.420000
40.709186,-0.007808,0.028792,1.007232,-0.560000,-0.420000,-0.420000
40.713252,-0.008296,0.027816,1.007720,-0.560000,-0.280000,-0.280000
40.717318,-0.009272,0.027816,1.006256,-0.560000,-0.420000,-0.420000
40.721384,-0.009272,0.027328,1.005280,-0.420000,-0.420000,-0.280000
40.725451,-0.009760,0.027816,1.006256,-0.560000,-0.420000,-0.420000
40.729517,-0.009760,0.027816,1.005768,-0.560000,-0.420000,-0.280000
40.733583,-0.008784,0.027816,1.006256,-0.700000,-0.420000,-0.420000
40.737649,-0.008784,0.028304,1.006744,-0.560000,-0.280000,-0.420000
40.741716,-0.008784,0.027328,1.006744,-0.560000,-0.420000,-0.420000
40.745782,-0.009272,0.026840,1.007232,-0.560000,-0.420000,-0.420000
40.749848,-0.008784,0.027328,1.004792,-0.560000,-0.420000,-0.420000
40.753914,-0.008784,0.027328,1.006744,-0.560000,-0.560000,-0.420000
40.757981,-0.008784,0.027328,1.007720,-0.560000,-0.420000,-0.420000
40.762047,-0.008784,0.027816,1.006256,-0.700000,-0.420000,-0.280000
40.766113,-0.007808,0.027328,1.006744,-0.700000,-0.420000,-0.420000
40.770179,-0.008296,0.027816,1.006744,-0.560000,-0.420000,-0.420000
40.774246,-0.008296,0.027328,1.007232,-0.560000,-0.420000,-0.420000
40.778312,-0.008784,0.027816,1.006256,-0.700000,-0.420000,-0.280000
40.782378,-0.008296,0.027328,1.007232,-0.700000,-0.420000,-0.280000
40.786444,-0.008296,0.027328,1.006744,-0.560000,-0.420000,-0.420000
40.790511,-0.008296,0.027816,1.006744,-0.560000,-0.420000,-0.420000
40.794577,-0.008784,0.027328,1.006744,-0.560000,-0.560000,-0.420000
40.798643,-0.008784,0.027328,1.005768,-0.700000,-0.420000,-0.420000
40.802709,-0.009272,0.028792,1.006744,-0.560000,-0.420000,-0.420000
40.806776,-0.008296,0.026840,1.006256,-0.560000,-0.420000,-0.280000
40.810842,-0.009272,0.027328,1.006744,-0.560000,-0.420000,-0.420000
40.814908,-0.008296,0.027816,1.006256,-0.560000,-0.420000,-0.420000
40.818974,-0.008296,0.026840,1.006256,-0.560000,-0.420000,-0.420000
40.823041,-0.008784,0.027328,1.007720,-0.700000,-0.420000,-0.420000
40.827107,-0.007808,0.028304,1.008208,-0.700000,-0.560000,-0.280000
40.831173,-0.009272,0.028792,1.006744,-0.560000,-0.280000,-0.420000
40.835239,-0.009272,0.027816,1.006744,-0.560000,-0.420000,-0.420000
40.839306,-0.007808,0.027816,1.007232,-0.560000,-0.560000,-0.420000
40.843372,-0.007808,0.027816,1.008696,-0.560000,-0.420000,-0.420000
40.847438,-0.007808,0.026840,1.007232,-0.560000,-0.420000,-0.420000
40.851504,-0.007808,0.027328,1.006744,-0.700000,-0.420000,-0.420000
40.855571,-0.007808,0.027328,1.007720,-0.700000,-0.420000,-0.420000
40.859637,-0.008784,0.027816,1.006744,-0.700000,-0.420000,-0.280000
40.863703,-0.008784,0.027328,1.005768,-0.560000,-0.420000,-0.420000
40.867769,-0.009272,0.028304,1.006744,-0.560000,-0.420000,-0.280000
40.871836,-0.008784,0.027328,1.005768,-0.560000,-0.420000,-0.420000
40.875902,-0.008296,0.028792,1.006744,-0.560000,-0.420000,-0.420000
40.879968,-0.008296,0.027816,1.006744,-0.560000,-0.420000,-0.420000
40.884034,-0.007808,0.026352,1.006744,-0.560000,-0.420000,-0.420000
40.888101,-0.008296,0.027816,1.005768,-0.560000,-0.420000,-0.420000
40.892167,-0.008784,0.028304,1.006256,-0.560000,-0.420000,-0.420000
40.896233,-0.008296,0.027816,1.006744,-0.560000,-0.560000,-0.420000
40.900299,-0.007320,0.028304,1.008208,-0.560000,-0.420000,-0.420000
40.904366,-0.008296,0.028304,1.007232,-0.560000,-0.560000,-0.420000
40.908432,-0.008784,0.027816,1.007232,-0.560000,-0.560000,-0.420000
40.912498,-0.008296,0.027816,1.006744,-0.700000,-0.420000,-0.420000
40.916564,-0.008784,0.028304,1.006744,-0.560000,-0.420000,-0.420000
40.920631,-0.008296,0.028304,1.006744,-0.560000,-0.560000,-0.420000
40.924697,-0.008296,0.027816,1.006744,-0.560000,-0.420000,-0.420000
40.928763,-0.007808,0.027816,1.005768,-0.560000,-0.420000,-0.280000
40.932830,-0.008296,0.027328,1.005768,-0.560000,-0.420000,-0.420000
40.936896,-0.008784,0.027816,1.006744,-0.560000,-0.420000,-0.420000
40.940962,-0.008784,0.028304,1.005768,-0.560000,-0.420000,-0.420000
40.945028,-0.008784,0.027816,1.007232,-0.560000,-0.420000,-0.420000
40.949095,-0.008296,0.027816,1.006744,-0.560000,-0.420000,-0.420000
40.953161,-0.008784,0.027816,1.005768,-0.560000,-0.420000,-0.420000
40.957227,-0.009760,0.027816,1.006256,-0.560000,-0.420000,-0.420000
40.961293,-0.007808,0.027816,1.006744,-0.560000,-0.420000,-0.280000
40.965360,-0.008296,0.028304,1.006744,-0.560000,-0.560000,-0.420000
40.969426,-0.008784,0.027328,1.005280,-0.560000,-0.420000,-0.420000
40.973492,-0.007808,0.028304,1.005280,-0.560000,-0.420000,-0.420000
40.977558,-0.008784,0.027816,1.006256,-0.560000,-0.420000,-0.420000
40.981625,-0.008296,0.026840,1.005768,-0.560000,-0.420000,-0.420000
40.985691,-0.008784,0.026840,1.007720,-0.700000,-0.420000,-0.420000
40.989757,-0.007320,0.026840,1.007232,-0.700000,-0.420000,-0.420000
40.993823,-0.006832,0.027816,1.006744,-0.560000,-0.420000,-0.420000
40.997890,-0.008784,0.027816,1.006744,-0.560000,-0.420000,-0.420000
41.001956,-0.007808,0.027816,1.007232,-0.560000,-0.280000,-0.420000
41.006022,-0.008296,0.027816,1.007720,-0.420000,-0.420000,-0.420000
41.010088,-0.008784,0.027816,1.005768,-0.700000,-0.420000,-0.420000
41.014155,-0.009272,0.026840,1.007232,-0.560000,-0.420000,-0.420000
41.018221,-0.007808,0.028304,1.007232,-0.560000,-0.420000,-0.420000
41.022287,-0.008296,0.028304,1.006744,-0.700000,-0.420000,-0.280000
41.026353,-0.008784,0.028304,1.007720,-0.700000,-0.420000,-0.420000
41.030420,-0.008784,0.028304,1.006744,-0.560000,-0.280000,-0.420000
41.034486,-0.008296,0.027328,1.005768,-0.560000,-0.420000,-0.280000
41.038552,-0.009272,0.026840,1.005280,-0.560000,-0.420000,-0.420000
41.042618,-0.008296,0.028304,1.007720,-0.700000,-0.420000,-0.420000
41.046685,-0.009760,0.027816,1.007232,-0.560000,-0.420000,-0.420000
41.050751,-0.009272,0.027328,1.006744,-0.560000,-0.420000,-0.420000
41.054817,-0.007808,0.026840,1.007720,-0.700000,-0.420000,-0.280000
41.058883,-0.008784,0.026840,1.005768,-0.560000,-0.420000,-0.280000
41.062950,-0.008296,0.027328,1.006744,-0.560000,-0.420000,-0.280000
41.067016,-0.007320,0.027816,1.006256,-0.560000,-0.420000,-0.420000
41.071082,-0.008784,0.028304,1.006256,-0.700000,-0.560000,-0.420000
41.075148,-0.008296,0.027328,1.006256,-0.560000,-0.420000,-0.420000
41.079215,-0.008784,0.026352,1.007720,-0.560000,-0.420000,-0.420000
41.083281,-0.008296,0.027328,1.006744,-0.560000,-0.420000,-0.420000
41.087347,-0.008296,0.026840,1.006744,-0.560000,-0.420000,-0.420000
41.091413,-0.008296,0.027328,1.007232,-0.560000,-0.420000,-0.420000
41.095480,-0.008296,0.028304,1.007232,-0.420000,-0.420000,-0.420000
41.099546,-0.009272,0.027328,1.006744,-0.560000,-0.420000,-0.420000
41.103612,-0.008784,0.026840,1.007720,-0.700000,-0.280000,-0.420000
41.107678,-0.010248,0.027816,1.006256,-0.700000,-0.420000,-0.280000
41.111745,-0.007320,0.026840,1.006744,-0.560000,-0.420000,-0.420000
41.115811,-0.009760,0.028304,1.005768,-0.560000,-0.560000,-0.420000
41.119877,-0.008296,0.027816,1.008208,-0.560000,-0.420000,-0.420000
41.123943,-0.008296,0.027328,1.006744,-0.700000,-0.420000,-0.420000
41.128010,-0.009272,0.027328,1.006256,-0.560000,-0.420000,-0.420000
41.132076,-0.007808,0.027816,1.006744,-0.700000,-0.420000,-0.420000
41.136142,-0.008296,0.025864,1.006256,-0.560000,-0.420000,-0.420000
41.140208,-0.008784,0.027328,1.007232,-0.560000,-0.420000,-0.280000
41.144275,-0.008296,0.027816,1.008208,-0.700000,-0.560000,-0.420000
41.148341,-0.007808,0.028304,1.006744,-0.560000,-0.420000,-0.280000
41.152407,-0.009760,0.028304,1.007232,-0.560000,-0.420000,-0.280000
41.156473,-0.007808,0.026840,1.005280,-0.560000,-0.420000,-0.420000
41.160540,-0.008784,0.027328,1.005768,-0.700000,-0.560000,-0.420000
41.164606,-0.008296,0.027328,1.005768,-0.560000,-0.420000,-0.420000
41.168672,-0.008296,0.026840,1.005768,-0.560000,-0.420000,-0.420000
41.172739,-0.008784,0.026840,1.007232,-0.700000,-0.420000,-0.420000
41.176805,-0.008784,0.027328,1.007232,-0.560000,-0.420000,-0.280000
41.180871,-0.008784,0.028304,1.006256,-0.560000,-0.280000,-0.280000
41.184937,-0.008784,0.028304,1.007232,-0.700000,-0.420000,-0.280000
41.189004,-0.009272,0.027816,1.007232,-0.560000,-0.280000,-0.420000
41.193070,-0.008296,0.027816,1.005768,-0.560000,-0.280000,-0.280000
41.197136,-0.008784,0.027328,1.006744,-0.560000,-0.420000,-0.420000
41.201202,-0.009272,0.026840,1.007232,-0.560000,-0.420000,-0.420000
41.205269,-0.009272,0.027328,1.005768,-0.560000,-0.420000,-0.420000
41.209335,-0.009272,0.026840,1.005768,-0.560000,-0.560000,-0.420000
41.213401,-0.009760,0.026840,1.006256,-0.560000,-0.420000,-0.420000
41.217467,-0.007808,0.028304,1.004792,-0.560000,-0.420000,-0.420000
41.221534,-0.008296,0.028792,1.006256,-0.560000,-0.420000,-0.420000
41.225600,-0.007808,0.026840,1.007232,-0.560000,-0.420000,-0.280000
41.229666,-0.008784,0.026840,1.006256,-0.560000,-0.560000,-0.420000
41.233732,-0.008784,0.027816,1.005280,-0.700000,-0.420000,-0.420000
41.237799,-0.008296,0.027816,1.005768,-0.560000,-0.560000,-0.420000
41.241865,-0.007808,0.026840,1.006744,-0.560000,-0.560000,-0.420000
41.245931,-0.008784,0.027328,1.007232,-0.560000,-0.420000,-0.420000
41.249997,-0.009760,0.027816,1.007232,-0.700000,-0.420000,-0.280000
41.254064,-0.008296,0.026840,1.006256,-0.700000,-0.420000,-0.420000
41.258130,-0.009760,0.027328,1.007232,-0.700000,-0.420000,-0.420000
41.262196,-0.009760,0.027328,1.008208,-0.560000,-0.560000,-0.420000
41.266262,-0.008784,0.026840,1.006256,-0.700000,-0.420000,-0.420000
41.270329,-0.008784,0.027816,1.007720,-0.700000,-0.420000,-0.420000
41.274395,-0.009272,0.028304,1.006256,-0.700000,-0.420000,-0.420000
41.278461,-0.008296,0.027328,1.007720,-0.560000,-0.420000,-0.280000
41.282527,-0.007808,0.027816,1.006256,-0.420000,-0.420000,-0.420000
41.286594,-0.007320,0.026840,1.005768,-0.560000,-0.420000,-0.420000
41.290660,-0.008296,0.027328,1.004792,-0.420000,-0.420000,-0.280000
41.294726,-0.008784,0.028792,1.007232,-0.560000,-0.420000,-0.280000
41.298792,-0.009272,0.028304,1.006744,-0.560000,-0.420000,-0.420000
41.302859,-0.008784,0.027816,1.005768,-0.700000,-0.420000,-0.420000
41.306925,-0.007808,0.028304,1.006744,-0.700000,-0.280000,-0.420000
41.310991,-0.009760,0.028304,1.006744,-0.700000,-0.420000,-0.420000
41.315057,-0.008784,0.026840,1.007232,-0.560000,-0.280000,-0.420000
41.319124,-0.008296,0.027816,1.007720,-0.560000,-0.420000,-0.420000
41.323190,-0.007320,0.027328,1.007232,-0.560000,-0.420000,-0.280000
41.327256,-0.006344,0.027328,1.006256,-0.700000,-0.420000,-0.420000
41.331322,-0.009760,0.027816,1.007232,-0.560000,-0.420000,-0.280000
41.335389,-0.007808,0.027328,1.006744,-0.560000,-0.560000,-0.280000
41.339455,-0.007808,0.027328,1.005768,-0.560000,-0.420000,-0.420000
41.343521,-0.008784,0.028304,1.005280,-0.700000,-0.420000,-0.420000
41.347587,-0.007808,0.028304,1.004792,-0.560000,-0.560000,-0.420000
41.351654,-0.007808,0.027328,1.006744,-0.700000,-0.420000,-0.280000
41.355720,-0.008296,0.026840,1.006744,-0.560000,-0.560000,-0.420000
41.359786,-0.009272,0.028304,1.007720,-0.560000,-0.420000,-0.420000
41.363852,-0.008784,0.027816,1.007232,-0.700000,-0.420000,-0.420000
41.367919,-0.008296,0.028304,1.006744,-0.560000,-0.420000,-0.420000
41.371985,-0.008296,0.026352,1.006256,-0.420000,-0.420000,-0.280000
41.376051,-0.009272,0.027328,1.006744,-0.560000,-0.560000,-0.280000
41.380117,-0.007808,0.028304,1.006744,-0.700000,-0.560000,-0.280000
41.384184,-0.008784,0.028792,1.005280,-0.700000,-0.560000,-0.280000
41.388250,-0.009760,0.027816,1.007232,-0.560000,-0.420000,-0.420000
41.392316,-0.008784,0.027816,1.006256,-0.560000,-0.560000,-0.420000
41.396383,-0.008296,0.027816,1.005768,-0.560000,-0.560000,-0.420000
41.400449,-0.008784,0.027328,1.005768,-0.420000,-0.420000,-0.420000
41.404515,-0.008784,0.027328,1.006744,-0.420000,-0.420000,-0.420000
41.408581,-0.009760,0.028304,1.006256,-0.560000,-0.420000,-0.420000
41.412648,-0.009272,0.026352,1.007232,-0.560000,-0.420000,-0.420000
41.416714,-0.008296,0.027328,1.007232,-0.560000,-0.560000,-0.420000
41.420780,-0.009272,0.027816,1.006744,-0.560000,-0.420000,-0.420000
41.424846,-0.008784,0.027816,1.007720,-0.700000,-0.420000,-0.420000
41.428913,-0.008296,0.026840,1.006744,-0.560000,-0.420000,-0.280000
41.432979,-0.007808,0.027328,1.006256,-0.560000,-0.420000,-0.420000
41.437045,-0.007320,0.028304,1.007232,-0.560000,-0.420000,-0.420000
41.441111,-0.007808,0.026840,1.006256,-0.560000,-0.560000,-0.420000
41.445178,-0.008784,0.028304,1.005768,-0.420000,-0.420000,-0.420000
41.449244,-0.008296,0.028304,1.007232,-0.560000,-0.420000,-0.420000
41.453310,-0.007320,0.027328,1.006744,-0.560000,-0.420000,-0.420000
41.457376,-0.008784,0.027816,1.007720,-0.560000,-0.420000,-0.420000
41.461443,-0.008296,0.027816,1.007232,-0.560000,-0.420000,-0.280000
41.465509,-0.008784,0.027328,1.007720,-0.560000,-0.280000,-0.420000
41.469575,-0.009272,0.028304,1.004792,-0.560000,-0.280000,-0.420000
41.473641,-0.007320,0.028304,1.007720,-0.560000,-0.420000,-0.420000
41.477708,-0.007808,0.027328,1.005768,-0.560000,-0.280000,-0.420000
41.481774,-0.009760,0.027816,1.005768,-0.560000,-0.420000,-0.420000
41.485840,-0.009272,0.027816,1.008208,-0.560000,-0.420000,-0.420000
41.489906,-0.008296,0.027328,1.006744,-0.560000,-0.560000,-0.280000
41.493973,-0.009760,0.027328,1.007232,-0.560000,-0.420000,-0.280000
41.498039,-0.008784,0.028792,1.006256,-0.700000,-0.420000,-0.280000
41.502105,-0.009272,0.027328,1.007232,-0.700000,-0.420000,-0.420000
41.506171,-0.008784,0.027328,1.008208,-0.420000,-0.420000,-0.420000
41.510238,-0.008784,0.027328,1.006256,-0.560000,-0.420000,-0.420000
41.514304,-0.008296,0.027328,1.007720,-0.420000,-0.280000,-0.420000
41.518370,-0.008296,0.027328,1.006744,-0.420000,-0.420000,-0.280000
41.522436,-0.007808,0.027328,1.005768,-0.560000,-0.420000,-0.420000
41.526503,-0.009272,0.027328,1.007232,-0.560000,-0.420000,-0.420000
41.530569,-0.008784,0.027816,1.007720,-0.560000,-0.420000,-0.420000
41.534635,-0.007808,0.026840,1.006744,-0.560000,-0.420000,-0.280000
41.538701,-0.008296,0.028304,1.006744,-0.560000,-0.560000,-0.420000
41.542768,-0.008296,0.027816,1.007720,-0.420000,-0.420000,-0.420000
41.546834,-0.008784,0.026840,1.008208,-0.560000,-0.420000,-0.420000
41.550900,-0.008296,0.026840,1.006256,-0.700000,-0.280000,-0.420000
41.554966,-0.007808,0.027328,1.006256,-0.560000,-0.420000,-0.420000
41.559033,-0.008296,0.027816,1.006744,-0.560000,-0.280000,-0.420000
41.563099,-0.007808,0.027816,1.005280,-0.700000,-0.420000,-0.280000
41.567165,-0.007320,0.027816,1.007232,-0.700000,-0.420000,-0.420000
41.571231,-0.007808,0.025864,1.005768,-0.560000,-0.420000,-0.420000
41.575298,-0.007808,0.027328,1.005768,-0.700000,-0.420000,-0.420000
41.579364,-0.006832,0.027328,1.006744,-0.560000,-0.420000,-0.420000
41.583430,-0.007808,0.028304,1.007232,-0.560000,-0.420000,-0.420000
41.587496,-0.007320,0.028304,1.007232,-0.560000,-0.420000,-0.420000
41.591563,-0.008296,0.026840,1.006744,-0.560000,-0.560000,-0.420000
41.595629,-0.008784,0.027816,1.006744,-0.560000,-0.420000,-0.420000
41.599695,-0.009272,0.027328,1.006256,-0.560000,-0.420000,-0.420000
41.603761,-0.009272,0.027816,1.006744,-0.700000,-0.420000,-0.420000
41.607828,-0.008296,0.028304,1.004304,-0.560000,-0.420000,-0.420000
41.611894,-0.008296,0.027328,1.006256,-0.560000,-0.280000,-0.420000
41.615960,-0.007808,0.026840,1.004304,-0.560000,-0.420000,-0.420000
41.620027,-0.008784,0.027816,1.005280,-0.560000,-0.560000,-0.420000
41.624093,-0.007320,0.027816,1.006744,-0.560000,-0.420000,-0.420000
41.628159,-0.008784,0.027816,1.006256,-0.560000,-0.420000,-0.420000
41.632225,-0.008784,0.027328,1.007232,-0.560000,-0.420000,-0.280000
41.636292,-0.007808,0.027328,1.005768,-0.560000,-0.420000,-0.420000
41.640358,-0.008296,0.028304,1.005280,-0.560000,-0.420000,-0.420000
41.644424,-0.007320,0.027816,1.006744,-0.700000,-0.420000,-0.420000
41.648490,-0.007320,0.027816,1.007232,-0.560000,-0.280000,-0.280000
41.652557,-0.008296,0.027816,1.007720,-0.560000,-0.420000,-0.420000
41.656623,-0.009272,0.028792,1.006744,-0.560000,-0.420000,-0.420000
41.660689,-0.008784,0.027328,1.007232,-0.560000,-0.420000,-0.420000
41.664755,-0.007808,0.028304,1.007232,-0.560000,-0.420000,-0.420000
41.668822,-0.010248,0.027816,1.008208,-0.560000,-0.420000,-0.420000
41.672888,-0.008296,0.027816,1.007720,-0.560000,-0.420000,-0.420000
41.676954,-0.008296,0.027816,1.007232,-0.560000,-0.420000,-0.420000
41.681020,-0.007808,0.028304,1.007232,-0.560000,-0.420000,-0.420000
41.685087,-0.008784,0.028792,1.007232,-0.700000,-0.420000,-0.420000
41.689153,-0.008296,0.027328,1.008696,-0.560000,-0.420000,-0.420000
41.693219,-0.007808,0.027816,1.007720,-0.560000,-0.420000,-0.420000
41.697285,-0.007808,0.028304,1.006744,-0.700000,-0.420000,-0.420000
41.701352,-0.008784,0.027816,1.006744,-0.700000,-0.420000,-0.420000
41.705418,-0.008784,0.027816,1.005768,-0.560000,-0.420000,-0.420000
41.709484,-0.007320,0.027816,1.005280,-0.560000,-0.420000,-0.420000
41.713550,-0.009272,0.027816,1.005280,-0.560000,-0.420000,-0.420000
41.717617,-0.008296,0.027816,1.005768,-0.560000,-0.420000,-0.420000
41.721683,-0.008296,0.027328,1.006256,-0.560000,-0.420000,-0.280000
41.725749,-0.007320,0.027816,1.004304,-0.560000,-0.420000,-0.420000
41.729815,-0.007320,0.027328,1.006256,-0.560000,-0.420000,-0.280000
41.733882,-0.008784,0.027816,1.005768,-0.560000,-0.420000,-0.420000
41.737948,-0.008296,0.028792,1.006744,-0.700000,-0.420000,-0.420000
41.742014,-0.008296,0.027328,1.006744,-0.560000,-0.420000,-0.280000
41.746080,-0.009272,0.027816,1.006744,-0.560000,-0.420000,-0.420000
41.750147,-0.008784,0.027816,1.006744,-0.560000,-0.420000,-0.420000
41.754213,-0.007808,0.026840,1.005280,-0.700000,-0.420000,-0.420000
41.758279,-0.008784,0.028304,1.005768,-0.560000,-0.420000,-0.420000
41.762345,-0.008784,0.026840,1.006744,-0.560000,-0.280000,-0.420000
41.766412,-0.009760,0.027816,1.006744,-0.560000,-0.420000,-0.280000
41.770478,-0.008784,0.027816,1.007232,-0.560000,-0.420000,-0.280000
41.774544,-0.008784,0.027816,1.005768,-0.560000,-0.420000,-0.280000
41.778610,-0.009272,0.028304,1.006744,-0.560000,-0.420000,-0.280000
41.782677,-0.009272,0.028304,1.007720,-0.560000,-0.420000,-0.420000
41.786743,-0.008296,0.027816,1.005768,-0.560000,-0.420000,-0.420000
41.790809,-0.009272,0.027816,1.006744,-0.560000,-0.280000,-0.420000
41.794875,-0.009760,0.027816,1.007232,-0.560000,-0.420000,-0.420000
41.798942,-0.008784,0.028792,1.006256,-0.560000,-0.420000,-0.420000
41.803008,-0.008296,0.026840,1.006744,-0.560000,-0.420000,-0.420000
41.807074,-0.008296,0.027816,1.007232,-0.560000,-0.420000,-0.420000
41.811140,-0.008784,0.027328,1.006744,-0.560000,-0.420000,-0.420000
41.815207,-0.009760,0.027816,1.007232,-0.560000,-0.560000,-0.420000
41.819273,-0.009272,0.027328,1.008208,-0.560000,-0.420000,-0.420000
41.823339,-0.007320,0.027816,1.006744,-0.560000,-0.420000,-0.420000
41.827405,-0.008784,0.027816,1.004792,-0.560000,-0.420000,-0.420000
41.831472,-0.008296,0.027328,1.005280,-0.560000,-0.420000,-0.420000
41.835538,-0.008296,0.027328,1.006256,-0.560000,-0.420000,-0.420000
41.839604,-0.008784,0.027328,1.006256,-0.560000,-0.420000,-0.420000
41.843670,-0.008784,0.028304,1.005280,-0.700000,-0.560000,-0.280000
41.847737,-0.009272,0.027816,1.006256,-0.700000,-0.560000,-0.280000
41.851803,-0.007808,0.027328,1.006256,-0.560000,-0.420000,-0.420000
41.855869,-0.008296,0.027816,1.007720,-0.560000,-0.420000,-0.420000
41.859935,-0.008296,0.027328,1.007720,-0.700000,-0.420000,-0.280000
41.864002,-0.008784,0.027328,1.005280,-0.560000,-0.560000,-0.420000
41.868068,-0.008784,0.027816,1.006256,-0.560000,-0.420000,-0.420000
41.872134,-0.008784,0.026840,1.007232,-0.560000,-0.420000,-0.420000
41.876200,-0.007808,0.027328,1.004792,-0.560000,-0.420000,-0.280000
41.880267,-0.008784,0.027328,1.007232,-0.560000,-0.420000,-0.420000
41.884333,-0.008296,0.027816,1.007720,-0.560000,-0.420000,-0.420000
41.888399,-0.007808,0.028304,1.006256,-0.560000,-0.420000,-0.420000
41.892465,-0.008784,0.027816,1.005768,-0.560000,-0.420000,-0.420000
41.896532,-0.008296,0.026840,1.005280,-0.700000,-0.280000,-0.420000
41.900598,-0.009272,0.028304,1.005768,-0.560000,-0.420000,-0.420000
41.904664,-0.008784,0.028304,1.007720,-0.560000,-0.420000,-0.420000
41.908731,-0.007808,0.027328,1.005768,-0.560000,-0.420000,-0.280000
41.912797,-0.007808,0.028304,1.006744,-0.560000,-0.420000,-0.280000
41.916863,-0.008784,0.027328,1.007232,-0.560000,-0.420000,-0.420000
41.920929,-0.009272,0.027816,1.006744,-0.700000,-0.420000,-0.420000
41.924996,-0.008296,0.027328,1.007720,-0.560000,-0.420000,-0.420000
41.929062,-0.007808,0.027816,1.005768,-0.560000,-0.280000,-0.420000
41.933128,-0.007808,0.028304,1.005768,-0.560000,-0.420000,-0.420000
41.937194,-0.007808,0.028304,1.006744,-0.560000,-0.420000,-0.420000
41.941261,-0.008296,0.028304,1.007232,-0.700000,-0.280000,-0.280000
41.945327,-0.007808,0.027328,1.006256,-0.700000,-0.560000,-0.280000
41.949393,-0.008296,0.027816,1.005280,-0.560000,-0.420000,-0.420000
41.953459,-0.007808,0.028304,1.006744,-0.560000,-0.420000,-0.420000
41.957526,-0.008296,0.028304,1.005768,-0.560000,-0.420000,-0.420000
41.961592,-0.008784,0.027816,1.006256,-0.560000,-0.420000,-0.280000
41.965658,-0.008296,0.027816,1.006256,-0.700000,-0.420000,-0.280000
41.969724,-0.008296,0.028792,1.006256,-0.700000,-0.280000,-0.420000
41.973791,-0.009272,0.027816,1.007232,-0.420000,-0.560000,-0.280000
41.977857,-0.008296,0.027328,1.006744,-0.560000,-0.280000,-0.280000
41.981923,-0.008784,0.027816,1.006256,-0.560000,-0.280000,-0.420000
41.985989,-0.008784,0.027816,1.007720,-0.560000,-0.420000,-0.420000
41.990056,-0.009272,0.026840,1.005768,-0.420000,-0.280000,-0.420000
41.994122,-0.008784,0.027328,1.008208,-0.700000,-0.420000,-0.420000
41.998188,-0.008296,0.028304,1.008208,-0.700000,-0.280000,-0.420000
42.002254,-0.008784,0.028304,1.007232,-0.560000,-0.280000,-0.420000
42.006321,-0.008784,0.027328,1.007232,-0.560000,-0.420000,-0.420000
42.010387,-0.009272,0.026840,1.006256,-0.560000,-0.280000,-0.420000
42.014453,-0.008296,0.026840,1.006256,-0.560000,-0.420000,-0.420000
42.018519,-0.008296,0.027816,1.006744,-0.560000,-0.420000,-0.280000
42.022586,-0.008296,0.027328,1.007232,-0.420000,-0.420000,-0.420000
42.026652,-0.008296,0.027816,1.007232,-0.700000,-0.420000,-0.420000
42.030718,-0.007808,0.027816,1.006256,-0.700000,-0.420000,-0.420000
42.034784,-0.008296,0.026352,1.005768,-0.700000,-0.280000,-0.420000
42.038851,-0.008784,0.027816,1.005768,-0.560000,-0.420000,-0.420000
42.042917,-0.008296,0.027328,1.006744,-0.560000,-0.280000,-0.420000
42.046983,-0.009272,0.027328,1.004792,-0.560000,-0.420000,-0.280000
42.051049,-0.008296,0.027328,1.005768,-0.700000,-0.420000,-0.420000
42.055116,-0.008784,0.027816,1.006256,-0.560000,-0.420000,-0.280000
42.059182,-0.007808,0.027328,1.005768,-0.560000,-0.420000,-0.280000
42.063248,-0.009272,0.027328,1.006744,-0.560000,-0.420000,-0.420000
42.067314,-0.009272,0.027816,1.007232,-0.420000,-0.420000,-0.280000
42.071381,-0.008296,0.027816,1.006256,-0.700000,-0.560000,-0.280000
42.075447,-0.008784,0.026840,1.006744,-0.700000,-0.420000,-0.420000
42.079513,-0.008784,0.027816,1.006256,-0.560000,-0.420000,-0.420000
42.083579,-0.008296,0.027328,1.006256,-0.420000,-0.560000,-0.420000
42.087646,-0.008296,0.027328,1.006256,-0.560000,-0.420000,-0.420000
42.091712,-0.007320,0.028304,1.005768,-0.560000,-0.420000,-0.420000
42.095778,-0.008784,0.027328,1.006744,-0.560000,-0.420000,-0.420000
42.099844,-0.007808,0.027816,1.006256,-0.560000,-0.420000,-0.420000
42.103911,-0.008784,0.028792,1.006744,-0.700000,-0.280000,-0.420000
42.107977,-0.008296,0.027816,1.005768,-0.560000,-0.560000,-0.280000
42.112043,-0.008784,0.027328,1.007232,-0.560000,-0.420000,-0.420000
42.116109,-0.007808,0.028304,1.006744,-0.560000,-0.420000,-0.420000
42.120176,-0.008296,0.027816,1.005768,-0.560000,-0.420000,-0.280000
42.124242,-0.009272,0.027328,1.006256,-0.560000,-0.420000,-0.420000
42.128308,-0.008784,0.027328,1.007720,-0.560000,-0.420000,-0.420000
42.132374,-0.008784,0.028304,1.006256,-0.560000,-0.420000,-0.420000
42.136441,-0.008784,0.028304,1.007232,-0.700000,-0.420000,-0.420000
42.140507,-0.008296,0.027328,1.007232,-0.560000,-0.420000,-0.420000
42.144573,-0.008784,0.028304,1.007232,-0.560000,-0.420000,-0.420000
42.148639,-0.009272,0.028304,1.007232,-0.560000,-0.420000,-0.420000
42.152706,-0.008296,0.026840,1.005768,-0.700000,-0.420000,-0.280000
42.156772,-0.007808,0.027328,1.007232,-0.700000,-0.560000,-0.420000
42.160838,-0.008784,0.028792,1.007720,-0.560000,-0.420000,-0.560000
42.164904,-0.009272,0.027816,1.007232,-0.560000,-0.420000,-0.280000
42.168971,-0.009272,0.027816,1.006256,-0.560000,-0.420000,-0.420000
42.173037,-0.008296,0.027328,1.005768,-0.560000,-0.420000,-0.420000
42.177103,-0.008296,0.027328,1.004304,-0.420000,-0.420000,-0.420000
42.181169,-0.008296,0.027328,1.005768,-0.560000,-0.420000,-0.420000
42.185236,-0.008784,0.027328,1.007232,-0.700000,-0.420000,-0.280000
42.189302,-0.008296,0.027328,1.007232,-0.560000,-0.420000,-0.420000
42.193368,-0.008296,0.027816,1.006744,-0.700000,-0.420000,-0.280000
42.197434,-0.008296,0.027816,1.007232,-0.560000,-0.560000,-0.420000
42.201501,-0.007808,0.027816,1.005768,-0.560000,-0.560000,-0.420000
42.205567,-0.008784,0.027816,1.006256,-0.420000,-0.420000,-0.280000
42.209633,-0.009272,0.027816,1.007232,-0.560000,-0.420000,-0.420000
42.213700,-0.008296,0.027816,1.006744,-0.700000,-0.420000,-0.420000
42.217766,-0.008784,0.026840,1.005768,-0.560000,-0.420000,-0.280000
42.221832,-0.007808,0.027816,1.006256,-0.560000,-0.420000,-0.420000
42.225898,-0.008784,0.028304,1.005280,-0.560000,-0.420000,-0.420000
42.229965,-0.008784,0.027816,1.006256,-0.560000,-0.420000,-0.420000
42.234031,-0.008296,0.027816,1.005768,-0.700000,-0.420000,-0.420000
42.238097,-0.008784,0.027816,1.006256,-0.560000,-0.420000,-0.420000
42.242163,-0.008784,0.026840,1.006744,-0.560000,-0.420000,-0.420000
42.246230,-0.009760,0.027816,1.007232,-0.560000,-0.420000,-0.420000
42.250296,-0.008784,0.027328,1.005280,-0.560000,-0.420000,-0.420000
42.254362,-0.009760,0.027816,1.006256,-0.700000,-0.420000,-0.420000
42.258428,-0.008784,0.027328,1.005280,-0.560000,-0.420000,-0.280000
42.262495,-0.008296,0.027816,1.005768,-0.700000,-0.420000,-0.420000
42.266561,-0.008784,0.027328,1.006744,-0.560000,-0.420000,-0.420000
42.270627,-0.009272,0.027816,1.005768,-0.560000,-0.560000,-0.420000
42.274693,-0.008784,0.027816,1.006744,-0.560000,-0.420000,-0.420000
42.278760,-0.007320,0.026840,1.005280,-0.560000,-0.420000,-0.420000
42.282826,-0.010736,0.026840,1.006256,-0.560000,-0.420000,-0.280000
42.286892,-0.009760,0.027328,1.007232,-0.560000,-0.420000,-0.420000
42.290958,-0.009272,0.027328,1.005768,-0.560000,-0.280000,-0.420000
42.295025,-0.008296,0.027328,1.007232,-0.560000,-0.420000,-0.420000
42.299091,-0.008296,0.028304,1.006744,-0.560000,-0.420000,-0.420000
42.303157,-0.008784,0.028304,1.007720,-0.560000,-0.420000,-0.420000
42.307223,-0.007808,0.027816,1.006256,-0.560000,-0.560000,-0.420000
42.311290,-0.008784,0.028304,1.007232,-0.700000,-0.420000,-0.420000
42.315356,-0.009760,0.028304,1.005768,-0.560000,-0.420000,-0.420000
42.319422,-0.008784,0.028792,1.007232,-0.560000,-0.280000,-0.420000
42.323488,-0.008784,0.027328,1.006256,-0.560000,-0.420000,-0.420000
42.327555,-0.008784,0.027816,1.007720,-0.700000,-0.420000,-0.420000
42.331621,-0.009272,0.028304,1.006256,-0.560000,-0.280000,-0.420000
42.335687,-0.007808,0.028792,1.007720,-0.560000,-0.420000,-0.280000
42.339753,-0.008296,0.027328,1.005768,-0.560000,-0.420000,-0.280000
42.343820,-0.008784,0.028792,1.004792,-0.560000,-0.420000,-0.420000
42.347886,-0.008296,0.027328,1.008208,-0.700000,-0.280000,-0.420000
42.351952,-0.008784,0.027816,1.006744,-0.700000,-0.420000,-0.420000
42.356018,-0.007808,0.028304,1.006256,-0.560000,-0.560000,-0.420000
42.360085,-0.009272,0.027816,1.006256,-0.560000,-0.420000,-0.420000
42.364151,-0.008296,0.027816,1.007232,-0.560000,-0.420000,-0.280000
42.368217,-0.009760,0.028304,1.006744,-0.700000,-0.420000,-0.280000
42.372283,-0.008296,0.026840,1.005768,-0.560000,-0.420000,-0.420000
42.376350,-0.008784,0.027816,1.006744,-0.560000,-0.420000,-0.420000
42.380416,-0.008784,0.027816,1.006256,-0.700000,-0.420000,-0.280000
42.384482,-0.007808,0.028792,1.004304,-0.700000,-0.420000,-0.420000
42.388548,-0.008296,0.028304,1.005280,-0.560000,-0.420000,-0.420000
42.392615,-0.009760,0.027328,1.005768,-0.560000,-0.560000,-0.280000
42.396681,-0.008296,0.027816,1.006256,-0.700000,-0.420000,-0.280000
42.400747,-0.007808,0.028304,1.007720,-0.560000,-0.560000,-0.420000
42.404813,-0.008784,0.028304,1.005768,-0.560000,-0.420000,-0.420000
42.408880,-0.007808,0.027328,1.005280,-0.560000,-0.420000,-0.420000
42.412946,-0.008296,0.026840,1.006744,-0.420000,-0.560000,-0.420000
42.417012,-0.007808,0.028304,1.005768,-0.560000,-0.420000,-0.280000
42.421078,-0.007808,0.026352,1.006744,-0.560000,-0.420000,-0.420000
42.425145,-0.008296,0.028304,1.005768,-0.560000,-0.420000,-0.420000
42.429211,-0.008296,0.026840,1.006256,-0.700000,-0.420000,-0.420000
42.433277,-0.008784,0.027328,1.005768,-0.560000,-0.280000,-0.420000
42.437343,-0.008296,0.027816,1.006256,-0.560000,-0.420000,-0.420000
42.441410,-0.007320,0.027816,1.005280,-0.560000,-0.420000,-0.420000
42.445476,-0.008296,0.027816,1.006256,-0.560000,-0.420000,-0.420000
42.449542,-0.007808,0.027816,1.005768,-0.700000,-0.420000,-0.420000
42.453608,-0.009272,0.027816,1.008208,-0.700000,-0.420000,-0.420000
42.457675,-0.008784,0.027328,1.008208,-0.560000,-0.420000,-0.420000
42.461741,-0.008784,0.027816,1.007720,-0.560000,-0.560000,-0.420000
42.465807,-0.008784,0.027816,1.007720,-0.560000,-0.420000,-0.420000
42.469873,-0.008296,0.027328,1.006744,-0.560000,-0.420000,-0.420000
42.473940,-0.008296,0.028792,1.007720,-0.560000,-0.560000,-0.420000
42.478006,-0.008296,0.026840,1.007232,-0.560000,-0.420000,-0.420000
42.482072,-0.008296,0.027816,1.007232,-0.560000,-0.420000,-0.420000
42.486138,-0.008296,0.026840,1.006256,-0.700000,-0.420000,-0.420000
42.490205,-0.009272,0.027816,1.008208,-0.560000,-0.280000,-0.280000
42.494271,-0.008296,0.026840,1.007720,-0.560000,-0.420000,-0.420000
42.498337,-0.007808,0.028792,1.008208,-0.560000,-0.420000,-0.280000
42.502403,-0.008296,0.027328,1.007232,-0.560000,-0.420000,-0.280000
42.506470,-0.009272,0.027816,1.006744,-0.560000,-0.420000,-0.420000
42.510536,-0.008296,0.026840,1.007720,-0.560000,-0.420000,-0.420000
42.514602,-0.008296,0.027816,1.007720,-0.560000,-0.420000,-0.420000
42.518669,-0.008784,0.028304,1.006744,-0.560000,-0.420000,-0.420000
42.522735,-0.009272,0.028792,1.007720,-0.560000,-0.420000,-0.420000
42.526801,-0.007808,0.027816,1.007720,-0.560000,-0.420000,-0.420000
42.530867,-0.008296,0.028304,1.005768,-0.560000,-0.420000,-0.420000
42.534934,-0.008296,0.027328,1.005280,-0.560000,-0.420000,-0.420000
42.539000,-0.008784,0.027816,1.007232,-0.560000,-0.420000,-0.420000
42.543066,-0.008784,0.028304,1.007232,-0.560000,-0.420000,-0.420000
42.547132,-0.009272,0.027816,1.007232,-0.560000,-0.420000,-0.280000
42.551199,-0.009272,0.027816,1.005768,-0.560000,-0.420000,-0.420000
42.555265,-0.007320,0.027816,1.006744,-0.560000,-0.420000,-0.420000
42.559331,-0.007808,0.027328,1.006744,-0.560000,-0.420000,-0.420000
42.563397,-0.008784,0.027816,1.006744,-0.560000,-0.420000,-0.420000
42.567464,-0.008296,0.027816,1.007232,-0.560000,-0.420000,-0.420000
42.571530,-0.008296,0.028792,1.008208,-0.700000,-0.420000,-0.420000
42.575596,-0.007320,0.027328,1.006744,-0.560000,-0.420000,-0.420000
42.579662,-0.008784,0.028304,1.007232,-0.560000,-0.560000,-0.420000
42.583729,-0.009272,0.027328,1.006744,-0.560000,-0.420000,-0.420000
42.587795,-0.008296,0.027328,1.007720,-0.700000,-0.280000,-0.420000
42.591861,-0.008784,0.026840,1.007720,-0.560000,-0.420000,-0.420000
42.595927,-0.008784,0.028304,1.007232,-0.560000,-0.420000,-0.420000
42.599994,-0.009272,0.027816,1.006744,-0.560000,-0.420000,-0.420000
42.604060,-0.008296,0.026840,1.005768,-0.560000,-0.420000,-0.420000
42.608126,-0.008296,0.026840,1.004792,-0.560000,-0.420000,-0.420000
42.612192,-0.007808,0.027816,1.005768,-0.560000,-0.420000,-0.420000
42.616259,-0.008784,0.027328,1.005768,-0.560000,-0.560000,-0.420000
42.620325,-0.007808,0.028304,1.008208,-0.700000,-0.420000,-0.420000
42.624391,-0.008296,0.028304,1.005768,-0.560000,-0.560000,-0.420000
42.628457,-0.009272,0.027816,1.008208,-0.560000,-0.420000,-0.280000
42.632524,-0.008784,0.028304,1.006744,-0.560000,-0.420000,-0.420000
42.636590,-0.007320,0.027816,1.005768,-0.560000,-0.420000,-0.420000
42.640656,-0.009272,0.027816,1.006256,-0.560000,-0.560000,-0.420000
42.644722,-0.008296,0.028304,1.006744,-0.560000,-0.420000,-0.280000
42.648789,-0.009272,0.028304,1.004304,-0.560000,-0.420000,-0.420000
42.652855,-0.008784,0.028304,1.007232,-0.560000,-0.420000,-0.420000
42.656921,-0.008296,0.027328,1.007232,-0.560000,-0.420000,-0.420000
42.660987,-0.008296,0.028304,1.007232,-0.560000,-0.420000,-0.420000
42.665054,-0.008784,0.026840,1.006256,-0.560000,-0.420000,-0.420000
42.669120,-0.009272,0.027816,1.006744,-0.700000,-0.560000,-0.280000
42.673186,-0.008784,0.027816,1.006256,-0.700000,-0.420000,-0.420000
42.677252,-0.007808,0.027816,1.007720,-0.560000,-0.280000,-0.280000
42.681319,-0.008296,0.027328,1.007232,-0.560000,-0.420000,-0.280000
42.685385,-0.008296,0.027816,1.008208,-0.700000,-0.420000,-0.420000
42.689451,-0.008784,0.028304,1.006256,-0.560000,-0.420000,-0.420000
42.693517,-0.007808,0.028304,1.005768,-0.700000,-0.420000,-0.420000
42.697584,-0.009760,0.027328,1.006744,-0.560000,-0.420000,-0.420000
42.701650,-0.007320,0.027816,1.007720,-0.560000,-0.420000,-0.420000
42.705716,-0.008296,0.028304,1.007232,-0.560000,-0.420000,-0.420000
42.709782,-0.008296,0.026840,1.005280,-0.560000,-0.420000,-0.420000
42.713849,-0.007808,0.026840,1.006256,-0.700000,-0.420000,-0.280000
42.717915,-0.008784,0.027816,1.006744,-0.560000,-0.420000,-0.420000
42.721981,-0.009272,0.027816,1.007720,-0.700000,-0.420000,-0.420000
42.726047,-0.008296,0.027816,1.008208,-0.700000,-0.420000,-0.280000
42.730114,-0.009272,0.028792,1.007232,-0.560000,-0.420000,-0.420000
42.734180,-0.008784,0.028304,1.006744,-0.560000,-0.420000,-0.420000
42.738246,-0.007320,0.027328,1.004304,-0.560000,-0.420000,-0.420000
42.742312,-0.006832,0.027328,1.008208,-0.560000,-0.420000,-0.280000
42.746379,-0.007808,0.028304,1.007232,-0.560000,-0.420000,-0.420000
42.750445,-0.008296,0.027816,1.006256,-0.560000,-0.280000,-0.420000
42.754511,-0.009272,0.028304,1.006744,-0.560000,-0.420000,-0.420000
42.758577,-0.007808,0.027328,1.006744,-0.560000,-0.560000,-0.420000
42.762644,-0.008784,0.027328,1.007232,-0.700000,-0.420000,-0.420000
42.766710,-0.008296,0.027816,1.007232,-0.700000,-0.560000,-0.420000
42.770776,-0.009272,0.027328,1.006256,-0.560000,-0.420000,-0.420000
42.774842,-0.008784,0.027328,1.006744,-0.700000,-0.420000,-0.420000
42.778909,-0.008784,0.028304,1.005768,-0.560000,-0.420000,-0.420000
42.782975,-0.008296,0.028304,1.005280,-0.560000,-0.420000,-0.420000
42.787041,-0.008784,0.027816,1.006256,-0.700000,-0.420000,-0.420000
42.791108,-0.008784,0.028304,1.006256,-0.560000,-0.420000,-0.420000
42.795174,-0.007808,0.026840,1.007232,-0.560000,-0.280000,-0.420000
42.799240,-0.008296,0.027816,1.007720,-0.560000,-0.280000,-0.420000
42.803306,-0.008296,0.028304,1.008696,-0.560000,-0.280000,-0.420000
42.807373,-0.008296,0.027816,1.007720,-0.700000,-0.420000,-0.420000
42.811439,-0.007808,0.028304,1.005768,-0.700000,-0.420000,-0.280000
42.815505,-0.008784,0.028304,1.006744,-0.560000,-0.280000,-0.420000
42.819571,-0.008296,0.027328,1.006744,-0.560000,-0.420000,-0.280000
42.823638,-0.008296,0.027328,1.006256,-0.560000,-0.560000,-0.420000
42.827704,-0.008296,0.026840,1.005768,-0.560000,-0.560000,-0.420000
42.831770,-0.007808,0.027816,1.007232,-0.560000,-0.420000,-0.420000
42.835836,-0.008784,0.027816,1.007232,-0.700000,-0.280000,-0.420000
42.839903,-0.008784,0.027328,1.007232,-0.560000,-0.420000,-0.420000
42.843969,-0.008784,0.028304,1.007232,-0.560000,-0.560000,-0.420000
42.848035,-0.008784,0.027328,1.007720,-0.560000,-0.420000,-0.420000
42.852101,-0.007808,0.028304,1.007720,-0.560000,-0.420000,-0.280000
42.856168,-0.008784,0.028792,1.007720,-0.560000,-0.420000,-0.280000
42.860234,-0.008296,0.027328,1.006744,-0.700000,-0.420000,-0.420000
42.864300,-0.007808,0.027816,1.005768,-0.560000,-0.420000,-0.420000
42.868366,-0.008784,0.028304,1.007232,-0.700000,-0.420000,-0.420000
42.872433,-0.009272,0.027328,1.007232,-0.700000,-0.420000,-0.420000
42.876499,-0.008296,0.028304,1.006744,-0.560000,-0.280000,-0.420000
42.880565,-0.009272,0.028304,1.005768,-0.560000,-0.420000,-0.420000
42.884631,-0.008784,0.028792,1.005280,-0.700000,-0.420000,-0.420000
42.888698,-0.008296,0.026840,1.007232,-0.560000,-0.420000,-0.420000
42.892764,-0.007808,0.028304,1.005768,-0.560000,-0.280000,-0.420000
42.896830,-0.007808,0.027816,1.006256,-0.560000,-0.420000,-0.420000
42.900896,-0.008784,0.028304,1.007232,-0.560000,-0.560000,-0.420000
42.904963,-0.008296,0.028304,1.006744,-0.560000,-0.420000,-0.420000
42.909029,-0.009272,0.028304,1.006744,-0.560000,-0.420000,-0.420000
42.913095,-0.006832,0.027816,1.007720,-0.560000,-0.420000,-0.280000
42.917161,-0.008784,0.027328,1.006744,-0.560000,-0.420000,-0.420000
42.921228,-0.008296,0.028304,1.005768,-0.560000,-0.420000,-0.420000
42.925294,-0.008784,0.027816,1.005768,-0.700000,-0.420000,-0.420000
42.929360,-0.008784,0.027816,1.006744,-0.560000,-0.420000,-0.420000
42.933426,-0.008784,0.027816,1.007232,-0.560000,-0.420000,-0.420000
42.937493,-0.009272,0.027816,1.007232,-0.560000,-0.560000,-0.420000
42.941559,-0.008296,0.028304,1.006744,-0.560000,-0.560000,-0.420000
42.945625,-0.008784,0.026840,1.007232,-0.560000,-0.420000,-0.420000
42.949691,-0.008296,0.026840,1.006256,-0.560000,-0.420000,-0.420000
42.953758,-0.008296,0.027328,1.005768,-0.560000,-0.420000,-0.280000
42.957824,-0.008784,0.028792,1.006256,-0.560000,-0.420000,-0.280000
42.961890,-0.007320,0.028792,1.007232,-0.700000,-0.420000,-0.420000
42.965956,-0.007808,0.027328,1.006744,-0.560000,-0.420000,-0.420000
42.970023,-0.008296,0.027328,1.005768,-0.560000,-0.420000,-0.420000
42.974089,-0.009272,0.028792,1.006744,-0.700000,-0.420000,-0.280000
42.978155,-0.007808,0.027816,1.006256,-0.560000,-0.420000,-0.280000
42.982221,-0.008296,0.027328,1.005768,-0.560000,-0.280000,-0.420000
42.986288,-0.007320,0.026840,1.006256,-0.700000,-0.420000,-0.280000
42.990354,-0.008784,0.027816,1.005280,-0.560000,-0.420000,-0.420000
42.994420,-0.007808,0.026840,1.006744,-0.700000,-0.420000,-0.420000
42.998486,-0.009272,0.027328,1.006256,-0.560000,-0.560000,-0.420000
43.002553,-0.008784,0.027816,1.006256,-0.700000,-0.420000,-0.420000
43.006619,-0.008296,0.028304,1.007720,-0.560000,-0.420000,-0.280000
43.010685,-0.007320,0.027328,1.007232,-0.560000,-0.420000,-0.280000
43.014751,-0.008296,0.026352,1.007232,-0.700000,-0.420000,-0.420000
43.018818,-0.008296,0.027328,1.006256,-0.560000,-0.560000,-0.420000
43.022884,-0.007808,0.028304,1.007720,-0.560000,-0.420000,-0.420000
43.026950,-0.008784,0.027816,1.006744,-0.560000,-0.420000,-0.420000
43.031016,-0.009272,0.029280,1.006744,-0.560000,-0.420000,-0.420000
43.035083,-0.008296,0.027816,1.006744,-0.560000,-0.420000,-0.420000
43.039149,-0.007808,0.027816,1.006256,-0.560000,-0.420000,-0.280000
43.043215,-0.008296,0.027328,1.006744,-0.560000,-0.420000,-0.420000
43.047282,-0.009760,0.027328,1.008208,-0.560000,-0.420000,-0.420000
43.051348,-0.008296,0.026840,1.009184,-0.560000,-0.560000,-0.280000
43.055414,-0.007320,0.027816,1.007720,-0.560000,-0.420000,-0.420000
43.059480,-0.008296,0.027816,1.006256,-0.560000,-0.420000,-0.420000
43.063547,-0.007808,0.028304,1.005768,-0.700000,-0.560000,-0.420000
43.067613,-0.008296,0.028304,1.008208,-0.560000,-0.560000,-0.420000
43.071679,-0.007808,0.026840,1.008696,-0.700000,-0.420000,-0.420000
43.075745,-0.008296,0.027816,1.006744,-0.700000,-0.420000,-0.420000
43.079812,-0.009272,0.026840,1.006744,-0.560000,-0.420000,-0.420000
43.083878,-0.008784,0.028304,1.007232,-0.560000,-0.420000,-0.420000
43.087944,-0.009272,0.027816,1.008208,-0.560000,-0.420000,-0.420000
43.092010,-0.008784,0.027328,1.005768,-0.700000,-0.420000,-0.420000
43.096077,-0.008296,0.027816,1.006256,-0.560000,-0.420000,-0.420000
43.100143,-0.008296,0.027328,1.007232,-0.560000,-0.420000,-0.420000
43.104209,-0.008784,0.026840,1.004304,-0.560000,-0.420000,-0.420000
43.108275,-0.008784,0.027328,1.006256,-0.560000,-0.420000,-0.420000
43.112342,-0.008784,0.026840,1.006256,-0.420000,-0.420000,-0.420000
43.116408,-0.008296,0.027816,1.007232,-0.560000,-0.420000,-0.420000
43.120474,-0.007808,0.027816,1.007232,-0.700000,-0.560000,-0.420000
43.124540,-0.008296,0.027328,1.006744,-0.560000,-0.420000,-0.420000
43.128607,-0.009272,0.028304,1.006744,-0.560000,-0.420000,-0.420000
43.132673,-0.009272,0.027328,1.006256,-0.700000,-0.420000,-0.420000
43.136739,-0.008784,0.027816,1.007232,-0.560000,-0.280000,-0.420000
43.140805,-0.008784,0.027328,1.007720,-0.560000,-0.420000,-0.420000
43.144872,-0.008784,0.027816,1.006256,-0.560000,-0.420000,-0.420000
43.148938,-0.008296,0.027816,1.006744,-0.560000,-0.420000,-0.420000
43.153004,-0.008296,0.027328,1.006256,-0.560000,-0.420000,-0.420000
43.157070,-0.007808,0.027816,1.005280,-0.560000,-0.420000,-0.420000
43.161137,-0.007808,0.027816,1.006744,-0.560000,-0.420000,-0.420000
43.165203,-0.008784,0.027328,1.005768,-0.700000,-0.420000,-0.280000
43.169269,-0.008296,0.028304,1.008208,-0.420000,-0.280000,-0.420000
43.173335,-0.008296,0.028304,1.006256,-0.700000,-0.560000,-0.420000
43.177402,-0.008296,0.028304,1.006256,-0.700000,-0.420000,-0.420000
43.181468,-0.008784,0.028304,1.006744,-0.700000,-0.420000,-0.280000
43.185534,-0.008784,0.027816,1.006744,-0.420000,-0.420000,-0.420000
43.189600,-0.007320,0.029280,1.006744,-0.560000,-0.560000,-0.420000
43.193667,-0.008784,0.028792,1.005768,-0.560000,-0.420000,-0.420000
43.197733,-0.008296,0.027816,1.006744,-0.560000,-0.420000,-0.420000
43.201799,-0.008296,0.027816,1.005768,-0.560000,-0.560000,-0.420000
43.205865,-0.008784,0.027328,1.007232,-0.560000,-0.420000,-0.420000
43.209932,-0.008296,0.027328,1.006256,-0.560000,-0.420000,-0.420000
43.213998,-0.008296,0.027328,1.006744,-0.560000,-0.420000,-0.420000
43.218064,-0.009272,0.028304,1.006744,-0.560000,-0.420000,-0.420000
43.222130,-0.008784,0.027816,1.006744,-0.700000,-0.420000,-0.420000
43.226197,-0.009272,0.028304,1.005280,-0.560000,-0.420000,-0.420000
43.230263,-0.008296,0.027328,1.007232,-0.560000,-0.560000,-0.420000
43.234329,-0.006832,0.028304,1.007720,-0.560000,-0.560000,-0.420000
43.238395,-0.008784,0.028304,1.006256,-0.560000,-0.280000,-0.420000
43.242462,-0.008784,0.027816,1.006256,-0.700000,-0.420000,-0.420000
43.246528,-0.009272,0.027328,1.007720,-0.700000,-0.420000,-0.420000
43.250594,-0.007320,0.028304,1.007232,-0.560000,-0.420000,-0.420000
43.254660,-0.008784,0.028304,1.006744,-0.700000,-0.420000,-0.420000
43.258727,-0.008784,0.027816,1.005768,-0.700000,-0.420000,-0.420000
43.262793,-0.008784,0.027328,1.006744,-0.700000,-0.280000,-0.420000
43.266859,-0.007320,0.028304,1.006256,-0.560000,-0.280000,-0.420000
43.270925,-0.009272,0.027816,1.006744,-0.700000,-0.420000,-0.420000
43.274992,-0.008296,0.027816,1.006256,-0.420000,-0.280000,-0.420000
43.279058,-0.008296,0.027328,1.006744,-0.700000,-0.420000,-0.420000
43.283124,-0.009760,0.028304,1.006744,-0.560000,-0.420000,-0.420000
43.287190,-0.008784,0.028304,1.007232,-0.700000,-0.280000,-0.420000
43.291257,-0.008784,0.028304,1.006256,-0.560000,-0.560000,-0.420000
43.295323,-0.009272,0.028304,1.007232,-0.560000,-0.420000,-0.420000
43.299389,-0.008784,0.027816,1.007232,-0.560000,-0.420000,-0.420000
43.303456,-0.008296,0.027816,1.007232,-0.700000,-0.420000,-0.420000
43.307522,-0.007808,0.027328,1.006256,-0.560000,-0.420000,-0.420000
43.311588,-0.007808,0.027328,1.007232,-0.700000,-0.420000,-0.280000
43.315654,-0.008784,0.027816,1.006256,-0.560000,-0.420000,-0.420000
43.319721,-0.008784,0.028304,1.007232,-0.560000,-0.420000,-0.280000
43.323787,-0.007320,0.027328,1.005768,-0.560000,-0.420000,-0.420000
43.327853,-0.008784,0.027816,1.006256,-0.560000,-0.420000,-0.420000
43.331919,-0.008784,0.028304,1.006744,-0.560000,-0.420000,-0.420000
43.335986,-0.008784,0.027816,1.006744,-0.560000,-0.420000,-0.420000
43.340052,-0.007808,0.028304,1.005768,-0.560000,-0.560000,-0.420000
43.344118,-0.009272,0.027328,1.007232,-0.700000,-0.560000,-0.420000
43.348184,-0.008296,0.027816,1.006256,-0.700000,-0.420000,-0.280000
43.352251,-0.008296,0.027816,1.005768,-0.560000,-0.560000,-0.420000
43.356317,-0.008784,0.027816,1.006744,-0.560000,-0.420000,-0.280000
43.360383,-0.008784,0.027816,1.007232,-0.700000,-0.560000,-0.420000
43.364449,-0.009272,0.027816,1.006744,-0.560000,-0.420000,-0.420000
43.368516,-0.008784,0.027328,1.005280,-0.560000,-0.420000,-0.420000
43.372582,-0.007320,0.028304,1.007720,-0.560000,-0.420000,-0.420000
43.376648,-0.008296,0.028304,1.006256,-0.700000,-0.420000,-0.420000
43.380714,-0.007808,0.028304,1.005768,-0.560000,-0.420000,-0.420000
43.384781,-0.008784,0.027816,1.006256,-0.700000,-0.280000,-0.420000
43.388847,-0.008784,0.027816,1.006256,-0.560000,-0.420000,-0.420000
43.392913,-0.008784,0.028304,1.007232,-0.560000,-0.280000,-0.420000
43.396979,-0.007808,0.028792,1.005768,-0.700000,-0.420000,-0.420000
43.401046,-0.008296,0.026840,1.007232,-0.560000,-0.560000,-0.280000
43.405112,-0.009272,0.027816,1.007232,-0.560000,-0.420000,-0.280000
43.409178,-0.008296,0.027816,1.007720,-0.560000,-0.420000,-0.280000
43.413244,-0.008296,0.027328,1.006744,-0.560000,-0.420000,-0.420000
43.417311,-0.008296,0.027816,1.007232,-0.560000,-0.420000,-0.280000
43.421377,-0.007320,0.027816,1.006744,-0.700000,-0.420000,-0.420000
43.425443,-0.008784,0.027816,1.007232,-0.560000,-0.420000,-0.280000
43.429509,-0.008296,0.027328,1.008208,-0.700000,-0.420000,-0.280000
43.433576,-0.009272,0.026840,1.006256,-0.560000,-0.420000,-0.280000
43.437642,-0.009272,0.027328,1.005768,-0.700000,-0.420000,-0.420000
43.441708,-0.008784,0.027816,1.007232,-0.700000,-0.420000,-0.420000
43.445774,-0.008296,0.026840,1.006744,-0.700000,-0.420000,-0.420000
43.449841,-0.007320,0.027328,1.006744,-0.700000,-0.280000,-0.420000
43.453907,-0.008296,0.028304,1.006744,-0.700000,-0.420000,-0.280000
43.457973,-0.008296,0.027816,1.005280,-0.560000,-0.420000,-0.420000
43.462039,-0.008296,0.026840,1.007232,-0.560000,-0.420000,-0.420000
43.466106,-0.007808,0.027816,1.008208,-0.700000,-0.560000,-0.420000
43.470172,-0.009272,0.026840,1.005280,-0.560000,-0.420000,-0.420000
43.474238,-0.008296,0.027816,1.007720,-0.560000,-0.420000,-0.420000
43.478304,-0.008296,0.027816,1.006744,-0.560000,-0.280000,-0.420000
43.482371,-0.008296,0.027816,1.006744,-0.560000,-0.420000,-0.420000
43.486437,-0.008296,0.027328,1.007720,-0.560000,-0.280000,-0.420000
43.490503,-0.008296,0.026840,1.006256,-0.560000,-0.420000,-0.420000
43.494569,-0.008296,0.027816,1.005280,-0.560000,-0.420000,-0.420000
43.498636,-0.007320,0.028304,1.006256,-0.420000,-0.420000,-0.420000
43.502702,-0.007320,0.026840,1.004792,-0.700000,-0.420000,-0.420000
43.506768,-0.008784,0.026840,1.006256,-0.560000,-0.280000,-0.420000
43.510834,-0.008296,0.027816,1.005768,-0.560000,-0.560000,-0.420000
43.514901,-0.007808,0.027816,1.007232,-0.560000,-0.420000,-0.280000
43.518967,-0.008784,0.027816,1.007232,-0.560000,-0.420000,-0.420000
43.523033,-0.007808,0.027816,1.008208,-0.700000,-0.560000,-0.420000
43.527099,-0.008296,0.027816,1.006256,-0.560000,-0.420000,-0.420000
43.531166,-0.009272,0.027328,1.007232,-0.560000,-0.420000,-0.420000
43.535232,-0.007808,0.027816,1.007720,-0.560000,-0.420000,-0.420000
43.539298,-0.009272,0.026840,1.007720,-0.560000,-0.420000,-0.280000
43.543364,-0.008784,0.028792,1.005768,-0.560000,-0.420000,-0.420000
43.547431,-0.008784,0.027328,1.006744,-0.560000,-0.420000,-0.420000
43.551497,-0.008296,0.027328,1.006256,-0.560000,-0.420000,-0.280000
43.555563,-0.008296,0.027328,1.007232,-0.560000,-0.420000,-0.280000
43.559630,-0.008784,0.028304,1.005280,-0.560000,-0.420000,-0.420000
43.563696,-0.009272,0.027328,1.005768,-0.560000,-0.420000,-0.420000
43.567762,-0.008296,0.028304,1.005280,-0.700000,-0.560000,-0.420000
43.571828,-0.008296,0.026840,1.006744,-0.700000,-0.420000,-0.420000
43.575895,-0.008784,0.027328,1.004792,-0.700000,-0.280000,-0.420000
43.579961,-0.008784,0.026840,1.006744,-0.700000,-0.420000,-0.420000
43.584027,-0.008296,0.027816,1.006256,-0.560000,-0.420000,-0.420000
43.588093,-0.008296,0.026840,1.006256,-0.560000,-0.560000,-0.420000
43.592160,-0.008296,0.027816,1.006256,-0.560000,-0.560000,-0.420000
43.596226,-0.008784,0.027328,1.006744,-0.560000,-0.420000,-0.420000
43.600292,-0.008296,0.027328,1.006744,-0.700000,-0.560000,-0.420000
43.604358,-0.007808,0.028792,1.007232,-0.420000,-0.420000,-0.420000
43.608425,-0.008784,0.028304,1.007232,-0.560000,-0.420000,-0.420000
43.612491,-0.008784,0.027816,1.006256,-0.560000,-0.420000,-0.420000
43.616557,-0.008296,0.028304,1.006744,-0.560000,-0.420000,-0.420000
43.620623,-0.008296,0.028304,1.008208,-0.560000,-0.560000,-0.280000
43.624690,-0.008784,0.027816,1.008696,-0.560000,-0.560000,-0.420000
43.628756,-0.008784,0.028304,1.007232,-0.560000,-0.420000,-0.420000
43.632822,-0.008784,0.026840,1.007232,-0.560000,-0.420000,-0.420000
43.636888,-0.008784,0.028304,1.006744,-0.560000,-0.420000,-0.420000
43.640955,-0.007808,0.027328,1.007232,-0.700000,-0.420000,-0.420000
43.645021,-0.008296,0.028304,1.007232,-0.700000,-0.420000,-0.420000
43.649087,-0.008296,0.027816,1.006744,-0.560000,-0.280000,-0.420000
43.653153,-0.009272,0.026840,1.005768,-0.560000,-0.420000,-0.420000
43.657220,-0.009272,0.028792,1.005768,-0.560000,-0.420000,-0.420000
43.661286,-0.008784,0.027328,1.006256,-0.560000,-0.420000,-0.420000
43.665352,-0.008784,0.027328,1.005768,-0.700000,-0.420000,-0.420000
43.669418,-0.007808,0.027816,1.006744,-0.560000,-0.420000,-0.420000
43.673485,-0.008784,0.027816,1.007232,-0.560000,-0.420000,-0.420000
43.677551,-0.007808,0.028304,1.005768,-0.560000,-0.420000,-0.420000
43.681617,-0.008784,0.027328,1.007720,-0.560000,-0.280000,-0.280000
43.685683,-0.008296,0.027328,1.006744,-0.560000,-0.420000,-0.280000
43.689750,-0.009272,0.028304,1.006256,-0.560000,-0.420000,-0.280000
43.693816,-0.008784,0.027328,1.006744,-0.560000,-0.420000,-0.420000
43.697882,-0.009272,0.026840,1.007232,-0.700000,-0.420000,-0.280000
43.701948,-0.007808,0.027816,1.005768,-0.560000,-0.420000,-0.280000
43.706015,-0.008296,0.027816,1.006256,-0.420000,-0.280000,-0.280000
43.710081,-0.009760,0.027328,1.005280,-0.700000,-0.420000,-0.420000
43.714147,-0.008296,0.027816,1.008208,-0.560000,-0.420000,-0.280000
43.718213,-0.008784,0.027816,1.005768,-0.560000,-0.280000,-0.420000
43.722280,-0.009272,0.027816,1.005768,-0.560000,-0.280000,-0.420000
43.726346,-0.007808,0.026840,1.005768,-0.560000,-0.420000,-0.420000
43.730412,-0.008296,0.027328,1.006744,-0.560000,-0.420000,-0.420000
43.734478,-0.009272,0.027328,1.005768,-0.560000,-0.420000,-0.420000
43.738545,-0.008296,0.028792,1.004792,-0.560000,-0.420000,-0.420000
43.742611,-0.008784,0.028792,1.007232,-0.560000,-0.420000,-0.420000
43.746677,-0.008296,0.027328,1.006256,-0.700000,-0.280000,-0.420000
43.750743,-0.008296,0.027816,1.005768,-0.560000,-0.420000,-0.420000
43.754810,-0.008296,0.027328,1.007720,-0.560000,-0.420000,-0.420000
43.758876,-0.008296,0.027328,1.005768,-0.700000,-0.560000,-0.420000
43.762942,-0.009272,0.028304,1.005768,-0.560000,-0.420000,-0.420000
43.767008,-0.008784,0.028304,1.007232,-0.560000,-0.420000,-0.420000
43.771075,-0.007808,0.027816,1.006744,-0.560000,-0.420000,-0.420000
43.775141,-0.008784,0.028304,1.007720,-0.560000,-0.420000,-0.420000
43.779207,-0.008784,0.027816,1.005768,-0.560000,-0.280000,-0.420000
43.783273,-0.008296,0.027816,1.006744,-0.700000,-0.420000,-0.420000
43.787340,-0.008296,0.027816,1.007232,-0.700000,-0.420000,-0.280000
43.791406,-0.007808,0.027328,1.006744,-0.560000,-0.560000,-0.420000
43.795472,-0.007808,0.028304,1.007232,-0.700000,-0.560000,-0.420000
43.799538,-0.008784,0.029280,1.007232,-0.560000,-0.420000,-0.420000
43.803605,-0.008784,0.028304,1.006744,-0.560000,-0.420000,-0.280000
43.807671,-0.007808,0.026840,1.007232,-0.560000,-0.420000,-0.420000
43.811737,-0.008784,0.027328,1.006256,-0.560000,-0.420000,-0.420000
43.815804,-0.009272,0.027816,1.008696,-0.560000,-0.420000,-0.280000
43.819870,-0.009760,0.027816,1.007232,-0.560000,-0.560000,-0.420000
43.823936,-0.008784,0.028304,1.006744,-0.560000,-0.420000,-0.420000
43.828002,-0.008296,0.027328,1.008208,-0.560000,-0.420000,-0.420000
43.832069,-0.008296,0.028792,1.006744,-0.560000,-0.280000,-0.420000
43.836135,-0.008296,0.027816,1.005280,-0.560000,-0.420000,-0.420000
43.840201,-0.007808,0.027816,1.006744,-0.560000,-0.420000,-0.280000
43.844267,-0.007808,0.028304,1.007232,-0.700000,-0.560000,-0.420000
43.848334,-0.007808,0.028304,1.006256,-0.560000,-0.420000,-0.420000
43.852400,-0.008784,0.028792,1.006744,-0.700000,-0.420000,-0.280000
43.856466,-0.008784,0.027816,1.005768,-0.420000,-0.420000,-0.420000
43.860532,-0.007808,0.026840,1.005768,-0.560000,-0.420000,-0.420000
43.864599,-0.008784,0.026840,1.007232,-0.560000,-0.420000,-0.420000
43.868665,-0.007808,0.028304,1.006256,-0.560000,-0.420000,-0.420000
43.872731,-0.007808,0.026840,1.005768,-0.700000,-0.420000,-0.420000
43.876797,-0.008296,0.028304,1.005768,-0.700000,-0.560000,-0.420000
43.880864,-0.009272,0.027328,1.006744,-0.700000,-0.560000,-0.280000
43.884930,-0.009272,0.027328,1.007232,-0.560000,-0.420000,-0.420000
43.888996,-0.008296,0.026840,1.006256,-0.700000,-0.560000,-0.420000
43.893062,-0.008784,0.028304,1.005768,-0.560000,-0.420000,-0.420000
43.897129,-0.009272,0.027816,1.007232,-0.560000,-0.420000,-0.420000
43.901195,-0.008784,0.027328,1.007720,-0.560000,-0.280000,-0.280000
43.905261,-0.007320,0.027816,1.006256,-0.560000,-0.560000,-0.420000
43.909327,-0.009272,0.026840,1.005280,-0.560000,-0.420000,-0.420000
43.913394,-0.007808,0.027816,1.007232,-0.560000,-0.280000,-0.420000
43.917460,-0.007808,0.027816,1.005768,-0.560000,-0.280000,-0.280000
43.921526,-0.008784,0.027816,1.007232,-0.700000,-0.280000,-0.420000
43.925592,-0.009272,0.027816,1.005280,-0.560000,-0.420000,-0.280000
43.929659,-0.008296,0.028792,1.007232,-0.700000,-0.420000,-0.420000
43.933725,-0.008784,0.027328,1.007232,-0.700000,-0.420000,-0.420000
43.937791,-0.008296,0.026840,1.006744,-0.700000,-0.420000,-0.280000
43.941857,-0.007808,0.028792,1.005768,-0.700000,-0.560000,-0.420000
43.945924,-0.009272,0.028792,1.007720,-0.560000,-0.420000,-0.420000
43.949990,-0.008784,0.027816,1.007232,-0.560000,-0.420000,-0.420000
43.954056,-0.007808,0.026840,1.006256,-0.560000,-0.420000,-0.280000
43.958122,-0.008296,0.027328,1.006256,-0.420000,-0.420000,-0.280000
43.962189,-0.007808,0.027328,1.007232,-0.560000,-0.420000,-0.280000
43.966255,-0.007808,0.029280,1.006256,-0.560000,-0.420000,-0.280000
43.970321,-0.009272,0.028304,1.007232,-0.560000,-0.420000,-0.420000
43.974387,-0.008296,0.028304,1.006256,-0.560000,-0.420000,-0.420000
43.978454,-0.007808,0.027816,1.005280,-0.700000,-0.420000,-0.420000
43.982520,-0.008296,0.027816,1.006256,-0.560000,-0.420000,-0.420000
43.986586,-0.008296,0.028304,1.007232,-0.560000,-0.420000,-0.420000
43.990652,-0.007808,0.028792,1.006744,-0.560000,-0.420000,-0.420000
43.994719,-0.008784,0.027816,1.007232,-0.560000,-0.560000,-0.420000
43.998785,-0.008784,0.027816,1.006744,-0.560000,-0.420000,-0.420000
44.002851,-0.007808,0.028304,1.008208,-0.700000,-0.280000,-0.420000
44.006917,-0.008784,0.028304,1.006744,-0.700000,-0.420000,-0.420000
44.010984,-0.008296,0.028304,1.005280,-0.560000,-0.280000,-0.280000
44.015050,-0.008296,0.027816,1.006744,-0.560000,-0.420000,-0.280000
44.019116,-0.008784,0.026840,1.006744,-0.560000,-0.420000,-0.420000
44.023182,-0.007808,0.028304,1.007720,-0.560000,-0.420000,-0.420000
44.027249,-0.008784,0.027816,1.006256,-0.560000,-0.420000,-0.420000
44.031315,-0.008296,0.027328,1.006256,-0.560000,-0.420000,-0.280000
44.035381,-0.008784,0.028304,1.005768,-0.560000,-0.280000,-0.420000
44.039447,-0.008296,0.028792,1.007232,-0.560000,-0.560000,-0.420000
44.043514,-0.008784,0.028304,1.007720,-0.560000,-0.420000,-0.420000
44.047580,-0.008784,0.027816,1.006256,-0.700000,-0.420000,-0.420000
44.051646,-0.007320,0.027816,1.006744,-0.560000,-0.420000,-0.420000
44.055712,-0.008296,0.027328,1.007720,-0.560000,-0.420000,-0.420000
44.059779,-0.008296,0.027816,1.006744,-0.560000,-0.420000,-0.280000
44.063845,-0.008296,0.027328,1.006256,-0.700000,-0.420000,-0.420000
44.067911,-0.008296,0.025864,1.007232,-0.560000,-0.280000,-0.420000
44.071978,-0.008296,0.027328,1.006256,-0.560000,-0.420000,-0.280000
44.076044,-0.007808,0.026840,1.006744,-0.560000,-0.280000,-0.420000
44.080110,-0.008296,0.027816,1.006744,-0.560000,-0.280000,-0.420000
44.084176,-0.008784,0.028304,1.006744,-0.560000,-0.420000,-0.420000
44.088243,-0.008296,0.027816,1.006256,-0.560000,-0.560000,-0.420000
44.092309,-0.008784,0.027816,1.006744,-0.560000,-0.420000,-0.420000
44.096375,-0.008296,0.026840,1.006256,-0.420000,-0.420000,-0.420000
44.100441,-0.008784,0.027328,1.006256,-0.560000,-0.420000,-0.420000
44.104508,-0.009272,0.028304,1.007720,-0.560000,-0.420000,-0.420000
44.108574,-0.008784,0.027816,1.006744,-0.700000,-0.420000,-0.420000
44.112640,-0.008784,0.027816,1.007232,-0.700000,-0.420000,-0.420000
44.116706,-0.007320,0.026352,1.007232,-0.700000,-0.420000,-0.420000
44.120773,-0.007808,0.027328,1.007232,-0.560000,-0.420000,-0.420000
44.124839,-0.008296,0.027816,1.007232,-0.560000,-0.560000,-0.420000
44.128905,-0.008296,0.027816,1.007232,-0.560000,-0.420000,-0.280000
44.132971,-0.007808,0.028304,1.007232,-0.700000,-0.420000,-0.420000
44.137038,-0.009272,0.027816,1.006744,-0.560000,-0.420000,-0.420000
44.141104,-0.008784,0.026840,1.007232,-0.560000,-0.420000,-0.280000
44.145170,-0.008784,0.027816,1.006256,-0.560000,-0.420000,-0.280000
44.149236,-0.008296,0.027816,1.006744,-0.700000,-0.420000,-0.420000
44.153303,-0.008784,0.027328,1.005280,-0.560000,-0.420000,-0.420000
44.157369,-0.008784,0.028304,1.006256,-0.560000,-0.420000,-0.420000
44.161435,-0.007320,0.027816,1.007232,-0.700000,-0.420000,-0.420000
44.165501,-0.009272,0.027816,1.006744,-0.700000,-0.420000,-0.420000
44.169568,-0.008784,0.027816,1.006256,-0.560000,-0.420000,-0.420000
44.173634,-0.008296,0.028304,1.008208,-0.560000,-0.420000,-0.420000
44.177700,-0.008296,0.027328,1.006256,-0.560000,-0.420000,-0.420000
44.181766,-0.009760,0.027816,1.007720,-0.560000,-0.420000,-0.420000
44.185833,-0.007808,0.027328,1.006744,-0.560000,-0.420000,-0.420000
44.189899,-0.009272,0.027328,1.006744,-0.560000,-0.560000,-0.420000
44.193965,-0.008296,0.027328,1.007232,-0.560000,-0.420000,-0.420000
44.198031,-0.007808,0.027816,1.005768,-0.560000,-0.420000,-0.420000
44.202098,-0.008296,0.028792,1.005768,-0.700000,-0.420000,-0.280000
44.206164,-0.007808,0.028792,1.006744,-0.560000,-0.420000,-0.280000
44.210230,-0.007808,0.027328,1.006744,-0.560000,-0.420000,-0.280000
44.214296,-0.008784,0.028792,1.007720,-0.560000,-0.420000,-0.420000
44.218363,-0.008296,0.029280,1.005280,-0.560000,-0.420000,-0.420000
44.222429,-0.009272,0.028304,1.007720,-0.560000,-0.420000,-0.420000
44.226495,-0.008296,0.027816,1.007720,-0.560000,-0.420000,-0.420000
44.230561,-0.007320,0.026840,1.007720,-0.560000,-0.420000,-0.280000
44.234628,-0.007808,0.027816,1.006744,-0.700000,-0.420000,-0.280000
44.238694,-0.008296,0.027328,1.007232,-0.560000,-0.560000,-0.420000
44.242760,-0.008784,0.027328,1.006744,-0.560000,-0.420000,-0.420000
44.246826,-0.007808,0.026840,1.006744,-0.560000,-0.420000,-0.420000
44.250893,-0.007808,0.027816,1.006256,-0.560000,-0.420000,-0.280000
44.254959,-0.008784,0.028792,1.006744,-0.560000,-0.420000,-0.280000
44.259025,-0.008784,0.027816,1.007232,-0.560000,-0.420000,-0.280000
44.263091,-0.008784,0.027816,1.006256,-0.700000,-0.420000,-0.420000
44.267158,-0.008784,0.027328,1.006744,-0.560000,-0.420000,-0.420000
44.271224,-0.008296,0.028304,1.006256,-0.560000,-0.280000,-0.420000
44.275290,-0.007808,0.027328,1.006744,-0.560000,-0.420000,-0.420000
44.279356,-0.007320,0.027816,1.007232,-0.560000,-0.420000,-0.420000
44.283423,-0.007320,0.027816,1.006256,-0.560000,-0.420000,-0.420000
44.287489,-0.009272,0.026840,1.005768,-0.700000,-0.420000,-0.280000
44.291555,-0.007808,0.026840,1.006744,-0.420000,-0.420000,-0.280000
44.295621,-0.008296,0.027328,1.007720,-0.560000,-0.280000,-0.420000
44.299688,-0.007808,0.027816,1.006744,-0.700000,-0.420000,-0.420000
44.303754,-0.008296,0.027816,1.008696,-0.700000,-0.420000,-0.420000
44.307820,-0.008784,0.027328,1.006744,-0.700000,-0.420000,-0.420000
44.311886,-0.009272,0.027816,1.006744,-0.560000,-0.420000,-0.420000
44.315953,-0.008296,0.027328,1.005768,-0.560000,-0.420000,-0.420000
44.320019,-0.007808,0.026840,1.007232,-0.560000,-0.420000,-0.420000
44.324085,-0.008296,0.027328,1.007232,-0.560000,-0.280000,-0.420000
44.328152,-0.007808,0.028792,1.006256,-0.560000,-0.280000,-0.420000
44.332218,-0.008296,0.026840,1.006744,-0.560000,-0.420000,-0.420000
44.336284,-0.009272,0.027816,1.007232,-0.560000,-0.420000,-0.420000
44.340350,-0.008296,0.027816,1.006744,-0.700000,-0.280000,-0.420000
44.344417,-0.008784,0.027816,1.007232,-0.560000,-0.560000,-0.420000
44.348483,-0.008296,0.027328,1.006256,-0.700000,-0.560000,-0.420000
44.352549,-0.007320,0.027816,1.006256,-0.700000,-0.420000,-0.420000
44.356615,-0.007808,0.028304,1.006744,-0.700000,-0.420000,-0.420000
44.360682,-0.009272,0.027816,1.008696,-0.700000,-0.420000,-0.420000
44.364748,-0.010248,0.026840,1.007232,-0.560000,-0.420000,-0.420000
44.368814,-0.008784,0.027816,1.006744,-0.700000,-0.420000,-0.420000
44.372880,-0.007808,0.027816,1.007720,-0.700000,-0.420000,-0.280000
44.376947,-0.007808,0.027816,1.007232,-0.560000,-0.560000,-0.420000
44.381013,-0.007808,0.028304,1.007232,-0.560000,-0.280000,-0.420000
44.385079,-0.009272,0.027816,1.006744,-0.560000,-0.280000,-0.420000
44.389145,-0.007808,0.027328,1.006744,-0.560000,-0.420000,-0.420000
44.393212,-0.007808,0.027328,1.006744,-0.560000,-0.420000,-0.420000
44.397278,-0.008784,0.027816,1.005768,-0.560000,-0.420000,-0.420000
44.401344,-0.009272,0.028304,1.006256,-0.560000,-0.420000,-0.420000
44.405410,-0.007808,0.027816,1.006744,-0.560000,-0.420000,-0.420000
44.409477,-0.008784,0.027816,1.007232,-0.560000,-0.420000,-0.420000
44.413543,-0.008784,0.027328,1.006256,-0.560000,-0.420000,-0.420000
44.417609,-0.007808,0.028304,1.007232,-0.700000,-0.420000,-0.420000
44.421675,-0.008296,0.028304,1.007720,-0.560000,-0.420000,-0.420000
44.425742,-0.007808,0.027816,1.006256,-0.700000,-0.420000,-0.420000
44.429808,-0.009272,0.026840,1.005768,-0.560000,-0.560000,-0.420000
44.433874,-0.008784,0.027328,1.005768,-0.560000,-0.420000,-0.420000
44.437940,-0.008784,0.027816,1.006256,-0.560000,-0.420000,-0.420000
44.442007,-0.008296,0.027816,1.007232,-0.560000,-0.420000,-0.420000
44.446073,-0.008296,0.027816,1.006256,-0.560000,-0.420000,-0.420000
44.450139,-0.007808,0.027328,1.008208,-0.560000,-0.420000,-0.280000
44.454205,-0.007808,0.027816,1.006744,-0.560000,-0.420000,-0.420000
44.458272,-0.008784,0.027816,1.006256,-0.560000,-0.420000,-0.280000
44.462338,-0.007808,0.028792,1.007232,-0.560000,-0.420000,-0.280000
44.466404,-0.008296,0.028304,1.006256,-0.560000,-0.420000,-0.420000
44.470470,-0.009272,0.028304,1.005768,-0.700000,-0.560000,-0.420000
44.474537,-0.008784,0.026840,1.005768,-0.560000,-0.560000,-0.420000
44.478603,-0.008296,0.026840,1.007232,-0.560000,-0.420000,-0.420000
44.482669,-0.008296,0.027816,1.006744,-0.700000,-0.420000,-0.420000
44.486735,-0.008296,0.027816,1.006256,-0.560000,-0.280000,-0.420000
44.490802,-0.007808,0.027816,1.006256,-0.700000,-0.420000,-0.420000
44.494868,-0.008296,0.027328,1.006744,-0.560000,-0.560000,-0.420000
44.498934,-0.008296,0.027816,1.007720,-0.560000,-0.420000,-0.420000
44.503000,-0.009760,0.027328,1.007720,-0.560000,-0.420000,-0.420000
44.507067,-0.008296,0.026840,1.006744,-0.560000,-0.420000,-0.280000
44.511133,-0.008296,0.027816,1.006256,-0.700000,-0.420000,-0.420000
44.515199,-0.008296,0.027816,1.006744,-0.560000,-0.280000,-0.420000
44.519265,-0.008784,0.027816,1.007720,-0.700000,-0.420000,-0.280000
44.523332,-0.008296,0.028304,1.007232,-0.700000,-0.420000,-0.420000
44.527398,-0.008784,0.028304,1.006256,-0.700000,-0.420000,-0.420000
44.531464,-0.008296,0.028792,1.006744,-0.560000,-0.420000,-0.420000
44.535530,-0.007808,0.027816,1.006256,-0.700000,-0.420000,-0.420000
44.539597,-0.008784,0.027328,1.006744,-0.420000,-0.420000,-0.420000
44.543663,-0.008296,0.027816,1.006744,-0.560000,-0.420000,-0.420000
44.547729,-0.008296,0.027816,1.006256,-0.560000,-0.420000,-0.420000
44.551795,-0.008296,0.027816,1.007232,-0.560000,-0.420000,-0.420000
44.555862,-0.009272,0.027328,1.006744,-0.560000,-0.420000,-0.420000
44.559928,-0.007808,0.028304,1.007232,-0.560000,-0.420000,-0.420000
44.563994,-0.007808,0.028304,1.006256,-0.560000,-0.420000,-0.420000
44.568060,-0.008784,0.028304,1.005768,-0.560000,-0.420000,-0.420000
44.572127,-0.009760,0.029768,1.008208,-0.560000,-0.420000,-0.420000
44.576193,-0.009272,0.027816,1.006256,-0.560000,-0.420000,-0.280000
44.580259,-0.008784,0.027816,1.007232,-0.700000,-0.420000,-0.420000
44.584325,-0.008784,0.028304,1.006256,-0.560000,-0.420000,-0.420000
44.588392,-0.008296,0.027328,1.006256,-0.700000,-0.280000,-0.420000
44.592458,-0.008784,0.026840,1.005768,-0.560000,-0.420000,-0.420000
44.596524,-0.008296,0.028304,1.005768,-0.560000,-0.420000,-0.420000
44.600591,-0.008296,0.027328,1.007720,-0.560000,-0.420000,-0.420000
44.604657,-0.008296,0.027816,1.007232,-0.560000,-0.420000,-0.420000
44.608723,-0.008784,0.027816,1.007720,-0.560000,-0.560000,-0.420000
44.612789,-0.008784,0.027328,1.005280,-0.700000,-0.420000,-0.280000
44.616856,-0.007808,0.027328,1.006744,-0.700000,-0.420000,-0.420000
44.620922,-0.008784,0.027328,1.007232,-0.700000,-0.420000,-0.420000
44.624988,-0.008296,0.027328,1.007720,-0.700000,-0.420000,-0.420000
44.629054,-0.008296,0.027816,1.005768,-0.700000,-0.420000,-0.420000
44.633121,-0.007808,0.028304,1.006256,-0.700000,-0.420000,-0.420000
44.637187,-0.007808,0.027816,1.008208,-0.560000,-0.280000,-0.420000
44.641253,-0.008784,0.028792,1.005768,-0.700000,-0.420000,-0.420000
44.645319,-0.008296,0.027328,1.006256,-0.560000,-0.420000,-0.420000
44.649386,-0.008296,0.028792,1.006744,-0.560000,-0.420000,-0.420000
44.653452,-0.008784,0.028792,1.006744,-0.560000,-0.280000,-0.280000
44.657518,-0.008296,0.027816,1.005768,-0.560000,-0.420000,-0.420000
44.661584,-0.008784,0.027328,1.007720,-0.700000,-0.420000,-0.280000
44.665651,-0.007808,0.027328,1.005280,-0.560000,-0.420000,-0.420000
44.669717,-0.007808,0.028304,1.005768,-0.560000,-0.420000,-0.420000
44.673783,-0.008784,0.026840,1.006744,-0.560000,-0.420000,-0.420000
44.677849,-0.008784,0.027816,1.007720,-0.560000,-0.420000,-0.420000
44.681916,-0.008784,0.027328,1.007232,-0.560000,-0.420000,-0.420000
44.685982,-0.008784,0.028304,1.005768,-0.560000,-0.420000,-0.420000
44.690048,-0.007808,0.027816,1.006744,-0.560000,-0.560000,-0.420000
44.694114,-0.008296,0.027328,1.006744,-0.560000,-0.420000,-0.420000
44.698181,-0.008296,0.028304,1.005768,-0.700000,-0.420000,-0.420000
44.702247,-0.008784,0.027816,1.006256,-0.560000,-0.420000,-0.420000
44.706313,-0.007808,0.027816,1.007720,-0.560000,-0.560000,-0.280000
44.710379,-0.007808,0.027816,1.008208,-0.560000,-0.420000,-0.420000
44.714446,-0.008296,0.028304,1.007232,-0.560000,-0.280000,-0.420000
44.718512,-0.008784,0.027328,1.006256,-0.560000,-0.280000,-0.280000
44.722578,-0.008784,0.026840,1.006256,-0.560000,-0.420000,-0.420000
44.726644,-0.008296,0.027328,1.006256,-0.560000,-0.420000,-0.280000
44.730711,-0.008784,0.027816,1.008208,-0.560000,-0.560000,-0.420000
44.734777,-0.007808,0.027328,1.006744,-0.560000,-0.420000,-0.420000
44.738843,-0.008784,0.027328,1.005280,-0.700000,-0.420000,-0.420000
44.742909,-0.008784,0.027328,1.007232,-0.560000,-0.420000,-0.420000
44.746976,-0.007808,0.027816,1.006256,-0.560000,-0.420000,-0.420000
44.751042,-0.008296,0.027816,1.007232,-0.560000,-0.420000,-0.420000
44.755108,-0.008296,0.027328,1.005768,-0.560000,-0.420000,-0.420000
44.759174,-0.007320,0.026840,1.006744,-0.560000,-0.420000,-0.420000
44.763241,-0.008296,0.028304,1.007720,-0.560000,-0.420000,-0.420000
44.767307,-0.007808,0.027816,1.006256,-0.560000,-0.420000,-0.420000
44.771373,-0.007808,0.027328,1.006744,-0.560000,-0.420000,-0.420000
44.775439,-0.008784,0.028792,1.007232,-0.560000,-0.420000,-0.280000
44.779506,-0.009760,0.027816,1.006256,-0.560000,-0.420000,-0.420000
44.783572,-0.008784,0.027328,1.006256,-0.560000,-0.560000,-0.420000
44.787638,-0.008296,0.027328,1.006744,-0.700000,-0.420000,-0.420000
44.791704,-0.008296,0.028304,1.006744,-0.700000,-0.420000,-0.280000
44.795771,-0.007320,0.027816,1.007232,-0.700000,-0.420000,-0.280000
44.799837,-0.008784,0.028304,1.006744,-0.560000,-0.420000,-0.280000
44.803903,-0.008296,0.027328,1.006744,-0.560000,-0.420000,-0.280000
44.807969,-0.007320,0.028304,1.006744,-0.560000,-0.420000,-0.420000
44.812036,-0.008296,0.027328,1.006744,-0.560000,-0.420000,-0.420000
44.816102,-0.007808,0.028792,1.006744,-0.700000,-0.420000,-0.420000
44.820168,-0.008296,0.027328,1.006256,-0.560000,-0.420000,-0.280000
44.824234,-0.008296,0.028304,1.005280,-0.700000,-0.420000,-0.420000
44.828301,-0.008784,0.028304,1.006744,-0.700000,-0.420000,-0.420000
44.832367,-0.008784,0.028304,1.006744,-0.560000,-0.420000,-0.420000
44.836433,-0.009760,0.027816,1.007232,-0.560000,-0.420000,-0.280000
44.840499,-0.008296,0.028304,1.005768,-0.560000,-0.280000,-0.420000
44.844566,-0.008296,0.027328,1.005768,-0.560000,-0.420000,-0.420000
44.848632,-0.009760,0.027328,1.007232,-0.560000,-0.420000,-0.420000
44.852698,-0.008784,0.027816,1.006744,-0.560000,-0.420000,-0.420000
44.856765,-0.008296,0.028304,1.008208,-0.700000,-0.420000,-0.280000
44.860831,-0.009272,0.027328,1.005768,-0.560000,-0.560000,-0.280000
44.864897,-0.009272,0.027328,1.006256,-0.560000,-0.280000,-0.420000
44.868963,-0.008296,0.027816,1.006256,-0.560000,-0.420000,-0.420000
44.873030,-0.008296,0.028792,1.008696,-0.560000,-0.420000,-0.420000
44.877096,-0.008784,0.027328,1.006256,-0.560000,-0.420000,-0.280000
44.881162,-0.007808,0.028304,1.005280,-0.560000,-0.420000,-0.420000
44.885228,-0.007320,0.028304,1.005768,-0.560000,-0.420000,-0.280000
44.889295,-0.008784,0.028792,1.006744,-0.560000,-0.280000,-0.420000
44.893361,-0.008784,0.028304,1.005768,-0.560000,-0.420000,-0.420000
44.897427,-0.008784,0.027328,1.005768,-0.560000,-0.420000,-0.420000
44.901493,-0.009272,0.027816,1.005768,-0.560000,-0.420000,-0.420000
44.905560,-0.008296,0.027816,1.006256,-0.560000,-0.560000,-0.420000
44.909626,-0.008784,0.028792,1.005768,-0.560000,-0.420000,-0.280000
44.913692,-0.008296,0.027816,1.006744,-0.700000,-0.420000,-0.280000
44.917758,-0.007808,0.027328,1.006256,-0.700000,-0.280000,-0.420000
44.921825,-0.009272,0.027816,1.007232,-0.560000,-0.420000,-0.280000
44.925891,-0.008296,0.027328,1.007232,-0.560000,-0.420000,-0.420000
44.929957,-0.008296,0.027816,1.006744,-0.560000,-0.420000,-0.420000
44.934023,-0.008784,0.027816,1.007720,-0.560000,-0.420000,-0.280000
44.938090,-0.008784,0.028304,1.007720,-0.560000,-0.420000,-0.420000
44.942156,-0.007808,0.028792,1.005768,-0.560000,-0.420000,-0.420000
44.946222,-0.009272,0.027816,1.007232,-0.560000,-0.560000,-0.420000
44.950288,-0.009272,0.027816,1.004304,-0.560000,-0.420000,-0.420000
44.954355,-0.008784,0.028304,1.006256,-0.560000,-0.420000,-0.420000
44.958421,-0.008784,0.029280,1.007232,-0.700000,-0.420000,-0.420000
44.962487,-0.007320,0.026840,1.005768,-0.560000,-0.420000,-0.420000
44.966553,-0.008296,0.027816,1.007232,-0.700000,-0.420000,-0.420000
44.970620,-0.007808,0.028304,1.007232,-0.700000,-0.420000,-0.420000
44.974686,-0.008296,0.028304,1.005280,-0.560000,-0.420000,-0.420000
44.978752,-0.008784,0.028304,1.006256,-0.560000,-0.420000,-0.420000
44.982818,-0.009272,0.026840,1.005768,-0.420000,-0.420000,-0.420000
44.986885,-0.007808,0.026840,1.007232,-0.700000,-0.420000,-0.420000
44.990951,-0.008784,0.028792,1.007232,-0.560000,-0.420000,-0.420000
44.995017,-0.008296,0.027816,1.005280,-0.700000,-0.420000,-0.420000
44.999083,-0.007808,0.027816,1.006256,-0.560000,-0.420000,-0.420000
45.003150,-0.008296,0.027816,1.006744,-0.560000,-0.420000,-0.420000
45.007216,-0.008296,0.027816,1.006256,-0.560000,-0.420000,-0.420000
45.011282,-0.008296,0.027328,1.007232,-0.420000,-0.560000,-0.420000
45.015348,-0.008784,0.028304,1.006256,-0.560000,-0.560000,-0.420000
45.019415,-0.007808,0.027816,1.006256,-0.560000,-0.560000,-0.420000
45.023481,-0.008784,0.028304,1.006256,-0.420000,-0.420000,-0.280000
45.027547,-0.007808,0.027816,1.005280,-0.560000,-0.420000,-0.280000
45.031613,-0.009272,0.026352,1.006744,-0.560000,-0.560000,-0.420000
45.035680,-0.008296,0.027816,1.005768,-0.700000,-0.420000,-0.420000
45.039746,-0.008296,0.026840,1.005768,-0.700000,-0.420000,-0.420000
45.043812,-0.008784,0.028304,1.007232,-0.560000,-0.420000,-0.420000
45.047878,-0.008296,0.027328,1.006744,-0.560000,-0.420000,-0.420000
45.051945,-0.007320,0.027816,1.007232,-0.560000,-0.420000,-0.420000
45.056011,-0.008784,0.028304,1.008208,-0.700000,-0.420000,-0.420000
45.060077,-0.008296,0.027816,1.005768,-0.700000,-0.560000,-0.420000
45.064143,-0.008296,0.027328,1.006256,-0.560000,-0.560000,-0.420000
45.068210,-0.008784,0.027816,1.007232,-0.700000,-0.420000,-0.280000
45.072276,-0.009272,0.027328,1.007232,-0.560000,-0.420000,-0.420000
45.076342,-0.008296,0.027816,1.006744,-0.560000,-0.420000,-0.420000
45.080408,-0.009272,0.027328,1.005280,-0.560000,-0.420000,-0.420000
45.084475,-0.009272,0.026840,1.006744,-0.700000,-0.420000,-0.420000
45.088541,-0.008784,0.027816,1.007232,-0.560000,-0.420000,-0.420000
45.092607,-0.007808,0.028304,1.007720,-0.700000,-0.280000,-0.420000
45.096673,-0.008296,0.028304,1.007232,-0.700000,-0.420000,-0.420000
45.100740,-0.008784,0.027816,1.006256,-0.560000,-0.420000,-0.280000
45.104806,-0.008296,0.026840,1.007232,-0.560000,-0.420000,-0.420000
45.108872,-0.008296,0.027816,1.007720,-0.560000,-0.420000,-0.420000
45.112939,-0.008784,0.028304,1.007232,-0.560000,-0.420000,-0.420000
45.117005,-0.008296,0.027328,1.006256,-0.700000,-0.560000,-0.280000
45.121071,-0.008296,0.028792,1.006744,-0.560000,-0.420000,-0.280000
45.125137,-0.008296,0.028304,1.006744,-0.700000,-0.560000,-0.280000
45.129204,-0.008296,0.028304,1.005280,-0.560000,-0.560000,-0.280000
45.133270,-0.008784,0.028792,1.005768,-0.560000,-0.420000,-0.280000
45.137336,-0.008784,0.028304,1.005280,-0.700000,-0.420000,-0.420000
45.141402,-0.008784,0.027816,1.006256,-0.700000,-0.420000,-0.280000
45.145469,-0.007808,0.027328,1.006256,-0.560000,-0.420000,-0.420000
45.149535,-0.008784,0.027816,1.005768,-0.560000,-0.420000,-0.420000
45.153601,-0.008784,0.028304,1.005280,-0.560000,-0.420000,-0.420000
45.157667,-0.007808,0.028304,1.005280,-0.700000,-0.420000,-0.420000
45.161734,-0.008784,0.028304,1.006744,-0.560000,-0.420000,-0.420000
45.165800,-0.008784,0.027328,1.007720,-0.560000,-0.420000,-0.280000
45.169866,-0.008784,0.027328,1.006744,-0.700000,-0.280000,-0.420000
45.173932,-0.009272,0.028304,1.005768,-0.700000,-0.420000,-0.420000
45.177999,-0.009272,0.027816,1.006744,-0.700000,-0.420000,-0.420000
45.182065,-0.008296,0.027816,1.006744,-0.560000,-0.420000,-0.280000
45.186131,-0.008784,0.028304,1.005768,-0.560000,-0.560000,-0.280000
45.190197,-0.008296,0.027328,1.006256,-0.560000,-0.420000,-0.420000
45.194264,-0.007808,0.027816,1.006744,-0.560000,-0.420000,-0.280000
45.198330,-0.008784,0.028304,1.005280,-0.560000,-0.420000,-0.280000
45.202396,-0.009272,0.027328,1.006744,-0.700000,-0.420000,-0.420000
45.206462,-0.008784,0.027328,1.007232,-0.560000,-0.420000,-0.420000
45.210529,-0.008296,0.028304,1.007720,-0.700000,-0.420000,-0.420000
45.214595,-0.006832,0.027816,1.005768,-0.560000,-0.420000,-0.420000
45.218661,-0.008296,0.026840,1.008208,-0.560000,-0.420000,-0.420000
45.222727,-0.009272,0.027816,1.006744,-0.700000,-0.420000,-0.420000
45.226794,-0.008784,0.027328,1.007232,-0.560000,-0.280000,-0.420000
45.230860,-0.008296,0.027328,1.007232,-0.700000,-0.420000,-0.420000
45.234926,-0.006832,0.028304,1.005768,-0.560000,-0.560000,-0.420000
45.238992,-0.007808,0.027328,1.006744,-0.560000,-0.420000,-0.420000
45.243059,-0.007808,0.026840,1.005280,-0.560000,-0.420000,-0.280000
45.247125,-0.008296,0.027816,1.006744,-0.560000,-0.420000,-0.420000
45.251191,-0.009272,0.028304,1.007232,-0.560000,-0.560000,-0.420000
45.255257,-0.008784,0.027816,1.006744,-0.560000,-0.280000,-0.420000
45.259324,-0.007808,0.027816,1.006256,-0.560000,-0.280000,-0.420000
45.263390,-0.008296,0.027328,1.005768,-0.700000,-0.420000,-0.420000
45.267456,-0.008296,0.028304,1.006744,-0.700000,-0.420000,-0.280000
45.271522,-0.008296,0.027328,1.005768,-0.560000,-0.420000,-0.420000
45.275589,-0.008784,0.027328,1.005280,-0.560000,-0.420000,-0.420000
45.279655,-0.007808,0.027328,1.006256,-0.560000,-0.420000,-0.420000
45.283721,-0.008784,0.028304,1.005280,-0.560000,-0.560000,-0.420000
45.287787,-0.008296,0.027816,1.006256,-0.560000,-0.420000,-0.280000
45.291854,-0.008784,0.027816,1.005768,-0.560000,-0.280000,-0.420000
45.295920,-0.008784,0.027816,1.007232,-0.560000,-0.420000,-0.420000
45.299986,-0.009272,0.027816,1.006256,-0.560000,-0.420000,-0.420000
45.304052,-0.008296,0.027816,1.006256,-0.560000,-0.420000,-0.420000
45.308119,-0.007808,0.028304,1.007720,-0.560000,-0.420000,-0.420000
45.312185,-0.008296,0.028304,1.006256,-0.560000,-0.420000,-0.420000
45.316251,-0.008296,0.028304,1.006744,-0.560000,-0.420000,-0.280000
45.320317,-0.008784,0.027816,1.007720,-0.560000,-0.420000,-0.420000
45.324384,-0.009272,0.028792,1.006744,-0.700000,-0.420000,-0.420000
45.328450,-0.008784,0.028304,1.005768,-0.700000,-0.420000,-0.420000
45.332516,-0.008784,0.028792,1.007720,-0.560000,-0.420000,-0.420000
45.336582,-0.009272,0.027328,1.005768,-0.560000,-0.420000,-0.420000
45.340649,-0.008784,0.027816,1.006256,-0.560000,-0.420000,-0.420000
45.344715,-0.007808,0.027816,1.006744,-0.560000,-0.560000,-0.280000
45.348781,-0.008784,0.027328,1.005768,-0.560000,-0.420000,-0.420000
45.352847,-0.008296,0.028304,1.006744,-0.560000,-0.420000,-0.280000
45.356914,-0.007808,0.028792,1.006744,-0.560000,-0.420000,-0.420000
45.360980,-0.007808,0.027328,1.007232,-0.560000,-0.420000,-0.280000
45.365046,-0.007320,0.028792,1.006744,-0.700000,-0.420000,-0.420000
45.369113,-0.009272,0.027816,1.006744,-0.700000,-0.420000,-0.420000
45.373179,-0.008296,0.027328,1.006744,-0.560000,-0.420000,-0.420000
45.377245,-0.008296,0.028792,1.007232,-0.560000,-0.420000,-0.420000
45.381311,-0.007808,0.028304,1.006256,-0.560000,-0.420000,-0.280000
45.385378,-0.007808,0.027328,1.007232,-0.700000,-0.420000,-0.280000
45.389444,-0.008784,0.027816,1.006744,-0.560000,-0.420000,-0.420000
45.393510,-0.007320,0.027816,1.005280,-0.560000,-0.420000,-0.420000
45.397576,-0.008296,0.027816,1.006744,-0.560000,-0.420000,-0.420000
45.401643,-0.008784,0.027816,1.007720,-0.700000,-0.560000,-0.280000
45.405709,-0.007808,0.027816,1.006744,-0.560000,-0.420000,-0.420000
45.409775,-0.008784,0.027328,1.006256,-0.560000,-0.420000,-0.420000
45.413841,-0.009272,0.028304,1.007232,-0.560000,-0.420000,-0.420000
45.417908,-0.008296,0.027328,1.006744,-0.700000,-0.420000,-0.420000
45.421974,-0.008784,0.027328,1.005280,-0.560000,-0.420000,-0.280000
45.426040,-0.008296,0.027816,1.006744,-0.560000,-0.280000,-0.420000
45.430106,-0.008296,0.028304,1.006256,-0.700000,-0.420000,-0.420000
45.434173,-0.007808,0.027816,1.006744,-0.560000,-0.420000,-0.280000
45.438239,-0.009760,0.028792,1.006744,-0.700000,-0.420000,-0.420000
45.442305,-0.009272,0.028792,1.007232,-0.560000,-0.560000,-0.280000
45.446371,-0.008296,0.027328,1.006744,-0.560000,-0.560000,-0.280000
45.450438,-0.007808,0.028792,1.006744,-0.560000,-0.280000,-0.420000
45.454504,-0.008784,0.027816,1.006744,-0.700000,-0.420000,-0.420000
45.458570,-0.008784,0.027816,1.004304,-0.700000,-0.280000,-0.420000
45.462636,-0.007808,0.028304,1.005768,-0.560000,-0.420000,-0.420000
45.466703,-0.008296,0.026840,1.005768,-0.560000,-0.420000,-0.420000
45.470769,-0.007808,0.026840,1.007232,-0.560000,-0.420000,-0.420000
45.474835,-0.008784,0.027328,1.006744,-0.560000,-0.420000,-0.420000
45.478901,-0.007808,0.027328,1.006256,-0.700000,-0.420000,-0.420000
45.482968,-0.008784,0.027328,1.005280,-0.560000,-0.420000,-0.280000
45.487034,-0.008296,0.027816,1.007232,-0.560000,-0.420000,-0.420000
45.491100,-0.008784,0.028304,1.008208,-0.560000,-0.420000,-0.420000
45.495166,-0.010248,0.027816,1.006256,-0.560000,-0.420000,-0.420000
45.499233,-0.009760,0.028304,1.006256,-0.560000,-0.420000,-0.420000
45.503299,-0.007808,0.028304,1.006256,-0.560000,-0.560000,-0.420000
45.507365,-0.007320,0.026840,1.006744,-0.560000,-0.420000,-0.420000
45.511431,-0.008784,0.027816,1.005768,-0.560000,-0.420000,-0.420000
45.515498,-0.007808,0.027328,1.007232,-0.560000,-0.420000,-0.420000
45.519564,-0.009272,0.027816,1.006256,-0.560000,-0.420000,-0.420000
45.523630,-0.008784,0.028792,1.006744,-0.560000,-0.420000,-0.420000
45.527696,-0.007808,0.027328,1.004304,-0.560000,-0.420000,-0.420000
45.531763,-0.008296,0.026840,1.006256,-0.420000,-0.420000,-0.420000
45.535829,-0.007808,0.027816,1.007720,-0.420000,-0.420000,-0.420000
45.539895,-0.008784,0.028304,1.007720,-0.560000,-0.420000,-0.420000
45.543961,-0.008784,0.026840,1.006256,-0.560000,-0.420000,-0.420000
45.548028,-0.009272,0.027816,1.007232,-0.560000,-0.420000,-0.280000
45.552094,-0.008784,0.027328,1.006744,-0.560000,-0.560000,-0.280000
45.556160,-0.008296,0.028792,1.006744,-0.560000,-0.560000,-0.420000
45.560226,-0.008296,0.027816,1.006744,-0.560000,-0.420000,-0.280000
45.564293,-0.009272,0.027816,1.007232,-0.560000,-0.420000,-0.280000
45.568359,-0.008296,0.026840,1.006256,-0.560000,-0.420000,-0.420000
45.572425,-0.008784,0.027328,1.007232,-0.560000,-0.420000,-0.420000
45.576491,-0.008784,0.027328,1.007232,-0.700000,-0.420000,-0.280000
45.580558,-0.008784,0.029280,1.006744,-0.560000,-0.420000,-0.420000
45.584624,-0.007808,0.027816,1.006744,-0.560000,-0.420000,-0.280000
45.588690,-0.008784,0.027816,1.006256,-0.560000,-0.420000,-0.420000
45.592756,-0.009272,0.028304,1.005280,-0.560000,-0.420000,-0.420000
45.596823,-0.008784,0.027328,1.005768,-0.560000,-0.420000,-0.420000
45.600889,-0.009272,0.027816,1.006744,-0.560000,-0.420000,-0.420000
45.604955,-0.008296,0.027816,1.006744,-0.560000,-0.420000,-0.420000
45.609021,-0.007808,0.027328,1.005280,-0.560000,-0.420000,-0.420000
45.613088,-0.008784,0.027816,1.005768,-0.560000,-0.420000,-0.420000
45.617154,-0.008296,0.028304,1.006256,-0.560000,-0.420000,-0.420000
45.621220,-0.008296,0.026840,1.007232,-0.560000,-0.280000,-0.420000
45.625287,-0.007320,0.026840,1.005768,-0.560000,-0.420000,-0.420000
45.629353,-0.008296,0.028304,1.007232,-0.560000,-0.560000,-0.420000
45.633419,-0.008784,0.028792,1.005768,-0.700000,-0.560000,-0.420000
45.637485,-0.008296,0.027328,1.006744,-0.560000,-0.280000,-0.420000
45.641552,-0.008784,0.028792,1.007720,-0.560000,-0.420000,-0.420000
45.645618,-0.008296,0.027816,1.004792,-0.560000,-0.420000,-0.420000
45.649684,-0.009272,0.028792,1.005280,-0.560000,-0.420000,-0.420000
45.653750,-0.008296,0.027328,1.006744,-0.700000,-0.420000,-0.420000
45.657817,-0.009272,0.026840,1.005768,-0.700000,-0.420000,-0.420000
45.661883,-0.008784,0.029280,1.008208,-0.700000,-0.420000,-0.280000
45.665949,-0.008296,0.028304,1.006256,-0.700000,-0.420000,-0.420000
45.670015,-0.008784,0.027816,1.005768,-0.700000,-0.560000,-0.280000
45.674082,-0.008784,0.028304,1.005768,-0.560000,-0.420000,-0.420000
45.678148,-0.008296,0.027328,1.005768,-0.700000,-0.560000,-0.420000
45.682214,-0.008784,0.027816,1.007720,-0.700000,-0.420000,-0.420000
45.686280,-0.008296,0.027816,1.006256,-0.560000,-0.420000,-0.420000
45.690347,-0.008784,0.028304,1.006256,-0.700000,-0.420000,-0.420000
45.694413,-0.008296,0.027816,1.007232,-0.700000,-0.420000,-0.280000
45.698479,-0.008296,0.027328,1.005768,-0.560000,-0.420000,-0.280000
45.702545,-0.009272,0.026840,1.006744,-0.560000,-0.420000,-0.420000
45.706612,-0.009272,0.027328,1.006256,-0.560000,-0.420000,-0.280000
45.710678,-0.008296,0.027816,1.006744,-0.560000,-0.420000,-0.280000
45.714744,-0.008784,0.027816,1.006744,-0.560000,-0.420000,-0.420000
45.718810,-0.008296,0.026840,1.004792,-0.560000,-0.420000,-0.420000
45.722877,-0.008784,0.027328,1.006256,-0.560000,-0.420000,-0.420000
45.726943,-0.009272,0.028792,1.007232,-0.560000,-0.420000,-0.280000
45.731009,-0.008296,0.028304,1.007720,-0.560000,-0.560000,-0.420000
45.735075,-0.008296,0.027816,1.005768,-0.560000,-0.560000,-0.420000
45.739142,-0.008296,0.027816,1.005280,-0.560000,-0.560000,-0.420000
45.743208,-0.009272,0.027328,1.005768,-0.700000,-0.420000,-0.280000
45.747274,-0.008784,0.027816,1.006744,-0.560000,-0.420000,-0.280000
45.751340,-0.008296,0.027328,1.006256,-0.560000,-0.560000,-0.420000
45.755407,-0.007808,0.028304,1.005768,-0.560000,-0.420000,-0.280000
45.759473,-0.007808,0.027816,1.006744,-0.560000,-0.420000,-0.420000
45.763539,-0.008296,0.027816,1.005280,-0.560000,-0.420000,-0.420000
45.767605,-0.008784,0.027816,1.007232,-0.560000,-0.560000,-0.280000
45.771672,-0.008296,0.028304,1.006744,-0.560000,-0.420000,-0.420000
45.775738,-0.009272,0.027816,1.007232,-0.560000,-0.420000,-0.280000
45.779804,-0.007808,0.028304,1.007232,-0.560000,-0.420000,-0.280000
45.783870,-0.007808,0.027816,1.005280,-0.560000,-0.420000,-0.280000
45.787937,-0.008296,0.026840,1.004792,-0.560000,-0.420000,-0.420000
45.792003,-0.007320,0.027816,1.006744,-0.560000,-0.560000,-0.420000
45.796069,-0.009272,0.028304,1.006256,-0.560000,-0.420000,-0.420000
45.800135,-0.007808,0.027816,1.006744,-0.560000,-0.420000,-0.420000
45.804202,-0.007808,0.026840,1.005768,-0.700000,-0.420000,-0.420000
45.808268,-0.007808,0.026840,1.006256,-0.700000,-0.420000,-0.420000
45.812334,-0.008296,0.027816,1.006256,-0.560000,-0.420000,-0.420000
45.816400,-0.007808,0.027328,1.005768,-0.560000,-0.420000,-0.420000
45.820467,-0.008296,0.028304,1.006744,-0.560000,-0.420000,-0.420000
45.824533,-0.009272,0.027816,1.007232,-0.560000,-0.420000,-0.280000
45.828599,-0.007320,0.027816,1.004792,-0.560000,-0.280000,-0.420000
45.832665,-0.009760,0.028304,1.006744,-0.420000,-0.420000,-0.280000
45.836732,-0.008784,0.028304,1.007232,-0.560000,-0.420000,-0.420000
45.840798,-0.007320,0.027816,1.007232,-0.560000,-0.420000,-0.420000
45.844864,-0.007320,0.027816,1.007232,-0.560000,-0.420000,-0.420000
45.848930,-0.007808,0.027328,1.007232,-0.560000,-0.420000,-0.280000
45.852997,-0.007808,0.028304,1.005768,-0.700000,-0.420000,-0.420000
45.857063,-0.009272,0.028304,1.005768,-0.560000,-0.420000,-0.420000
45.861129,-0.009272,0.027328,1.007232,-0.560000,-0.280000,-0.420000
45.865196,-0.008784,0.028304,1.006256,-0.560000,-0.420000,-0.420000
45.869262,-0.008296,0.028792,1.006256,-0.560000,-0.280000,-0.420000
45.873328,-0.008784,0.027816,1.006256,-0.700000,-0.420000,-0.420000
45.877394,-0.008296,0.027816,1.005768,-0.700000,-0.420000,-0.420000
45.881461,-0.007808,0.027816,1.005768,-0.560000,-0.420000,-0.420000
45.885527,-0.008296,0.029280,1.005280,-0.560000,-0.280000,-0.420000
45.889593,-0.007808,0.027816,1.007720,-0.560000,-0.420000,-0.420000
45.893659,-0.007808,0.027816,1.006744,-0.560000,-0.420000,-0.280000
45.897726,-0.007808,0.028304,1.007232,-0.560000,-0.420000,-0.280000
45.901792,-0.007808,0.027816,1.007720,-0.560000,-0.280000,-0.420000
45.905858,-0.008296,0.027816,1.006256,-0.560000,-0.420000,-0.420000
45.909924,-0.008784,0.027816,1.007232,-0.560000,-0.420000,-0.420000
45.913991,-0.009760,0.027328,1.005768,-0.560000,-0.420000,-0.420000
45.918057,-0.008784,0.027816,1.005768,-0.700000,-0.420000,-0.280000
45.922123,-0.008784,0.028304,1.006256,-0.560000,-0.420000,-0.420000
45.926189,-0.008784,0.026352,1.007232,-0.700000,-0.560000,-0.420000
45.930256,-0.007808,0.026840,1.005280,-0.560000,-0.420000,-0.280000
45.934322,-0.008296,0.027328,1.005280,-0.560000,-0.420000,-0.280000
45.938388,-0.008784,0.027816,1.005280,-0.560000,-0.420000,-0.420000
45.942454,-0.008296,0.027328,1.006256,-0.560000,-0.420000,-0.420000
45.946521,-0.007808,0.027328,1.006744,-0.560000,-0.420000,-0.420000
45.950587,-0.008784,0.027816,1.007232,-0.700000,-0.420000,-0.420000
45.954653,-0.008784,0.028304,1.006256,-0.560000,-0.420000,-0.420000
45.958719,-0.007320,0.027328,1.006256,-0.700000,-0.420000,-0.420000
45.962786,-0.008296,0.028304,1.006744,-0.560000,-0.420000,-0.420000
45.966852,-0.008296,0.027816,1.006744,-0.700000,-0.420000,-0.420000
45.970918,-0.008296,0.028792,1.006744,-0.560000,-0.420000,-0.420000
45.974984,-0.007808,0.028304,1.007232,-0.700000,-0.420000,-0.420000
45.979051,-0.008296,0.027328,1.007232,-0.560000,-0.420000,-0.420000
45.983117,-0.008784,0.027328,1.005768,-0.560000,-0.420000,-0.420000
45.987183,-0.009272,0.027816,1.007232,-0.560000,-0.420000,-0.420000
45.991249,-0.009272,0.027816,1.005768,-0.700000,-0.420000,-0.280000
45.995316,-0.007808,0.028304,1.005768,-0.560000,-0.420000,-0.280000
45.999382,-0.008296,0.027328,1.006256,-0.560000,-0.420000,-0.420000
46.003448,-0.008296,0.028304,1.005768,-0.560000,-0.420000,-0.420000
46.007514,-0.008784,0.026352,1.007232,-0.560000,-0.420000,-0.420000
46.011581,-0.009272,0.027816,1.008696,-0.700000,-0.420000,-0.280000
46.015647,-0.008784,0.027816,1.006256,-0.560000,-0.420000,-0.420000
46.019713,-0.007808,0.027816,1.006256,-0.700000,-0.420000,-0.420000
46.023779,-0.009272,0.028304,1.005280,-0.560000,-0.280000,-0.420000
46.027846,-0.007808,0.027328,1.006256,-0.560000,-0.420000,-0.280000
46.031912,-0.008296,0.027328,1.006256,-0.700000,-0.420000,-0.420000
46.035978,-0.007808,0.027328,1.006256,-0.560000,-0.420000,-0.420000
46.040044,-0.008784,0.026840,1.006744,-0.560000,-0.420000,-0.420000
46.044111,-0.009272,0.028792,1.006744,-0.420000,-0.420000,-0.420000
46.048177,-0.009272,0.028792,1.006744,-0.560000,-0.420000,-0.420000
46.052243,-0.008296,0.029768,1.005768,-0.560000,-0.420000,-0.420000
46.056309,-0.008784,0.028792,1.004792,-0.560000,-0.280000,-0.420000
46.060376,-0.008784,0.026840,1.006256,-0.560000,-0.420000,-0.420000
46.064442,-0.008296,0.028304,1.006256,-0.560000,-0.560000,-0.420000
46.068508,-0.008784,0.028304,1.005768,-0.700000,-0.280000,-0.420000
46.072574,-0.008784,0.027816,1.005768,-0.560000,-0.420000,-0.420000
46.076641,-0.008296,0.027816,1.006744,-0.560000,-0.420000,-0.420000
46.080707,-0.008784,0.027328,1.005280,-0.700000,-0.420000,-0.420000
46.084773,-0.007808,0.026840,1.007720,-0.560000,-0.420000,-0.420000
46.088839,-0.008784,0.027816,1.007232,-0.560000,-0.420000,-0.280000
46.092906,-0.009272,0.027328,1.006744,-0.560000,-0.420000,-0.420000
46.096972,-0.008784,0.027328,1.007720,-0.560000,-0.280000,-0.420000
46.101038,-0.008784,0.027816,1.006744,-0.420000,-0.280000,-0.280000
46.105105,-0.008296,0.027816,1.006256,-0.700000,-0.280000,-0.420000
46.109171,-0.007808,0.028792,1.007232,-0.560000,-0.420000,-0.420000
46.113237,-0.008784,0.028304,1.005280,-0.560000,-0.420000,-0.280000
46.117303,-0.008296,0.028304,1.006256,-0.700000,-0.420000,-0.420000
46.121370,-0.008296,0.026840,1.006744,-0.700000,-0.420000,-0.280000
46.125436,-0.009272,0.028304,1.007232,-0.560000,-0.560000,-0.420000
46.129502,-0.007808,0.028304,1.006744,-0.560000,-0.280000,-0.420000
46.133568,-0.008296,0.027816,1.006256,-0.560000,-0.420000,-0.420000
46.137635,-0.007808,0.028304,1.006256,-0.560000,-0.420000,-0.420000
46.141701,-0.008784,0.027816,1.006744,-0.700000,-0.280000,-0.420000
46.145767,-0.008296,0.028792,1.007232,-0.560000,-0.420000,-0.420000
46.149833,-0.008784,0.028304,1.004792,-0.420000,-0.420000,-0.280000
46.153900,-0.008296,0.026840,1.006744,-0.560000,-0.420000,-0.420000
46.157966,-0.008296,0.027816,1.006744,-0.560000,-0.420000,-0.420000
46.162032,-0.009760,0.028792,1.007720,-0.700000,-0.420000,-0.420000
46.166098,-0.009272,0.027816,1.005280,-0.560000,-0.420000,-0.420000
46.170165,-0.009272,0.028304,1.006256,-0.560000,-0.420000,-0.420000
46.174231,-0.007808,0.028304,1.004792,-0.560000,-0.420000,-0.420000
46.178297,-0.008296,0.027328,1.005768,-0.560000,-0.420000,-0.420000
46.182363,-0.007808,0.028304,1.007720,-0.700000,-0.420000,-0.420000
46.186430,-0.009272,0.027328,1.007232,-0.700000,-0.420000,-0.420000
46.190496,-0.008296,0.027816,1.006256,-0.700000,-0.560000,-0.280000
46.194562,-0.008296,0.027816,1.007232,-0.560000,-0.420000,-0.420000
46.198628,-0.008784,0.028304,1.007232,-0.560000,-0.420000,-0.420000
46.202695,-0.008784,0.028304,1.007232,-0.560000,-0.420000,-0.420000
46.206761,-0.008784,0.026840,1.006744,-0.560000,-0.420000,-0.420000
46.210827,-0.007808,0.028792,1.006256,-0.560000,-0.420000,-0.280000
46.214893,-0.007808,0.027816,1.006744,-0.560000,-0.420000,-0.420000
46.218960,-0.008784,0.027328,1.005768,-0.560000,-0.420000,-0.420000
46.223026,-0.007808,0.027328,1.007232,-0.560000,-0.420000,-0.420000
46.227092,-0.008296,0.028792,1.007232,-0.560000,-0.420000,-0.420000
46.231158,-0.009272,0.027816,1.007232,-0.420000,-0.420000,-0.420000
46.235225,-0.007320,0.027328,1.005768,-0.560000,-0.420000,-0.420000
46.239291,-0.007320,0.027816,1.006256,-0.700000,-0.420000,-0.420000
46.243357,-0.008296,0.028304,1.006256,-0.560000,-0.420000,-0.420000
46.247423,-0.007320,0.027816,1.006744,-0.560000,-0.420000,-0.420000
46.251490,-0.008296,0.027816,1.007720,-0.560000,-0.560000,-0.280000
46.255556,-0.008296,0.027816,1.006744,-0.420000,-0.420000,-0.280000
46.259622,-0.008296,0.027328,1.007232,-0.560000,-0.420000,-0.420000
46.263688,-0.008296,0.028304,1.006744,-0.700000,-0.420000,-0.420000
46.267755,-0.009272,0.026840,1.006744,-0.560000,-0.420000,-0.420000
46.271821,-0.008296,0.027328,1.003816,-0.700000,-0.560000,-0.420000
46.275887,-0.007808,0.027816,1.007232,-0.560000,-0.420000,-0.420000
46.279953,-0.008296,0.027816,1.006256,-0.560000,-0.420000,-0.420000
46.284020,-0.009272,0.027328,1.005280,-0.560000,-0.420000,-0.420000
46.288086,-0.008784,0.028304,1.007720,-0.560000,-0.560000,-0.420000
46.292152,-0.008784,0.028792,1.008208,-0.560000,-0.560000,-0.420000
46.296218,-0.007808,0.028792,1.006744,-0.700000,-0.420000,-0.420000
46.300285,-0.008296,0.028792,1.007232,-0.560000,-0.420000,-0.420000
46.304351,-0.008784,0.028304,1.006256,-0.560000,-0.420000,-0.420000
46.308417,-0.008784,0.027816,1.006744,-0.560000,-0.420000,-0.420000
46.312483,-0.010248,0.027816,1.005768,-0.560000,-0.420000,-0.420000
46.316550,-0.008784,0.026352,1.005768,-0.560000,-0.420000,-0.420000
46.320616,-0.008296,0.027328,1.006256,-0.560000,-0.420000,-0.420000
46.324682,-0.008784,0.027328,1.006744,-0.560000,-0.420000,-0.420000
46.328748,-0.008784,0.028792,1.005768,-0.700000,-0.420000,-0.420000
46.332815,-0.008784,0.027816,1.006744,-0.560000,-0.420000,-0.280000
46.336881,-0.008784,0.027328,1.006744,-0.700000,-0.420000,-0.420000
46.340947,-0.007808,0.027328,1.005768,-0.560000,-0.560000,-0.420000
46.345014,-0.008784,0.027328,1.006744,-0.700000,-0.560000,-0.420000
46.349080,-0.009272,0.028304,1.007720,-0.560000,-0.420000,-0.420000
46.353146,-0.008784,0.027816,1.006744,-0.560000,-0.420000,-0.420000
46.357212,-0.007320,0.027816,1.005768,-0.560000,-0.420000,-0.420000
46.361279,-0.008296,0.027816,1.006256,-0.700000,-0.560000,-0.420000
46.365345,-0.008296,0.027328,1.006256,-0.560000,-0.420000,-0.420000
46.369411,-0.007808,0.027816,1.006744,-0.560000,-0.420000,-0.280000
46.373477,-0.007320,0.028304,1.006744,-0.560000,-0.420000,-0.420000
46.377544,-0.008296,0.027816,1.006744,-0.700000,-0.420000,-0.280000
46.381610,-0.008784,0.026840,1.007232,-0.700000,-0.420000,-0.420000
46.385676,-0.008784,0.028304,1.007232,-0.420000,-0.420000,-0.420000
46.389742,-0.007808,0.028792,1.006256,-0.560000,-0.420000,-0.420000
46.393809,-0.008296,0.027816,1.006744,-0.560000,-0.420000,-0.420000
46.397875,-0.007808,0.027328,1.006256,-0.560000,-0.280000,-0.420000
46.401941,-0.007808,0.027816,1.006744,-0.560000,-0.420000,-0.420000
46.406007,-0.008784,0.028304,1.007232,-0.560000,-0.420000,-0.420000
46.410074,-0.008296,0.027328,1.006256,-0.560000,-0.560000,-0.420000
46.414140,-0.008784,0.026840,1.007232,-0.700000,-0.560000,-0.420000
46.418206,-0.008784,0.028304,1.006744,-0.560000,-0.420000,-0.420000
46.422272,-0.008784,0.027816,1.006256,-0.560000,-0.420000,-0.280000
46.426339,-0.008784,0.027328,1.005768,-0.560000,-0.420000,-0.420000
46.430405,-0.008784,0.027816,1.006744,-0.700000,-0.560000,-0.420000
46.434471,-0.008784,0.026840,1.006256,-0.560000,-0.560000,-0.280000
46.438537,-0.007808,0.027328,1.008208,-0.700000,-0.420000,-0.280000
46.442604,-0.008296,0.028304,1.006256,-0.560000,-0.420000,-0.420000
46.446670,-0.008296,0.028304,1.007720,-0.700000,-0.420000,-0.420000
46.450736,-0.007808,0.028304,1.007232,-0.700000,-0.420000,-0.420000
46.454802,-0.007808,0.028304,1.007720,-0.560000,-0.280000,-0.280000
46.458869,-0.008784,0.027816,1.006744,-0.560000,-0.420000,-0.420000
46.462935,-0.008296,0.027328,1.006744,-0.560000,-0.420000,-0.420000
46.467001,-0.007808,0.027816,1.006744,-0.560000,-0.420000,-0.420000
46.471067,-0.008296,0.027328,1.006744,-0.560000,-0.420000,-0.420000
46.475134,-0.009272,0.028304,1.006256,-0.560000,-0.420000,-0.280000
46.479200,-0.008784,0.028304,1.005768,-0.420000,-0.420000,-0.280000
46.483266,-0.009272,0.027328,1.005280,-0.420000,-0.560000,-0.420000
46.487332,-0.008784,0.028304,1.005280,-0.560000,-0.420000,-0.420000
46.491399,-0.008296,0.027816,1.006744,-0.560000,-0.420000,-0.280000
46.495465,-0.007808,0.027328,1.006256,-0.700000,-0.420000,-0.420000
46.499531,-0.008784,0.026840,1.006256,-0.560000,-0.420000,-0.420000
46.503597,-0.007808,0.027816,1.005768,-0.560000,-0.420000,-0.280000
46.507664,-0.008784,0.027816,1.006256,-0.560000,-0.560000,-0.420000
46.511730,-0.008296,0.027328,1.005280,-0.560000,-0.420000,-0.280000
46.515796,-0.008296,0.027816,1.006256,-0.700000,-0.280000,-0.280000
46.519862,-0.008784,0.028792,1.006744,-0.560000,-0.420000,-0.420000
46.523929,-0.008296,0.027328,1.007232,-0.560000,-0.420000,-0.420000
46.527995,-0.006832,0.027328,1.006256,-0.560000,-0.420000,-0.280000
46.532061,-0.008784,0.027816,1.006256,-0.700000,-0.420000,-0.280000
46.536127,-0.008296,0.027328,1.006256,-0.700000,-0.420000,-0.420000
46.540194,-0.008296,0.027328,1.005280,-0.560000,-0.420000,-0.420000
46.544260,-0.007320,0.028304,1.007232,-0.560000,-0.420000,-0.280000
46.548326,-0.007320,0.027816,1.005280,-0.560000,-0.420000,-0.280000
46.552392,-0.008784,0.027328,1.006256,-0.560000,-0.280000,-0.420000
46.556459,-0.008784,0.027816,1.005280,-0.560000,-0.420000,-0.420000
46.560525,-0.008784,0.027816,1.007232,-0.700000,-0.420000,-0.420000
46.564591,-0.008296,0.027816,1.006256,-0.700000,-0.420000,-0.280000
46.568657,-0.007808,0.027328,1.006256,-0.700000,-0.420000,-0.420000
46.572724,-0.008784,0.028304,1.006256,-0.700000,-0.420000,-0.280000
46.576790,-0.007808,0.026840,1.007720,-0.560000,-0.420000,-0.420000
46.580856,-0.008784,0.028304,1.006256,-0.560000,-0.420000,-0.280000
46.584923,-0.009760,0.027816,1.005768,-0.700000,-0.420000,-0.280000
46.588989,-0.008296,0.028304,1.005768,-0.560000,-0.420000,-0.420000
46.593055,-0.008296,0.028304,1.006744,-0.700000,-0.420000,-0.280000
46.597121,-0.008784,0.028792,1.006744,-0.560000,-0.560000,-0.280000
46.601188,-0.008784,0.027816,1.006256,-0.700000,-0.420000,-0.420000
46.605254,-0.008296,0.027328,1.007232,-0.560000,-0.420000,-0.420000
46.609320,-0.009272,0.027816,1.007720,-0.560000,-0.420000,-0.420000
46.613386,-0.007808,0.027816,1.005768,-0.560000,-0.420000,-0.420000
46.617453,-0.008784,0.027816,1.007232,-0.420000,-0.420000,-0.420000
46.621519,-0.007808,0.028792,1.004304,-0.560000,-0.420000,-0.420000
46.625585,-0.008296,0.028304,1.006256,-0.560000,-0.560000,-0.420000
46.629651,-0.007320,0.026840,1.004304,-0.560000,-0.420000,-0.420000
46.633718,-0.008296,0.027816,1.005768,-0.560000,-0.420000,-0.420000
46.637784,-0.007320,0.026840,1.006256,-0.700000,-0.420000,-0.420000
46.641850,-0.008296,0.027816,1.006256,-0.560000,-0.420000,-0.420000
46.645916,-0.009272,0.027328,1.005280,-0.560000,-0.280000,-0.420000
46.649983,-0.007808,0.027816,1.006256,-0.560000,-0.420000,-0.420000
46.654049,-0.007808,0.026840,1.006744,-0.560000,-0.420000,-0.420000
46.658115,-0.008296,0.028792,1.006256,-0.560000,-0.420000,-0.420000
46.662181,-0.008296,0.027328,1.006744,-0.560000,-0.420000,-0.420000
46.666248,-0.008296,0.027328,1.005768,-0.560000,-0.420000,-0.280000
46.670314,-0.008296,0.027328,1.007232,-0.560000,-0.420000,-0.280000
46.674380,-0.007320,0.027816,1.006744,-0.560000,-0.420000,-0.280000
46.678446,-0.008296,0.027816,1.006744,-0.560000,-0.420000,-0.420000
46.682513,-0.008784,0.027816,1.005768,-0.560000,-0.560000,-0.420000
46.686579,-0.008296,0.028304,1.007720,-0.560000,-0.420000,-0.420000
46.690645,-0.007808,0.027816,1.006744,-0.560000,-0.420000,-0.420000
46.694711,-0.007808,0.027328,1.006744,-0.700000,-0.420000,-0.420000
46.698778,-0.007808,0.027328,1.006256,-0.560000,-0.560000,-0.420000
46.702844,-0.008296,0.026840,1.006256,-0.560000,-0.560000,-0.420000
46.706910,-0.008296,0.027328,1.005280,-0.560000,-0.420000,-0.420000
46.710976,-0.009272,0.028304,1.006256,-0.560000,-0.420000,-0.420000
46.715043,-0.007808,0.028304,1.005280,-0.560000,-0.420000,-0.280000
46.719109,-0.008784,0.028304,1.006256,-0.700000,-0.420000,-0.420000
46.723175,-0.008784,0.026840,1.006744,-0.700000,-0.420000,-0.420000
46.727241,-0.008784,0.028304,1.005768,-0.560000,-0.420000,-0.420000
46.731308,-0.007320,0.027816,1.007232,-0.560000,-0.420000,-0.420000
46.735374,-0.008296,0.027816,1.007232,-0.700000,-0.420000,-0.420000
46.739440,-0.008296,0.028304,1.007720,-0.700000,-0.420000,-0.420000
46.743506,-0.007808,0.027328,1.006744,-0.560000,-0.420000,-0.280000
46.747573,-0.008296,0.028304,1.006256,-0.560000,-0.420000,-0.420000
46.751639,-0.008296,0.027328,1.005768,-0.560000,-0.420000,-0.280000
46.755705,-0.007808,0.027816,1.005768,-0.560000,-0.420000,-0.420000
46.759771,-0.009272,0.028304,1.007232,-0.700000,-0.560000,-0.420000
46.763838,-0.009272,0.027816,1.006744,-0.560000,-0.560000,-0.420000
46.767904,-0.007808,0.028304,1.006744,-0.560000,-0.420000,-0.420000
46.771970,-0.008784,0.027328,1.006256,-0.560000,-0.420000,-0.420000
46.776036,-0.008296,0.027328,1.007720,-0.560000,-0.420000,-0.420000
46.780103,-0.008296,0.027328,1.005280,-0.560000,-0.420000,-0.420000
46.784169,-0.008784,0.027328,1.005280,-0.560000,-0.560000,-0.420000
46.788235,-0.008296,0.027816,1.004792,-0.560000,-0.420000,-0.420000
46.792301,-0.007808,0.028304,1.006744,-0.560000,-0.420000,-0.420000
46.796368,-0.008296,0.027816,1.006744,-0.560000,-0.420000,-0.420000
46.800434,-0.008784,0.028304,1.007232,-0.700000,-0.420000,-0.420000
46.804500,-0.008296,0.028304,1.006256,-0.560000,-0.420000,-0.420000
46.808566,-0.007320,0.027328,1.006744,-0.560000,-0.560000,-0.280000
46.812633,-0.007808,0.027816,1.006256,-0.560000,-0.560000,-0.420000
46.816699,-0.007320,0.027328,1.005768,-0.700000,-0.420000,-0.420000
46.820765,-0.008296,0.027816,1.008208,-0.560000,-0.420000,-0.420000
46.824831,-0.008784,0.026840,1.008208,-0.560000,-0.560000,-0.280000
46.828898,-0.007808,0.027328,1.007720,-0.560000,-0.420000,-0.280000
46.832964,-0.008296,0.027328,1.007232,-0.560000,-0.420000,-0.420000
46.837030,-0.007808,0.028304,1.005768,-0.560000,-0.420000,-0.280000
46.841097,-0.009272,0.027328,1.006744,-0.700000,-0.420000,-0.280000
46.845163,-0.008296,0.027328,1.007720,-0.560000,-0.420000,-0.280000
46.849229,-0.008784,0.026840,1.007232,-0.560000,-0.420000,-0.280000
46.853295,-0.007808,0.026840,1.006256,-0.560000,-0.420000,-0.420000
46.857362,-0.009272,0.028792,1.006744,-0.700000,-0.420000,-0.420000
46.861428,-0.008296,0.028304,1.006744,-0.560000,-0.420000,-0.420000
46.865494,-0.008296,0.027816,1.005768,-0.700000,-0.420000,-0.420000
46.869560,-0.009272,0.028792,1.006744,-0.560000,-0.420000,-0.420000
46.873627,-0.008784,0.027816,1.006744,-0.700000,-0.420000,-0.280000
46.877693,-0.008296,0.027816,1.006256,-0.560000,-0.420000,-0.420000
46.881759,-0.008784,0.026840,1.005768,-0.560000,-0.420000,-0.420000
46.885825,-0.007808,0.026840,1.006256,-0.560000,-0.420000,-0.280000
46.889892,-0.007808,0.027816,1.005768,-0.560000,-0.280000,-0.420000
46.893958,-0.008296,0.026352,1.007232,-0.420000,-0.420000,-0.420000
46.898024,-0.007808,0.028304,1.007720,-0.420000,-0.420000,-0.420000
46.902090,-0.008296,0.026840,1.007720,-0.560000,-0.420000,-0.420000
46.906157,-0.008296,0.027816,1.006256,-0.560000,-0.420000,-0.420000
46.910223,-0.008296,0.027328,1.007232,-0.560000,-0.420000,-0.420000
46.914289,-0.007808,0.027816,1.007232,-0.560000,-0.420000,-0.420000
46.918355,-0.009272,0.028304,1.006744,-0.700000,-0.280000,-0.420000
46.922422,-0.008296,0.026840,1.007232,-0.560000,-0.560000,-0.280000
46.926488,-0.008296,0.027816,1.006744,-0.700000,-0.420000,-0.420000
46.930554,-0.008296,0.028304,1.005280,-0.560000,-0.420000,-0.420000
46.934620,-0.008784,0.026840,1.007232,-0.560000,-0.280000,-0.420000
46.938687,-0.008784,0.027816,1.007232,-0.560000,-0.560000,-0.280000
46.942753,-0.007808,0.027816,1.006744,-0.560000,-0.420000,-0.420000
46.946819,-0.007808,0.027328,1.007720,-0.560000,-0.280000,-0.420000
46.950885,-0.007320,0.028792,1.006256,-0.560000,-0.420000,-0.420000
46.954952,-0.008296,0.027328,1.005768,-0.560000,-0.420000,-0.420000
46.959018,-0.009760,0.028792,1.008208,-0.560000,-0.420000,-0.420000
46.963084,-0.008296,0.027816,1.006744,-0.560000,-0.420000,-0.420000
46.967150,-0.008784,0.026352,1.006744,-0.560000,-0.560000,-0.420000
46.971217,-0.007808,0.028792,1.008208,-0.700000,-0.420000,-0.420000
46.975283,-0.008296,0.027328,1.006256,-0.560000,-0.420000,-0.420000
46.979349,-0.007808,0.029280,1.006256,-0.700000,-0.420000,-0.420000
46.983415,-0.007808,0.027816,1.007720,-0.560000,-0.420000,-0.420000
46.987482,-0.008784,0.028304,1.006256,-0.700000,-0.420000,-0.420000
46.991548,-0.008296,0.027328,1.006256,-0.560000,-0.420000,-0.420000
46.995614,-0.008784,0.027816,1.006744,-0.700000,-0.560000,-0.420000
46.999680,-0.008784,0.027816,1.004792,-0.560000,-0.560000,-0.420000
47.003747,-0.008296,0.027816,1.006744,-0.700000,-0.420000,-0.420000
47.007813,-0.008296,0.027816,1.007720,-0.700000,-0.560000,-0.420000
47.011879,-0.007808,0.028304,1.007232,-0.700000,-0.420000,-0.420000
47.015945,-0.008784,0.027328,1.006256,-0.560000,-0.420000,-0.420000
47.020012,-0.009272,0.028304,1.006744,-0.560000,-0.420000,-0.420000
47.024078,-0.008296,0.026840,1.006256,-0.700000,-0.420000,-0.420000
47.028144,-0.009272,0.028792,1.005768,-0.560000,-0.280000,-0.420000
47.032210,-0.009272,0.027816,1.006256,-0.560000,-0.420000,-0.420000
47.036277,-0.008784,0.028304,1.006744,-0.560000,-0.420000,-0.420000
47.040343,-0.008296,0.027816,1.007232,-0.560000,-0.420000,-0.420000
47.044409,-0.007320,0.029280,1.006744,-0.560000,-0.420000,-0.280000
47.048475,-0.008296,0.027816,1.005280,-0.560000,-0.420000,-0.280000
47.052542,-0.007808,0.028304,1.006256,-0.700000,-0.420000,-0.420000
47.056608,-0.008784,0.028792,1.007232,-0.560000,-0.420000,-0.420000
47.060674,-0.008784,0.028304,1.008208,-0.560000,-0.420000,-0.420000
47.064740,-0.008784,0.028304,1.006256,-0.420000,-0.280000,-0.420000
47.068807,-0.007320,0.028792,1.007232,-0.700000,-0.280000,-0.420000
47.072873,-0.007320,0.028304,1.006744,-0.420000,-0.420000,-0.420000
47.076939,-0.008296,0.027816,1.005768,-0.560000,-0.420000,-0.280000
47.081005,-0.008784,0.027328,1.006744,-0.560000,-0.420000,-0.420000
47.085072,-0.008784,0.027816,1.006744,-0.560000,-0.280000,-0.420000
47.089138,-0.008296,0.028304,1.005768,-0.560000,-0.280000,-0.420000
47.093204,-0.008296,0.028304,1.006256,-0.700000,-0.420000,-0.420000
47.097271,-0.008296,0.026840,1.006256,-0.560000,-0.420000,-0.420000
47.101337,-0.008296,0.027816,1.007232,-0.560000,-0.420000,-0.420000
47.105403,-0.008784,0.027816,1.006744,-0.560000,-0.420000,-0.420000
47.109469,-0.009272,0.028304,1.004792,-0.560000,-0.560000,-0.420000
47.113536,-0.008296,0.027328,1.005768,-0.420000,-0.420000,-0.280000
47.117602,-0.007808,0.027328,1.006256,-0.560000,-0.280000,-0.420000
47.121668,-0.009272,0.027816,1.007232,-0.700000,-0.420000,-0.420000
47.125734,-0.008296,0.027816,1.007232,-0.560000,-0.420000,-0.420000
47.129801,-0.008784,0.027816,1.005768,-0.560000,-0.420000,-0.420000
47.133867,-0.008296,0.027328,1.005768,-0.560000,-0.560000,-0.420000
47.137933,-0.007320,0.028304,1.007232,-0.560000,-0.420000,-0.420000
47.141999,-0.007808,0.027328,1.005280,-0.560000,-0.420000,-0.420000
47.146066,-0.008784,0.028304,1.007720,-0.560000,-0.420000,-0.420000
47.150132,-0.009272,0.027328,1.008696,-0.560000,-0.560000,-0.280000
47.154198,-0.008784,0.028304,1.005280,-0.700000,-0.420000,-0.420000
47.158264,-0.008784,0.027816,1.007720,-0.560000,-0.420000,-0.420000
47.162331,-0.008296,0.027816,1.006256,-0.560000,-0.420000,-0.420000
47.166397,-0.008784,0.028304,1.006256,-0.560000,-0.560000,-0.280000
47.170463,-0.008296,0.027816,1.006256,-0.700000,-0.420000,-0.280000
47.174529,-0.007808,0.027816,1.005280,-0.560000,-0.420000,-0.420000
47.178596,-0.007808,0.027816,1.006744,-0.420000,-0.420000,-0.420000
47.182662,-0.009272,0.027328,1.005768,-0.560000,-0.420000,-0.280000
47.186728,-0.008784,0.027816,1.006744,-0.560000,-0.420000,-0.280000
47.190794,-0.007808,0.028304,1.006256,-0.560000,-0.420000,-0.280000
47.194861,-0.006832,0.027328,1.006744,-0.560000,-0.420000,-0.420000
47.198927,-0.007808,0.026840,1.007232,-0.560000,-0.420000,-0.420000
47.202993,-0.007808,0.027816,1.005280,-0.700000,-0.420000,-0.420000
47.207059,-0.008784,0.027328,1.005768,-0.560000,-0.420000,-0.420000
47.211126,-0.008296,0.028792,1.005768,-0.560000,-0.420000,-0.420000
47.215192,-0.007808,0.027816,1.005768,-0.560000,-0.420000,-0.420000
47.219258,-0.009760,0.028304,1.006744,-0.560000,-0.280000,-0.420000
47.223324,-0.008784,0.028304,1.007720,-0.560000,-0.420000,-0.280000
47.227391,-0.007808,0.026840,1.004792,-0.560000,-0.420000,-0.420000
47.231457,-0.007808,0.027328,1.006744,-0.700000,-0.420000,-0.280000
47.235523,-0.008296,0.027328,1.007720,-0.700000,-0.420000,-0.420000
47.239589,-0.008296,0.026840,1.005768,-0.560000,-0.420000,-0.420000
47.243656,-0.008296,0.027816,1.005280,-0.560000,-0.560000,-0.420000
47.247722,-0.007320,0.027328,1.006256,-0.560000,-0.420000,-0.420000
47.251788,-0.009272,0.027816,1.005768,-0.560000,-0.420000,-0.420000
47.255854,-0.007808,0.027816,1.006256,-0.560000,-0.420000,-0.420000
47.259921,-0.007808,0.027328,1.006256,-0.560000,-0.420000,-0.280000
47.263987,-0.008296,0.027816,1.007232,-0.560000,-0.420000,-0.280000
47.268053,-0.008784,0.026840,1.007232,-0.700000,-0.420000,-0.420000
47.272119,-0.007808,0.028304,1.006256,-0.700000,-0.560000,-0.420000
47.276186,-0.008784,0.028792,1.006744,-0.700000,-0.420000,-0.420000
47.280252,-0.008296,0.028304,1.006744,-0.700000,-0.420000,-0.420000
47.284318,-0.007808,0.028304,1.005768,-0.560000,-0.420000,-0.420000
47.288384,-0.008296,0.028304,1.005280,-0.560000,-0.560000,-0.420000
47.292451,-0.008296,0.027328,1.006744,-0.560000,-0.420000,-0.280000
47.296517,-0.007808,0.027816,1.006256,-0.560000,-0.420000,-0.420000
47.300583,-0.008784,0.027816,1.006744,-0.560000,-0.280000,-0.420000
47.304649,-0.008784,0.028304,1.007720,-0.560000,-0.420000,-0.420000
47.308716,-0.007808,0.028792,1.007232,-0.560000,-0.280000,-0.420000
47.312782,-0.009272,0.027816,1.005768,-0.560000,-0.420000,-0.420000
47.316848,-0.008784,0.027328,1.006256,-0.560000,-0.420000,-0.420000
47.320914,-0.008296,0.027816,1.006256,-0.700000,-0.560000,-0.420000
47.324981,-0.008296,0.028304,1.006744,-0.560000,-0.420000,-0.420000
47.329047,-0.007320,0.026352,1.006744,-0.560000,-0.420000,-0.420000
47.333113,-0.008784,0.028304,1.006256,-0.560000,-0.560000,-0.280000
47.337179,-0.008296,0.028792,1.006744,-0.700000,-0.560000,-0.420000
47.341246,-0.009272,0.027328,1.007232,-0.560000,-0.420000,-0.420000
47.345312,-0.008296,0.027328,1.007232,-0.700000,-0.420000,-0.280000
47.349378,-0.009272,0.028304,1.005280,-0.560000,-0.420000,-0.420000
47.353445,-0.007320,0.027328,1.006744,-0.560000,-0.420000,-0.420000
47.357511,-0.008784,0.028304,1.006256,-0.560000,-0.420000,-0.420000
47.361577,-0.008296,0.027328,1.006256,-0.560000,-0.420000,-0.420000
47.365643,-0.008784,0.027816,1.005768,-0.560000,-0.420000,-0.420000
47.369710,-0.008296,0.027816,1.006744,-0.560000,-0.560000,-0.280000
47.373776,-0.008296,0.027816,1.007720,-0.700000,-0.420000,-0.420000
47.377842,-0.008784,0.027816,1.006744,-0.700000,-0.420000,-0.280000
47.381908,-0.007808,0.027328,1.007232,-0.560000,-0.420000,-0.420000
47.385975,-0.008784,0.027328,1.007232,-0.700000,-0.420000,-0.420000
47.390041,-0.008784,0.027328,1.006256,-0.560000,-0.420000,-0.420000
47.394107,-0.008296,0.027816,1.005768,-0.700000,-0.420000,-0.420000
47.398173,-0.008784,0.027816,1.007232,-0.560000,-0.420000,-0.280000
47.402240,-0.008784,0.027816,1.006256,-0.560000,-0.420000,-0.420000
47.406306,-0.007808,0.027816,1.006256,-0.560000,-0.420000,-0.420000
47.410372,-0.008296,0.028792,1.006256,-0.700000,-0.420000,-0.420000
47.414438,-0.008296,0.028304,1.005768,-0.560000,-0.420000,-0.420000
47.418505,-0.008784,0.027816,1.006744,-0.560000,-0.420000,-0.420000
47.422571,-0.008296,0.028304,1.005768,-0.560000,-0.420000,-0.420000
47.426637,-0.008784,0.028304,1.005768,-0.560000,-0.420000,-0.420000
47.430703,-0.007808,0.028792,1.007232,-0.560000,-0.560000,-0.420000
47.434770,-0.008784,0.027328,1.006256,-0.560000,-0.420000,-0.420000
47.438836,-0.007320,0.027328,1.006256,-0.560000,-0.420000,-0.420000
47.442902,-0.008784,0.027816,1.006256,-0.560000,-0.420000,-0.420000
47.446968,-0.009760,0.028304,1.006256,-0.560000,-0.420000,-0.420000
47.451035,-0.007808,0.028304,1.006256,-0.560000,-0.420000,-0.280000
47.455101,-0.008784,0.028304,1.006744,-0.420000,-0.420000,-0.280000
47.459167,-0.009272,0.027816,1.006744,-0.700000,-0.420000,-0.420000
47.463233,-0.008296,0.028304,1.006744,-0.560000,-0.420000,-0.420000
47.467300,-0.007808,0.028792,1.007232,-0.560000,-0.420000,-0.420000
47.471366,-0.008784,0.027816,1.007720,-0.560000,-0.420000,-0.420000
47.475432,-0.008784,0.026840,1.007232,-0.420000,-0.420000,-0.420000
47.479498,-0.008296,0.028304,1.006256,-0.560000,-0.280000,-0.420000
47.483565,-0.007808,0.027328,1.007232,-0.560000,-0.420000,-0.420000
47.487631,-0.008296,0.027328,1.007232,-0.560000,-0.420000,-0.420000
47.491697,-0.008784,0.028304,1.007232,-0.420000,-0.420000,-0.420000
47.495763,-0.008296,0.026840,1.006256,-0.700000,-0.420000,-0.420000
47.499830,-0.008296,0.027328,1.006744,-0.700000,-0.420000,-0.280000
47.503896,-0.008784,0.027816,1.006256,-0.560000,-0.420000,-0.420000
47.507962,-0.008296,0.027816,1.004792,-0.700000,-0.280000,-0.280000
47.512028,-0.009272,0.027328,1.004792,-0.560000,-0.280000,-0.420000
47.516095,-0.009272,0.027328,1.006744,-0.560000,-0.560000,-0.420000
47.520161,-0.007808,0.028304,1.005768,-0.700000,-0.420000,-0.420000
47.524227,-0.007808,0.028304,1.006744,-0.560000,-0.420000,-0.420000
47.528293,-0.008296,0.027816,1.007232,-0.560000,-0.420000,-0.420000
47.532360,-0.008296,0.026840,1.006256,-0.560000,-0.560000,-0.280000
47.536426,-0.007808,0.027328,1.007232,-0.560000,-0.420000,-0.420000
