Time [s],lsm6dsv16x_acc_x [g],lsm6dsv16x_acc_y [g],lsm6dsv16x_acc_z [g],lsm6dsv16x_gyro_x [dps],lsm6dsv16x_gyro_y [dps],lsm6dsv16x_gyro_z [dps]
1.362669,-0.039040,0.013664,1.010648,0.840000,0.560000,-0.840000
1.370773,-0.038552,0.013176,1.010160,0.840000,0.560000,-0.700000
1.378878,-0.038552,0.013664,1.010160,0.840000,0.560000,-0.840000
1.386982,-0.038552,0.012688,1.009672,0.840000,0.560000,-0.840000
1.395086,-0.038064,0.013664,1.010160,0.840000,0.560000,-0.840000
1.403190,-0.039040,0.013176,1.010160,0.840000,0.560000,-0.840000
1.411294,-0.040016,0.013664,1.010648,0.840000,0.420000,-0.840000
1.419398,-0.039528,0.013176,1.009672,0.840000,0.560000,-0.840000
1.427502,-0.039528,0.013176,1.010160,0.840000,0.560000,-0.840000
1.435607,-0.039040,0.013176,1.011136,0.840000,0.560000,-0.840000
1.443711,-0.038552,0.012688,1.010160,0.700000,0.560000,-0.840000
1.451815,-0.039040,0.013176,1.010648,0.700000,0.560000,-0.840000
1.459919,-0.038552,0.013176,1.010160,0.840000,0.560000,-0.840000
1.468023,-0.038552,0.013664,1.009672,0.980000,0.560000,-0.840000
1.476127,-0.039528,0.013176,1.010648,0.840000,0.700000,-0.840000
1.484231,-0.038552,0.013176,1.011624,0.840000,0.560000,-0.840000
1.492335,-0.038552,0.013664,1.009672,0.840000,0.560000,-0.840000
1.500440,-0.038552,0.013176,1.011136,0.840000,0.560000,-0.840000
1.508544,-0.039040,0.012200,1.010160,0.840000,0.560000,-0.840000
1.516648,-0.038552,0.013664,1.011624,0.840000,0.700000,-0.840000
1.524752,-0.038552,0.014152,1.010160,0.840000,0.560000,-0.840000
1.532856,-0.039040,0.012688,1.010160,0.840000,0.560000,-0.840000
1.540960,-0.039040,0.013176,1.010160,0.840000,0.560000,-0.840000
1.549064,-0.039040,0.013664,1.010648,0.840000,0.700000,-0.840000
1.557169,-0.039040,0.012688,1.010160,0.700000,0.560000,-0.840000
1.565273,-0.038064,0.013176,1.008696,0.840000,0.560000,-0.840000
1.573377,-0.037576,0.012688,1.009672,0.700000,0.560000,-0.840000
1.581481,-0.039040,0.013664,1.009672,0.840000,0.560000,-0.840000
1.589585,-0.038552,0.013176,1.010160,0.840000,0.560000,-0.840000
1.597689,-0.038552,0.013176,1.010160,0.980000,0.560000,-0.840000
1.605793,-0.039040,0.013176,1.009672,0.840000,0.560000,-0.840000
1.613897,-0.038552,0.013176,1.010160,0.840000,0.560000,-0.840000
1.622002,-0.039040,0.013664,1.011136,0.840000,0.560000,-0.840000
1.630106,-0.039528,0.013176,1.010648,0.840000,0.560000,-0.840000
1.638210,-0.039528,0.012688,1.009672,0.840000,0.560000,-0.840000
1.646314,-0.038552,0.013176,1.009672,0.840000,0.560000,-0.840000
1.654418,-0.038552,0.013176,1.009672,0.840000,0.560000,-0.840000
1.662522,-0.039528,0.012200,1.010160,0.840000,0.560000,-0.840000
1.670626,-0.039040,0.013664,1.010160,0.840000,0.560000,-0.840000
1.678731,-0.039040,0.013176,1.008208,0.840000,0.560000,-0.840000
1.686835,-0.040016,0.013664,1.008208,0.840000,0.560000,-0.840000
1.694939,-0.038552,0.013176,1.009672,0.840000,0.560000,-0.840000
1.703043,-0.039040,0.013664,1.009184,0.840000,0.560000,-0.840000
1.711147,-0.039040,0.013176,1.009672,0.840000,0.560000,-0.840000
1.719251,-0.038552,0.013176,1.010648,0.840000,0.560000,-0.840000
1.727355,-0.039040,0.012688,1.010160,0.840000,0.560000,-0.840000
1.735459,-0.039040,0.012200,1.009672,0.980000,0.560000,-0.840000
1.743564,-0.039040,0.013664,1.009184,0.840000,0.560000,-0.840000
1.751668,-0.039040,0.012688,1.009672,0.840000,0.560000,-0.840000
1.759772,-0.038064,0.013664,1.009672,0.840000,0.560000,-0.840000
1.767876,-0.039528,0.012200,1.010160,0.840000,0.560000,-0.840000
1.775980,-0.039040,0.013664,1.010160,0.840000,0.560000,-0.840000
1.784084,-0.038552,0.014152,1.009672,0.840000,0.560000,-0.840000
1.792188,-0.039040,0.013664,1.010160,0.840000,0.560000,-0.840000
1.800293,-0.039040,0.013176,1.010648,0.840000,0.560000,-0.840000
1.808397,-0.039040,0.013664,1.009672,0.840000,0.560000,-0.840000
1.816501,-0.038552,0.013664,1.009672,0.980000,0.700000,-0.840000
1.824605,-0.038552,0.013664,1.009672,0.840000,0.560000,-0.840000
1.832709,-0.039528,0.013664,1.010160,0.840000,0.560000,-0.840000
1.840813,-0.038552,0.013176,1.009672,0.840000,0.560000,-0.840000
1.848917,-0.039040,0.013664,1.010160,0.840000,0.560000,-0.840000
1.857021,-0.038552,0.013664,1.010648,0.840000,0.560000,-0.840000
1.865126,-0.039528,0.013664,1.010160,0.840000,0.560000,-0.840000
1.873230,-0.039040,0.013664,1.009672,0.840000,0.560000,-0.840000
1.881334,-0.039528,0.013176,1.010160,0.840000,0.560000,-0.840000
1.889438,-0.039528,0.012688,1.010648,0.700000,0.420000,-0.840000
1.897542,-0.038552,0.012688,1.009672,0.700000,0.560000,-0.840000
1.905646,-0.039040,0.012688,1.010160,0.840000,0.560000,-0.840000
1.913750,-0.038552,0.013176,1.009672,0.840000,0.560000,-0.840000
1.921855,-0.039040,0.014152,1.010648,0.840000,0.560000,-0.840000
1.929959,-0.039040,0.013664,1.009672,0.840000,0.560000,-0.840000
1.938063,-0.039528,0.013176,1.010160,0.980000,0.560000,-0.840000
1.946167,-0.039528,0.014152,1.009184,0.840000,0.560000,-0.840000
1.954271,-0.039040,0.013664,1.009672,0.980000,0.560000,-0.840000
1.962375,-0.039040,0.012688,1.009184,0.840000,0.560000,-0.840000
1.970479,-0.038552,0.013176,1.010160,0.840000,0.700000,-0.840000
1.978583,-0.039528,0.013176,1.010160,0.840000,0.700000,-0.840000
1.986688,-0.038552,0.013176,1.010160,0.840000,0.560000,-0.840000
1.994792,-0.039040,0.013176,1.009184,0.840000,0.560000,-0.840000
2.002896,-0.039040,0.013176,1.011136,0.840000,0.560000,-0.840000
2.011000,-0.038064,0.013176,1.009672,0.840000,0.560000,-0.840000
2.019104,-0.038064,0.013176,1.009672,0.840000,0.560000,-0.840000
2.027208,-0.039528,0.013664,1.010160,0.840000,0.560000,-0.840000
2.035312,-0.039040,0.013664,1.009672,0.840000,0.560000,-0.840000
2.043417,-0.039040,0.013664,1.009672,0.840000,0.560000,-0.840000
2.051521,-0.038552,0.012688,1.010160,0.840000,0.560000,-0.840000
2.059625,-0.039040,0.013664,1.010648,0.840000,0.560000,-0.840000
2.067729,-0.040016,0.013176,1.008696,0.840000,0.560000,-0.840000
2.075833,-0.039040,0.012688,1.009672,0.980000,0.560000,-0.840000
2.083937,-0.039040,0.013176,1.010160,0.840000,0.560000,-0.840000
2.092041,-0.038552,0.013176,1.010160,0.840000,0.560000,-0.840000
2.100145,-0.039040,0.013664,1.010160,0.840000,0.560000,-0.840000
2.108250,-0.039040,0.013664,1.009184,0.840000,0.560000,-0.840000
2.116354,-0.039040,0.012688,1.010160,0.840000,0.560000,-0.840000
2.124458,-0.039040,0.014152,1.010160,0.840000,0.560000,-0.840000
2.132562,-0.039528,0.013176,1.009184,0.840000,0.560000,-0.840000
2.140666,-0.039040,0.013664,1.010648,0.840000,0.560000,-0.840000
2.148770,-0.039040,0.013176,1.009672,0.840000,0.560000,-0.840000
2.156874,-0.038552,0.012688,1.009672,0.840000,0.560000,-0.840000
2.164979,-0.039040,0.013176,1.009672,0.700000,0.560000,-0.840000
2.173083,-0.038552,0.013176,1.010648,0.840000,0.560000,-0.840000
2.181187,-0.039040,0.012688,1.010648,0.840000,0.560000,-0.840000
2.189291,-0.039040,0.012688,1.010648,0.840000,0.560000,-0.840000
2.197395,-0.038552,0.013176,1.010160,0.840000,0.560000,-0.840000
2.205499,-0.039040,0.013176,1.010648,0.840000,0.560000,-0.840000
2.213603,-0.038552,0.013664,1.009184,0.700000,0.560000,-0.840000
2.221707,-0.038552,0.014152,1.010648,0.840000,0.560000,-0.840000
2.229812,-0.039528,0.013176,1.011136,0.840000,0.560000,-0.840000
2.237916,-0.040016,0.012688,1.009672,0.840000,0.560000,-0.840000
2.246020,-0.039040,0.013176,1.008696,0.840000,0.560000,-0.840000
2.254124,-0.039528,0.013664,1.010160,0.840000,0.560000,-0.840000
2.262228,-0.039040,0.013176,1.009184,0.840000,0.560000,-0.840000
2.270332,-0.038552,0.013176,1.010648,0.840000,0.560000,-0.840000
2.278436,-0.038552,0.013176,1.010648,0.840000,0.560000,-0.840000
2.286541,-0.039040,0.013664,1.009672,0.840000,0.560000,-0.840000
2.294645,-0.039528,0.014152,1.010160,0.840000,0.560000,-0.840000
2.302749,-0.039528,0.012688,1.010160,0.840000,0.560000,-0.840000
2.310853,-0.039040,0.013664,1.009184,0.840000,0.560000,-0.840000
2.318957,-0.039528,0.013664,1.010648,0.840000,0.560000,-0.840000
2.327061,-0.038552,0.013176,1.009672,0.840000,0.560000,-0.840000
2.335165,-0.038064,0.013664,1.010160,0.840000,0.560000,-0.840000
2.343253,-0.038064,0.013664,1.010648,0.980000,0.560000,-0.840000
2.351340,-0.039040,0.013176,1.009672,0.840000,0.560000,-0.840000
2.359428,-0.039040,0.013176,1.009184,0.840000,0.560000,-0.840000
2.367516,-0.039040,0.012688,1.010160,0.840000,0.560000,-0.840000
2.375603,-0.038552,0.013176,1.010160,0.840000,0.560000,-0.840000
2.383691,-0.038552,0.012688,1.010648,0.840000,0.560000,-0.840000
2.391778,-0.038552,0.012688,1.011136,0.840000,0.560000,-0.840000
2.399866,-0.039040,0.013176,1.010160,0.840000,0.560000,-0.840000
2.407953,-0.039528,0.013664,1.010160,0.840000,0.420000,-0.840000
2.416041,-0.039040,0.013176,1.009672,0.840000,0.560000,-0.840000
2.424128,-0.039040,0.012688,1.009672,0.840000,0.560000,-0.840000
2.432216,-0.038552,0.013664,1.010160,0.840000,0.560000,-0.840000
2.440304,-0.039528,0.013176,1.009672,0.840000,0.420000,-0.840000
2.448391,-0.038552,0.012688,1.010160,0.840000,0.700000,-0.840000
2.456479,-0.038552,0.013176,1.011136,0.840000,0.560000,-0.840000
2.464566,-0.039040,0.013176,1.010160,0.840000,0.560000,-0.840000
2.472654,-0.039040,0.013176,1.010160,0.840000,0.560000,-0.840000
2.480741,-0.039528,0.013664,1.009672,0.840000,0.560000,-0.840000
2.488829,-0.038552,0.014152,1.010160,0.840000,0.560000,-0.840000
2.496916,-0.039040,0.012688,1.010648,0.840000,0.560000,-0.840000
2.505004,-0.038552,0.013664,1.009672,0.840000,0.560000,-0.840000
2.513092,-0.038552,0.013664,1.010160,0.840000,0.560000,-0.840000
2.521179,-0.038064,0.013664,1.009184,0.840000,0.560000,-0.840000
2.529267,-0.039040,0.012688,1.009672,0.840000,0.560000,-0.840000
2.537354,-0.039040,0.013664,1.010648,0.840000,0.560000,-0.840000
2.545442,-0.039040,0.013176,1.010648,0.840000,0.560000,-0.840000
2.553529,-0.039528,0.013664,1.010160,0.980000,0.560000,-0.840000
2.561617,-0.038552,0.013176,1.010160,0.840000,0.560000,-0.840000
2.569704,-0.039040,0.013176,1.010160,0.840000,0.560000,-0.840000
2.577792,-0.039528,0.013664,1.010160,0.700000,0.420000,-0.840000
2.585880,-0.039528,0.013176,1.009184,0.840000,0.560000,-0.840000
2.593967,-0.040016,0.013664,1.010648,0.840000,0.560000,-0.840000
2.602055,-0.039528,0.013176,1.010160,0.840000,0.560000,-0.840000
2.610142,-0.039040,0.013176,1.009672,0.840000,0.560000,-0.840000
2.618230,-0.039040,0.013176,1.009672,0.840000,0.420000,-0.840000
2.626317,-0.039040,0.013176,1.010160,0.840000,0.560000,-0.840000
2.634405,-0.039040,0.013176,1.010648,0.700000,0.560000,-0.840000
2.642492,-0.039040,0.013176,1.010648,0.840000,0.560000,-0.840000
2.650580,-0.038552,0.013176,1.010160,0.840000,0.560000,-0.840000
2.658668,-0.039040,0.013664,1.009672,0.840000,0.560000,-0.840000
2.666755,-0.038552,0.012688,1.011136,0.840000,0.560000,-0.840000
2.674843,-0.039040,0.013176,1.009672,0.840000,0.560000,-0.840000
2.682930,-0.039040,0.013176,1.009184,0.840000,0.560000,-0.840000
2.691018,-0.039040,0.013664,1.009672,0.700000,0.560000,-0.840000
2.699105,-0.038552,0.013176,1.010160,0.840000,0.560000,-0.840000
2.707193,-0.039040,0.014152,1.011624,0.840000,0.560000,-0.840000
2.715280,-0.039040,0.014152,1.010648,0.840000,0.560000,-0.840000
2.723368,-0.039040,0.013176,1.009672,0.840000,0.560000,-0.840000
2.731456,-0.039040,0.013664,1.008696,0.840000,0.560000,-0.840000
2.739543,-0.039040,0.014152,1.010648,0.840000,0.560000,-0.840000
2.747631,-0.039040,0.013176,1.009672,0.840000,0.560000,-0.840000
2.755718,-0.038064,0.013664,1.009672,0.840000,0.560000,-0.840000
2.763806,-0.039528,0.012688,1.009184,0.840000,0.560000,-0.840000
2.771893,-0.038552,0.013176,1.010160,0.840000,0.560000,-0.840000
2.779981,-0.039040,0.012688,1.009672,0.700000,0.560000,-0.840000
2.788068,-0.038552,0.013664,1.009184,0.840000,0.560000,-0.840000
2.796156,-0.039040,0.013664,1.009184,0.840000,0.560000,-0.840000
2.804244,-0.039528,0.013176,1.009672,0.840000,0.560000,-0.840000
2.812331,-0.038064,0.013664,1.010160,0.840000,0.560000,-0.840000
2.820419,-0.038552,0.013176,1.011136,0.840000,0.560000,-0.840000
2.828506,-0.039528,0.013664,1.010160,0.840000,0.560000,-0.840000
2.836594,-0.038064,0.012688,1.009672,0.840000,0.560000,-0.840000
2.844681,-0.040016,0.013664,1.010160,0.840000,0.560000,-0.840000
2.852769,-0.039040,0.013664,1.011136,0.840000,0.560000,-0.840000
2.860856,-0.039040,0.013664,1.010648,0.840000,0.560000,-0.840000
2.868944,-0.038552,0.013664,1.010648,0.840000,0.560000,-0.840000
2.877032,-0.038552,0.013664,1.010648,0.840000,0.560000,-0.840000
2.885119,-0.039040,0.013176,1.009672,0.840000,0.560000,-0.840000
2.893207,-0.039040,0.013176,1.010160,0.840000,0.560000,-0.840000
2.901294,-0.039040,0.013176,1.009672,0.840000,0.560000,-0.840000
2.909382,-0.039040,0.012688,1.010648,0.840000,0.560000,-0.840000
2.917469,-0.038552,0.013176,1.011136,0.840000,0.560000,-0.840000
2.925557,-0.039040,0.013664,1.011136,0.840000,0.560000,-0.840000
2.933645,-0.039040,0.013664,1.009672,0.840000,0.560000,-0.840000
2.941732,-0.039528,0.013176,1.009184,0.840000,0.560000,-0.840000
2.949820,-0.039528,0.013664,1.010160,0.840000,0.560000,-0.840000
2.957907,-0.039040,0.013176,1.010160,0.840000,0.560000,-0.840000
2.965995,-0.039040,0.013176,1.010160,0.840000,0.560000,-0.840000
2.974082,-0.038552,0.013664,1.009672,0.840000,0.560000,-0.840000
2.982170,-0.039040,0.013664,1.009672,0.840000,0.420000,-0.840000
2.990257,-0.040016,0.012688,1.009672,0.840000,0.560000,-0.840000
2.998345,-0.039040,0.013176,1.009184,0.840000,0.560000,-0.840000
3.006433,-0.039040,0.014152,1.008696,0.840000,0.560000,-0.840000
3.014520,-0.038552,0.013664,1.010160,0.840000,0.560000,-0.840000
3.022608,-0.039040,0.013176,1.010160,0.840000,0.560000,-0.840000
3.030695,-0.039040,0.013176,1.010648,0.840000,0.560000,-0.840000
3.038783,-0.038552,0.013176,1.010160,0.840000,0.700000,-0.840000
3.046870,-0.038552,0.012688,1.009672,0.840000,0.560000,-0.840000
3.054958,-0.039040,0.013664,1.009184,0.980000,0.560000,-0.840000
3.063045,-0.038552,0.013664,1.009184,0.840000,0.560000,-0.840000
3.071133,-0.040016,0.013176,1.010648,0.840000,0.560000,-0.840000
3.079221,-0.039040,0.013664,1.009672,0.840000,0.420000,-0.840000
3.087308,-0.038552,0.013664,1.010160,0.840000,0.560000,-0.840000
3.095396,-0.039040,0.012688,1.011624,0.840000,0.560000,-0.840000
3.103483,-0.039040,0.013176,1.009672,0.840000,0.560000,-0.840000
3.111571,-0.038552,0.013664,1.009672,0.840000,0.560000,-0.840000
3.119658,-0.038552,0.013664,1.009184,0.840000,0.560000,-0.840000
3.127746,-0.038064,0.013664,1.009184,0.840000,0.560000,-0.840000
3.135833,-0.039040,0.013664,1.010160,0.840000,0.560000,-0.840000
3.143921,-0.039040,0.012688,1.010160,0.840000,0.560000,-0.840000
3.152009,-0.039040,0.013664,1.010648,0.840000,0.560000,-0.840000
3.160096,-0.038552,0.013176,1.009672,0.840000,0.560000,-0.840000
3.168184,-0.039040,0.013176,1.010160,0.700000,0.560000,-0.840000
3.176271,-0.038552,0.013664,1.009672,0.840000,0.560000,-0.840000
3.184359,-0.038552,0.013664,1.010648,0.840000,0.560000,-0.840000
3.192446,-0.039528,0.013664,1.010648,0.840000,0.560000,-0.840000
3.200534,-0.039040,0.013664,1.011136,0.700000,0.560000,-0.840000
3.208621,-0.039528,0.013176,1.009672,0.840000,0.560000,-0.840000
3.216709,-0.039040,0.013664,1.010160,0.840000,0.560000,-0.840000
3.224797,-0.038552,0.013664,1.009672,0.840000,0.560000,-0.840000
3.232884,-0.038552,0.012688,1.008696,0.840000,0.560000,-0.840000
3.240972,-0.039040,0.013176,1.010160,0.840000,0.560000,-0.840000
3.249059,-0.038552,0.013664,1.010160,0.840000,0.560000,-0.840000
3.257147,-0.038552,0.013176,1.010160,0.840000,0.420000,-0.840000
3.265234,-0.039528,0.013664,1.010648,0.700000,0.560000,-0.840000
3.273322,-0.039528,0.013176,1.010648,0.840000,0.560000,-0.840000
3.281409,-0.038552,0.013176,1.010160,0.840000,0.560000,-0.840000
3.289497,-0.039528,0.013664,1.009672,0.840000,0.560000,-0.840000
3.297585,-0.038064,0.013176,1.009672,0.840000,0.560000,-0.840000
3.305672,-0.039528,0.013664,1.010160,0.700000,0.560000,-0.840000
3.313760,-0.038552,0.012688,1.009672,0.840000,0.560000,-0.840000
3.321847,-0.038552,0.013176,1.009672,0.840000,0.560000,-0.840000
3.329935,-0.038552,0.013664,1.010160,0.840000,0.560000,-0.840000
3.338022,-0.038552,0.013176,1.009672,0.840000,0.560000,-0.840000
3.346110,-0.039040,0.012688,1.009184,0.840000,0.560000,-0.840000
3.354197,-0.038552,0.013176,1.010160,0.840000,0.560000,-0.840000
3.362285,-0.039528,0.013664,1.010160,0.840000,0.560000,-0.840000
3.370373,-0.039040,0.013176,1.010160,0.980000,0.560000,-0.840000
3.378460,-0.039040,0.013664,1.010160,0.840000,0.560000,-0.840000
3.386548,-0.039040,0.013664,1.009672,0.840000,0.560000,-0.840000
3.394635,-0.038552,0.013176,1.010648,0.840000,0.560000,-0.840000
3.402723,-0.039040,0.012688,1.011624,0.840000,0.560000,-0.840000
3.410810,-0.039040,0.012688,1.010160,0.840000,0.560000,-0.840000
3.418898,-0.038552,0.013176,1.009672,0.840000,0.560000,-0.840000
3.426985,-0.038552,0.013664,1.010160,0.840000,0.560000,-0.840000
3.435073,-0.039040,0.013664,1.010648,0.840000,0.560000,-0.840000
3.443161,-0.038552,0.013176,1.009672,0.840000,0.420000,-0.840000
3.451248,-0.039528,0.013176,1.009184,0.840000,0.560000,-0.840000
3.459336,-0.038552,0.013664,1.010648,0.840000,0.560000,-0.840000
3.467423,-0.039528,0.013664,1.010160,0.840000,0.560000,-0.840000
3.475511,-0.038064,0.013176,1.009672,0.840000,0.560000,-0.840000
3.483598,-0.039040,0.013176,1.010160,0.840000,0.560000,-0.840000
3.491686,-0.039040,0.013176,1.011136,0.840000,0.560000,-0.840000
3.499774,-0.039040,0.012688,1.009184,0.840000,0.560000,-0.840000
3.507861,-0.038552,0.013664,1.010648,0.840000,0.560000,-0.840000
3.515949,-0.040016,0.013176,1.010160,0.980000,0.560000,-0.840000
3.524036,-0.039040,0.013176,1.010648,0.980000,0.560000,-0.840000
3.532124,-0.038552,0.013176,1.010160,0.840000,0.560000,-0.840000
3.540211,-0.039528,0.013176,1.010160,0.840000,0.560000,-0.840000
3.548299,-0.039040,0.012688,1.009672,0.840000,0.560000,-0.840000
3.556386,-0.039040,0.014152,1.009672,0.840000,0.560000,-0.840000
3.564474,-0.039040,0.013664,1.009672,0.840000,0.560000,-0.840000
3.572562,-0.039040,0.013664,1.008696,0.840000,0.560000,-0.840000
3.580649,-0.040016,0.013664,1.009184,0.840000,0.560000,-0.840000
3.588737,-0.039528,0.013664,1.009672,0.840000,0.560000,-0.840000
3.596824,-0.039040,0.013176,1.009184,0.980000,0.560000,-0.840000
3.604912,-0.039040,0.013664,1.009184,0.840000,0.560000,-0.840000
3.612999,-0.039528,0.013664,1.010648,0.840000,0.560000,-0.840000
3.621087,-0.039528,0.014152,1.009672,0.840000,0.560000,-0.840000
3.629174,-0.038552,0.014152,1.008696,0.840000,0.560000,-0.840000
3.637262,-0.039040,0.013664,1.009184,0.840000,0.560000,-0.840000
3.645350,-0.038552,0.013664,1.009672,0.840000,0.420000,-0.840000
3.653437,-0.038064,0.013664,1.010160,0.840000,0.560000,-0.840000
3.661525,-0.038064,0.013176,1.010648,0.840000,0.560000,-0.840000
3.669612,-0.038552,0.013176,1.010648,0.840000,0.560000,-0.840000
3.677700,-0.038552,0.013176,1.011136,0.840000,0.560000,-0.840000
3.685787,-0.038552,0.013664,1.010160,0.840000,0.560000,-0.840000
3.693875,-0.038552,0.014152,1.010648,0.840000,0.560000,-0.840000
3.701962,-0.038552,0.014152,1.010648,0.840000,0.560000,-0.840000
3.710050,-0.038552,0.013176,1.009672,0.840000,0.560000,-0.840000
3.718138,-0.038552,0.013176,1.008696,0.840000,0.560000,-0.840000
3.726225,-0.039528,0.013176,1.009672,0.840000,0.560000,-0.840000
3.734313,-0.038552,0.013176,1.009184,0.840000,0.560000,-0.840000
3.742400,-0.039040,0.014152,1.009672,0.840000,0.560000,-0.840000
3.750488,-0.039040,0.013664,1.010160,0.840000,0.560000,-0.840000
3.758575,-0.039040,0.012688,1.009672,0.840000,0.560000,-0.840000
3.766663,-0.039040,0.013176,1.010648,0.840000,0.560000,-0.840000
3.774750,-0.039528,0.012200,1.010648,0.840000,0.560000,-0.840000
3.782838,-0.039040,0.013664,1.010160,0.840000,0.560000,-0.840000
3.790926,-0.039040,0.013176,1.009184,0.840000,0.560000,-0.840000
3.799013,-0.039528,0.013664,1.009672,0.840000,0.560000,-0.840000
3.807101,-0.039040,0.014152,1.009672,0.840000,0.560000,-0.840000
3.815188,-0.039528,0.014152,1.010160,0.840000,0.420000,-0.840000
3.823276,-0.038552,0.012688,1.010160,0.840000,0.560000,-0.840000
3.831363,-0.039040,0.013176,1.009672,0.840000,0.560000,-0.840000
3.839451,-0.038552,0.012200,1.009672,0.840000,0.560000,-0.840000
3.847539,-0.039528,0.013176,1.010648,0.840000,0.560000,-0.840000
3.855626,-0.039528,0.013176,1.010160,0.840000,0.700000,-0.840000
3.863714,-0.039040,0.012688,1.010648,0.840000,0.700000,-0.840000
3.871801,-0.040016,0.014152,1.009184,0.840000,0.560000,-0.840000
3.879889,-0.039528,0.013176,1.010160,0.700000,0.420000,-0.840000
3.887976,-0.039528,0.013664,1.011136,0.840000,0.560000,-0.840000
3.896064,-0.039528,0.013664,1.009672,0.840000,0.560000,-0.840000
3.904151,-0.039528,0.013664,1.008696,0.840000,0.560000,-0.840000
3.912239,-0.038552,0.013664,1.009184,0.840000,0.560000,-0.840000
3.920327,-0.039040,0.013664,1.010160,0.840000,0.560000,-0.840000
3.928414,-0.039040,0.013664,1.010160,0.840000,0.560000,-0.840000
3.936502,-0.038552,0.013664,1.009672,0.840000,0.560000,-0.840000
3.944589,-0.038552,0.013176,1.009184,0.840000,0.560000,-0.840000
3.952677,-0.039040,0.013664,1.010648,0.840000,0.560000,-0.840000
3.960764,-0.039040,0.013664,1.009672,0.840000,0.560000,-0.840000
3.968852,-0.039040,0.013176,1.010160,0.840000,0.420000,-0.840000
3.976939,-0.039040,0.013664,1.008696,0.840000,0.560000,-0.840000
3.985027,-0.039040,0.013664,1.010160,0.840000,0.560000,-0.840000
3.993115,-0.039040,0.013176,1.010160,0.840000,0.560000,-0.840000
4.001202,-0.039040,0.013176,1.009184,0.840000,0.560000,-0.840000
4.009290,-0.039040,0.013176,1.010160,0.840000,0.560000,-0.840000
4.017377,-0.038064,0.013664,1.010648,0.980000,0.560000,-0.840000
4.025465,-0.039040,0.013664,1.010160,0.840000,0.560000,-0.840000
4.033552,-0.039040,0.013664,1.010160,0.840000,0.560000,-0.840000
4.041640,-0.039040,0.013176,1.010160,0.840000,0.560000,-0.840000
4.049727,-0.039040,0.013176,1.010160,0.840000,0.560000,-0.840000
4.057815,-0.038552,0.013176,1.010160,0.840000,0.560000,-0.840000
4.065903,-0.038552,0.014152,1.009184,0.840000,0.560000,-0.840000
4.073990,-0.039040,0.013664,1.009672,0.840000,0.560000,-0.840000
4.082078,-0.038552,0.013664,1.009672,0.840000,0.560000,-0.840000
4.090165,-0.039040,0.013664,1.010648,0.840000,0.420000,-0.840000
4.098253,-0.038552,0.013664,1.010160,0.840000,0.420000,-0.840000
4.106340,-0.039040,0.013664,1.010160,0.840000,0.420000,-0.840000
4.114428,-0.039040,0.012688,1.010160,0.840000,0.560000,-0.840000
4.122515,-0.038552,0.013176,1.010648,0.840000,0.560000,-0.840000
4.130603,-0.039040,0.013176,1.009184,0.840000,0.560000,-0.840000
4.138691,-0.038552,0.013176,1.009184,0.700000,0.560000,-0.840000
4.146778,-0.038552,0.012688,1.010160,0.840000,0.560000,-0.840000
4.154866,-0.039040,0.013176,1.009672,0.840000,0.560000,-0.840000
4.162953,-0.039040,0.012688,1.010160,0.840000,0.560000,-0.840000
4.171041,-0.038064,0.012688,1.010160,0.840000,0.560000,-0.840000
4.179128,-0.039528,0.012688,1.010160,0.840000,0.560000,-0.840000
4.187216,-0.039040,0.013176,1.009672,0.840000,0.560000,-0.840000
4.195304,-0.039040,0.012688,1.009184,0.840000,0.560000,-0.840000
4.203391,-0.039040,0.013176,1.010648,0.840000,0.560000,-0.840000
4.211479,-0.039040,0.013176,1.009672,0.840000,0.560000,-0.840000
4.219566,-0.038552,0.013664,1.009184,0.840000,0.560000,-0.840000
4.227654,-0.038552,0.013664,1.009184,0.840000,0.560000,-0.840000
4.235741,-0.038064,0.013664,1.009672,0.840000,0.560000,-0.840000
4.243829,-0.038552,0.013664,1.009672,0.840000,0.560000,-0.840000
4.251916,-0.039040,0.014152,1.009184,0.840000,0.560000,-0.840000
4.260004,-0.039528,0.013176,1.010648,0.840000,0.700000,-0.840000
4.268092,-0.039040,0.013664,1.010648,0.840000,0.560000,-0.840000
4.276179,-0.039528,0.013664,1.009672,0.840000,0.420000,-0.840000
4.284267,-0.039040,0.013664,1.009184,0.840000,0.560000,-0.840000
4.292354,-0.039040,0.014152,1.009672,0.840000,0.560000,-0.840000
4.300442,-0.038552,0.013176,1.010160,0.840000,0.560000,-0.840000
4.308529,-0.038064,0.013176,1.010160,0.980000,0.560000,-0.840000
4.316617,-0.038552,0.013664,1.010648,0.840000,0.560000,-0.840000
4.324704,-0.038552,0.013176,1.010648,0.840000,0.560000,-0.840000
4.332792,-0.038064,0.013176,1.010160,0.840000,0.560000,-0.840000
4.340880,-0.038552,0.013176,1.009672,0.840000,0.560000,-0.840000
4.348967,-0.039528,0.013176,1.009184,0.840000,0.560000,-0.840000
4.357055,-0.038552,0.013176,1.009184,0.840000,0.420000,-0.840000
4.365142,-0.039528,0.013176,1.009184,0.840000,0.560000,-0.840000
4.373230,-0.039528,0.013664,1.010160,0.840000,0.560000,-0.840000
4.381317,-0.039040,0.013664,1.010160,0.840000,0.560000,-0.840000
4.389405,-0.038064,0.013176,1.009672,0.840000,0.560000,-0.840000
4.397492,-0.038552,0.013176,1.010160,0.700000,0.560000,-0.840000
4.405580,-0.038552,0.013176,1.009672,0.700000,0.560000,-0.840000
4.413668,-0.040016,0.013176,1.010160,0.840000,0.560000,-0.840000
4.421755,-0.040016,0.013176,1.010648,0.840000,0.560000,-0.840000
4.429843,-0.039040,0.013176,1.009672,0.840000,0.560000,-0.840000
4.437930,-0.039528,0.013664,1.009184,0.840000,0.560000,-0.840000
4.446018,-0.038552,0.013664,1.009672,0.840000,0.560000,-0.840000
4.454105,-0.039040,0.013176,1.009184,0.840000,0.560000,-0.840000
4.462193,-0.039040,0.013664,1.009184,0.840000,0.560000,-0.840000
4.470280,-0.040016,0.013176,1.009184,0.840000,0.560000,-0.840000
4.478368,-0.039040,0.012688,1.010648,0.840000,0.560000,-0.840000
4.486456,-0.039040,0.013176,1.009672,0.840000,0.560000,-0.840000
4.494543,-0.039528,0.013664,1.009184,0.840000,0.560000,-0.840000
4.502631,-0.038552,0.014640,1.008696,0.840000,0.560000,-0.840000
4.510718,-0.038552,0.013664,1.009672,0.840000,0.560000,-0.840000
4.518806,-0.038064,0.013664,1.010648,0.840000,0.560000,-0.840000
4.526893,-0.039040,0.013664,1.010160,0.840000,0.560000,-0.840000
4.534981,-0.037576,0.013664,1.010160,0.980000,0.560000,-0.840000
4.543069,-0.038064,0.013176,1.011624,0.840000,0.560000,-0.840000
4.551156,-0.039040,0.013176,1.010648,0.840000,0.560000,-0.840000
4.559244,-0.039040,0.013664,1.010648,0.840000,0.560000,-0.840000
4.567331,-0.038552,0.013664,1.010160,0.840000,0.560000,-0.840000
4.575419,-0.038552,0.012688,1.010160,0.840000,0.560000,-0.840000
4.583506,-0.039040,0.013664,1.010160,0.840000,0.700000,-0.840000
4.591594,-0.039040,0.012688,1.009184,0.840000,0.560000,-0.840000
4.599681,-0.039040,0.013176,1.010648,0.840000,0.700000,-0.840000
4.607769,-0.039528,0.014152,1.009184,0.840000,0.560000,-0.840000
4.615857,-0.039528,0.013176,1.008696,0.840000,0.560000,-0.840000
4.623944,-0.039040,0.013176,1.009184,0.840000,0.560000,-0.840000
4.632032,-0.038552,0.013176,1.010648,0.840000,0.560000,-0.840000
4.640119,-0.038552,0.013664,1.009672,0.840000,0.560000,-0.840000
4.648207,-0.039040,0.013664,1.009672,0.840000,0.560000,-0.840000
4.656294,-0.038552,0.013176,1.009672,0.840000,0.560000,-0.840000
4.664382,-0.039528,0.013176,1.010160,0.700000,0.560000,-0.840000
4.672469,-0.038552,0.013176,1.010648,0.840000,0.560000,-0.840000
4.680557,-0.039040,0.013176,1.010160,0.840000,0.560000,-0.840000
4.688645,-0.039528,0.013176,1.009672,0.840000,0.560000,-0.840000
4.696732,-0.038064,0.014152,1.009672,0.840000,0.560000,-0.840000
4.704820,-0.038552,0.013664,1.010160,0.840000,0.560000,-0.840000
4.712907,-0.039040,0.013176,1.009184,0.840000,0.560000,-0.840000
4.720995,-0.038552,0.012688,1.009672,0.980000,0.560000,-0.840000
4.729082,-0.038552,0.014152,1.010160,0.840000,0.560000,-0.840000
4.737170,-0.039040,0.013664,1.009672,0.840000,0.560000,-0.840000
4.745257,-0.038552,0.013176,1.010160,0.840000,0.560000,-0.840000
4.753345,-0.038552,0.013176,1.009184,0.840000,0.560000,-0.840000
4.761433,-0.038552,0.014152,1.010160,0.840000,0.560000,-0.840000
4.769520,-0.039040,0.013664,1.010648,0.840000,0.560000,-0.840000
4.777608,-0.039528,0.013664,1.009184,0.840000,0.700000,-0.840000
4.785695,-0.039528,0.013664,1.010160,0.840000,0.560000,-0.840000
4.793783,-0.038552,0.013176,1.009184,0.840000,0.560000,-0.840000
4.801870,-0.039528,0.013176,1.009672,0.840000,0.560000,-0.840000
4.809958,-0.039040,0.013176,1.009672,0.840000,0.560000,-0.840000
4.818046,-0.038552,0.013176,1.010648,0.840000,0.560000,-0.840000
4.826133,-0.038552,0.013176,1.008696,0.840000,0.560000,-0.840000
4.834221,-0.039040,0.013664,1.009672,0.840000,0.420000,-0.840000
4.842308,-0.038552,0.012688,1.010160,0.840000,0.560000,-0.840000
4.850396,-0.039040,0.013664,1.008696,0.840000,0.560000,-0.840000
4.858483,-0.039040,0.013176,1.009184,0.840000,0.560000,-0.840000
4.866571,-0.039040,0.013664,1.010160,0.840000,0.560000,-0.840000
4.874658,-0.039528,0.013176,1.009672,0.840000,0.560000,-0.840000
4.882746,-0.038064,0.013176,1.010160,0.840000,0.560000,-0.840000
4.890834,-0.039528,0.013176,1.009672,0.840000,0.560000,-0.840000
4.898921,-0.039040,0.012688,1.010160,0.840000,0.560000,-0.840000
4.907009,-0.039040,0.013664,1.009672,0.840000,0.560000,-0.840000
4.915096,-0.038552,0.013176,1.010648,0.840000,0.560000,-0.840000
4.923184,-0.039040,0.013664,1.009672,0.840000,0.560000,-0.840000
4.931271,-0.039040,0.013664,1.009672,0.840000,0.560000,-0.840000
4.939359,-0.039040,0.013664,1.010160,0.840000,0.560000,-0.840000
4.947446,-0.038552,0.013176,1.011136,0.840000,0.560000,-0.840000
4.955534,-0.039040,0.013664,1.010648,0.840000,0.420000,-0.840000
4.963622,-0.039040,0.013176,1.010160,0.840000,0.560000,-0.840000
4.971709,-0.039528,0.012688,1.009184,0.840000,0.560000,-0.840000
4.979797,-0.039528,0.013176,1.010160,0.700000,0.560000,-0.840000
4.987884,-0.039040,0.014152,1.010648,0.840000,0.560000,-0.840000
4.995972,-0.038552,0.013176,1.010648,0.980000,0.560000,-0.840000
5.004059,-0.038552,0.013176,1.011136,0.840000,0.560000,-0.840000
5.012147,-0.038064,0.013664,1.010160,0.840000,0.560000,-0.840000
5.020234,-0.040016,0.012688,1.009184,0.840000,0.560000,-0.840000
5.028322,-0.039040,0.012688,1.009184,0.840000,0.560000,-0.840000
5.036410,-0.039040,0.012688,1.010648,0.840000,0.560000,-0.840000
5.044497,-0.039528,0.013176,1.010160,0.840000,0.560000,-0.840000
5.052585,-0.038552,0.013176,1.008696,0.840000,0.560000,-0.840000
5.060672,-0.038552,0.013176,1.009672,0.840000,0.560000,-0.840000
5.068760,-0.040016,0.013176,1.010160,0.840000,0.560000,-0.840000
5.076847,-0.039040,0.013176,1.010160,0.840000,0.560000,-0.840000
5.084935,-0.039040,0.013176,1.010648,0.840000,0.560000,-0.840000
5.093022,-0.038064,0.013176,1.009184,0.840000,0.560000,-0.840000
5.101110,-0.038552,0.012688,1.010648,0.700000,0.560000,-0.840000
5.109198,-0.039040,0.013176,1.010648,0.840000,0.420000,-0.840000
5.117285,-0.040016,0.012688,1.010160,0.840000,0.560000,-0.840000
5.125373,-0.039528,0.012688,1.010160,0.840000,0.560000,-0.840000
5.133460,-0.038064,0.013176,1.010160,0.840000,0.560000,-0.840000
5.141548,-0.038552,0.013176,1.009672,0.840000,0.560000,-0.840000
5.149635,-0.039528,0.013664,1.009672,0.840000,0.560000,-0.840000
5.157723,-0.039528,0.013176,1.010160,0.840000,0.560000,-0.840000
5.165811,-0.038552,0.013176,1.009672,0.840000,0.560000,-0.840000
5.173898,-0.039040,0.013664,1.010160,0.840000,0.560000,-0.840000
5.181986,-0.039528,0.013664,1.009672,0.840000,0.560000,-0.840000
5.190073,-0.039528,0.013176,1.010160,0.840000,0.560000,-0.840000
5.198161,-0.039040,0.013664,1.010160,0.840000,0.560000,-0.840000
5.206248,-0.038552,0.013176,1.010648,0.840000,0.560000,-0.840000
5.214336,-0.038552,0.013664,1.009184,0.840000,0.560000,-0.840000
5.222423,-0.038552,0.014152,1.009672,0.840000,0.560000,-0.840000
5.230511,-0.039040,0.014152,1.009672,0.840000,0.560000,-0.840000
5.238599,-0.038552,0.014152,1.009672,0.840000,0.560000,-0.840000
5.246686,-0.039040,0.013664,1.010160,0.840000,0.560000,-0.840000
5.254774,-0.039528,0.013176,1.009184,0.840000,0.560000,-0.840000
5.262861,-0.039040,0.013176,1.010160,0.840000,0.560000,-0.840000
5.270949,-0.039040,0.013664,1.009672,0.840000,0.560000,-0.840000
5.279036,-0.039528,0.013176,1.009672,0.840000,0.560000,-0.840000
5.287124,-0.039040,0.013664,1.009672,0.840000,0.560000,-0.840000
5.295211,-0.039040,0.013176,1.009184,0.840000,0.560000,-0.840000
5.303299,-0.039528,0.012688,1.009672,0.840000,0.560000,-0.840000
5.311387,-0.039528,0.013176,1.009672,0.840000,0.560000,-0.840000
5.319474,-0.038064,0.014152,1.009672,0.840000,0.560000,-0.840000
5.327562,-0.038552,0.014152,1.009672,0.840000,0.560000,-0.840000
5.335649,-0.039040,0.013176,1.010160,0.840000,0.560000,-0.840000
5.343737,-0.039528,0.013664,1.010160,0.840000,0.560000,-0.840000
5.351824,-0.038552,0.013176,1.010160,0.840000,0.560000,-0.840000
5.359912,-0.038552,0.013664,1.009672,0.840000,0.560000,-0.840000
5.367999,-0.039040,0.012688,1.010160,0.840000,0.560000,-0.840000
5.376087,-0.038064,0.012688,1.010648,0.840000,0.560000,-0.840000
5.384175,-0.038064,0.013664,1.010160,0.840000,0.560000,-0.840000
5.392262,-0.038552,0.014152,1.010160,0.840000,0.420000,-0.840000
5.400350,-0.039040,0.013664,1.010648,0.840000,0.560000,-0.840000
5.408437,-0.038552,0.014152,1.011136,0.840000,0.560000,-0.840000
5.416525,-0.039040,0.012688,1.010160,0.840000,0.560000,-0.840000
5.424612,-0.038552,0.013176,1.010648,0.840000,0.560000,-0.840000
5.432700,-0.039040,0.014152,1.010160,0.840000,0.560000,-0.840000
5.440787,-0.039040,0.013664,1.009672,0.980000,0.560000,-0.840000
5.448875,-0.038064,0.013176,1.010160,0.840000,0.560000,-0.840000
5.456963,-0.039040,0.014152,1.012112,0.840000,0.560000,-0.840000
5.465050,-0.038552,0.013176,1.010160,0.840000,0.560000,-0.840000
5.473138,-0.039040,0.013664,1.009672,0.840000,0.560000,-0.840000
5.481225,-0.038064,0.013664,1.009184,0.840000,0.700000,-0.840000
5.489313,-0.038552,0.013664,1.010160,0.840000,0.560000,-0.840000
5.497400,-0.038064,0.013176,1.010648,0.700000,0.560000,-0.840000
5.505488,-0.040016,0.013176,1.009184,0.840000,0.560000,-0.840000
5.513576,-0.039528,0.013176,1.009672,0.840000,0.560000,-0.840000
5.521663,-0.039040,0.012688,1.010648,0.840000,0.560000,-0.840000
5.529751,-0.039040,0.013176,1.010648,0.840000,0.560000,-0.840000
5.537838,-0.039040,0.012688,1.010648,0.840000,0.560000,-0.840000
5.545926,-0.038552,0.012688,1.009672,0.840000,0.560000,-0.840000
5.554013,-0.039040,0.012200,1.009184,0.840000,0.560000,-0.840000
5.562101,-0.039040,0.013176,1.009184,0.840000,0.560000,-0.840000
5.570188,-0.039528,0.013176,1.010648,0.840000,0.560000,-0.840000
5.578276,-0.039528,0.013176,1.011136,0.840000,0.560000,-0.840000
5.586364,-0.039040,0.013176,1.010648,0.840000,0.560000,-0.840000
5.594451,-0.039040,0.013176,1.009184,0.700000,0.560000,-0.840000
5.602539,-0.038552,0.013176,1.010648,0.840000,0.560000,-0.840000
5.610626,-0.038552,0.013176,1.010648,0.840000,0.560000,-0.840000
5.618714,-0.039040,0.014152,1.009184,0.840000,0.560000,-0.840000
5.626801,-0.039040,0.012688,1.009672,0.840000,0.560000,-0.840000
5.634889,-0.039040,0.012688,1.010648,0.840000,0.560000,-0.840000
5.642976,-0.038552,0.013664,1.010648,0.840000,0.560000,-0.840000
5.651064,-0.038552,0.013176,1.009184,0.840000,0.560000,-0.840000
5.659152,-0.038552,0.013664,1.009184,0.840000,0.560000,-0.840000
5.667239,-0.039040,0.013176,1.010160,0.840000,0.560000,-0.840000
5.675327,-0.038552,0.013176,1.010160,0.700000,0.560000,-0.840000
5.683414,-0.038552,0.014152,1.009672,0.840000,0.560000,-0.700000
5.691502,-0.038552,0.013176,1.010648,0.840000,0.560000,-0.840000
5.699589,-0.039528,0.013664,1.010160,0.840000,0.560000,-0.840000
5.707677,-0.039040,0.014152,1.009184,0.840000,0.560000,-0.840000
5.715764,-0.038064,0.013176,1.009672,0.840000,0.560000,-0.840000
5.723852,-0.039040,0.013176,1.010160,0.700000,0.560000,-0.840000
5.731940,-0.039040,0.013176,1.010160,0.840000,0.560000,-0.840000
5.740027,-0.038552,0.012688,1.010160,0.840000,0.560000,-0.840000
5.748115,-0.040016,0.013664,1.010648,0.840000,0.560000,-0.840000
5.756202,-0.039040,0.013664,1.010648,0.840000,0.560000,-0.840000
5.764290,-0.040016,0.013664,1.009672,0.840000,0.560000,-0.840000
5.772377,-0.039040,0.013664,1.009672,0.840000,0.560000,-0.840000
5.780465,-0.039040,0.013664,1.010160,0.840000,0.560000,-0.840000
5.788553,-0.039040,0.013176,1.010160,0.840000,0.560000,-0.840000
5.796640,-0.039040,0.013176,1.009672,0.840000,0.560000,-0.840000
5.804728,-0.038552,0.013664,1.009672,0.840000,0.560000,-0.840000
5.812815,-0.038552,0.014152,1.010160,0.840000,0.560000,-0.840000
5.820903,-0.039040,0.013664,1.010160,0.840000,0.700000,-0.840000
5.828990,-0.038552,0.013176,1.010648,0.840000,0.560000,-0.840000
5.837078,-0.038552,0.013664,1.008696,0.840000,0.560000,-0.840000
5.845165,-0.038552,0.013664,1.009672,0.840000,0.560000,-0.840000
5.853253,-0.039040,0.013664,1.009672,0.840000,0.560000,-0.840000
5.861341,-0.039040,0.013176,1.010160,0.840000,0.560000,-0.840000
5.869428,-0.039040,0.013176,1.009672,0.840000,0.560000,-0.840000
5.877516,-0.039040,0.013664,1.010160,0.840000,0.560000,-0.840000
5.885603,-0.038064,0.013176,1.009184,0.840000,0.560000,-0.840000
5.893691,-0.039040,0.013664,1.009184,0.840000,0.560000,-0.840000
5.901778,-0.039528,0.013176,1.010160,0.840000,0.560000,-0.840000
5.909866,-0.039528,0.012688,1.010160,0.840000,0.560000,-0.840000
5.917953,-0.039040,0.013176,1.009672,0.840000,0.560000,-0.840000
5.926041,-0.039528,0.012688,1.010160,0.840000,0.560000,-0.840000
5.934129,-0.038552,0.013176,1.010160,0.700000,0.560000,-0.840000
5.942216,-0.039040,0.013664,1.009672,0.840000,0.560000,-0.840000
5.950304,-0.039528,0.013664,1.010160,0.840000,0.560000,-0.840000
5.958391,-0.039040,0.013664,1.009672,0.840000,0.560000,-0.840000
5.966479,-0.038552,0.013176,1.008696,0.840000,0.700000,-0.840000
5.974566,-0.039040,0.013664,1.010648,0.840000,0.560000,-0.840000
5.982654,-0.039040,0.013176,1.010160,0.840000,0.560000,-0.840000
5.990741,-0.039040,0.013664,1.009672,0.840000,0.560000,-0.840000
5.998829,-0.038064,0.014152,1.009672,0.840000,0.560000,-0.840000
6.006917,-0.038552,0.012688,1.009672,0.840000,0.560000,-0.840000
6.015004,-0.039040,0.013176,1.009184,0.840000,0.560000,-0.840000
6.023092,-0.039040,0.012688,1.009672,0.840000,0.560000,-0.840000
6.031179,-0.039528,0.013664,1.009672,0.840000,0.560000,-0.840000
6.039267,-0.038552,0.013664,1.008696,0.840000,0.700000,-0.840000
6.047354,-0.039040,0.013176,1.009672,0.840000,0.560000,-0.840000
6.055442,-0.039040,0.013664,1.010160,0.840000,0.560000,-0.840000
6.063529,-0.038552,0.013664,1.010160,0.840000,0.560000,-0.840000
6.071617,-0.038064,0.013176,1.009184,0.840000,0.560000,-0.840000
6.079705,-0.039040,0.013664,1.010160,0.840000,0.560000,-0.840000
6.087792,-0.039528,0.013176,1.010160,0.840000,0.420000,-0.840000
6.095880,-0.039040,0.013176,1.010160,0.840000,0.560000,-0.840000
6.103967,-0.038552,0.013176,1.010648,0.840000,0.700000,-0.840000
6.112055,-0.038552,0.013176,1.010160,0.840000,0.560000,-0.840000
6.120142,-0.039040,0.013664,1.010648,0.840000,0.560000,-0.840000
6.128230,-0.038552,0.013176,1.009672,0.840000,0.560000,-0.840000
6.136318,-0.038064,0.013176,1.008208,0.840000,0.560000,-0.840000
6.144405,-0.039528,0.013176,1.008696,0.840000,0.560000,-0.840000
6.152493,-0.039040,0.013664,1.009184,0.840000,0.560000,-0.840000
6.160580,-0.039528,0.012688,1.010648,0.840000,0.560000,-0.840000
6.168668,-0.039528,0.013176,1.010648,0.980000,0.560000,-0.840000
6.176755,-0.040504,0.012688,1.010160,0.840000,0.560000,-0.840000
6.184843,-0.039528,0.013176,1.009672,0.980000,0.560000,-0.840000
6.192930,-0.039528,0.013664,1.009672,0.840000,0.560000,-0.840000
6.201018,-0.039040,0.013664,1.010160,0.840000,0.560000,-0.840000
6.209106,-0.039528,0.013664,1.009672,0.840000,0.560000,-0.840000
6.217193,-0.039040,0.013176,1.010160,0.840000,0.560000,-0.840000
6.225281,-0.039040,0.013176,1.010648,0.840000,0.560000,-0.840000
6.233368,-0.039040,0.013176,1.010648,0.980000,0.560000,-0.840000
6.241456,-0.039040,0.013176,1.009672,0.840000,0.560000,-0.840000
6.249543,-0.038552,0.012688,1.009672,0.840000,0.560000,-0.840000
6.257631,-0.038552,0.013176,1.009672,0.840000,0.560000,-0.840000
6.265718,-0.038064,0.013176,1.009184,0.700000,0.560000,-0.840000
6.273806,-0.039040,0.013664,1.008696,0.700000,0.560000,-0.840000
6.281894,-0.039040,0.013664,1.009672,0.840000,0.560000,-0.840000
6.289981,-0.038552,0.013664,1.009672,0.840000,0.560000,-0.840000
6.298069,-0.039040,0.013664,1.010160,0.840000,0.560000,-0.840000
6.306156,-0.039040,0.013664,1.009184,0.840000,0.560000,-0.840000
6.314244,-0.039528,0.013176,1.009672,0.840000,0.560000,-0.840000
6.322331,-0.039040,0.013664,1.010160,0.840000,0.560000,-0.840000
6.330419,-0.039040,0.013664,1.009184,0.840000,0.560000,-0.840000
6.338507,-0.038552,0.013176,1.009184,0.840000,0.560000,-0.840000
6.346594,-0.038552,0.013176,1.009672,0.840000,0.420000,-0.840000
6.354682,-0.038552,0.013664,1.009672,0.840000,0.560000,-0.840000
6.362769,-0.039528,0.013176,1.010160,0.980000,0.420000,-0.840000
6.370857,-0.039040,0.013176,1.010160,0.980000,0.560000,-0.840000
6.378944,-0.038552,0.013664,1.009184,0.840000,0.560000,-0.840000
6.387032,-0.038552,0.013664,1.009184,0.840000,0.560000,-0.840000
6.395119,-0.038552,0.013664,1.009672,0.840000,0.560000,-0.840000
6.403207,-0.038552,0.013176,1.009672,0.840000,0.560000,-0.840000
6.411295,-0.039040,0.013664,1.009672,0.840000,0.560000,-0.840000
6.419382,-0.039040,0.012688,1.010648,0.840000,0.420000,-0.840000
6.427470,-0.039040,0.013664,1.009672,0.840000,0.560000,-0.840000
6.435557,-0.039040,0.013176,1.010160,0.840000,0.560000,-0.840000
6.443645,-0.039528,0.014152,1.008696,0.840000,0.560000,-0.840000
6.451732,-0.039040,0.012200,1.009672,0.840000,0.560000,-0.840000
6.459820,-0.039528,0.013664,1.009672,0.840000,0.560000,-0.840000
6.467907,-0.039528,0.013664,1.010160,0.840000,0.560000,-0.840000
6.475995,-0.039528,0.014152,1.009672,0.840000,0.560000,-0.840000
6.484083,-0.039040,0.014152,1.009672,0.840000,0.560000,-0.840000
6.492170,-0.039040,0.013664,1.009672,0.840000,0.560000,-0.840000
6.500258,-0.038552,0.012688,1.010160,0.840000,0.420000,-0.840000
6.508345,-0.039040,0.013664,1.011136,0.840000,0.560000,-0.840000
6.516433,-0.039040,0.013176,1.010160,0.840000,0.560000,-0.840000
6.524520,-0.039040,0.013664,1.009184,0.840000,0.560000,-0.840000
6.532608,-0.039528,0.013664,1.009672,0.840000,0.560000,-0.840000
6.540696,-0.038552,0.012688,1.009184,0.840000,0.560000,-0.840000
6.548783,-0.039040,0.013176,1.010160,0.840000,0.560000,-0.840000
6.556871,-0.039528,0.013176,1.009672,0.840000,0.560000,-0.840000
6.564958,-0.040016,0.013664,1.009184,0.840000,0.560000,-0.840000
6.573046,-0.038552,0.013664,1.009672,0.840000,0.560000,-0.840000
6.581133,-0.038552,0.013176,1.008208,0.840000,0.560000,-0.840000
6.589221,-0.039040,0.013176,1.010160,0.840000,0.560000,-0.840000
6.597308,-0.039040,0.013664,1.010160,0.840000,0.560000,-0.840000
6.605396,-0.038552,0.013176,1.010160,0.840000,0.560000,-0.840000
6.613484,-0.039040,0.012688,1.010160,0.980000,0.560000,-0.840000
6.621571,-0.039040,0.013176,1.010648,0.840000,0.560000,-0.840000
6.629659,-0.038552,0.013664,1.009672,0.840000,0.560000,-0.840000
6.637746,-0.038552,0.013176,1.009672,0.840000,0.560000,-0.840000
6.645834,-0.038552,0.013176,1.009184,0.840000,0.560000,-0.840000
6.653921,-0.038552,0.013664,1.008696,0.840000,0.420000,-0.840000
6.662009,-0.039528,0.013664,1.010160,0.840000,0.560000,-0.840000
6.670096,-0.039040,0.013176,1.010648,0.840000,0.560000,-0.840000
6.678184,-0.039528,0.013176,1.010160,0.840000,0.560000,-0.840000
6.686272,-0.039040,0.013176,1.009184,0.840000,0.560000,-0.840000
6.694359,-0.039040,0.014152,1.010160,0.840000,0.560000,-0.840000
6.702447,-0.038552,0.013664,1.011136,0.840000,0.560000,-0.840000
6.710534,-0.039040,0.013664,1.009184,0.840000,0.560000,-0.840000
6.718622,-0.038552,0.014152,1.009672,0.840000,0.560000,-0.840000
6.726709,-0.039040,0.013176,1.010160,0.840000,0.560000,-0.840000
6.734797,-0.039040,0.012688,1.010160,0.840000,0.560000,-0.840000
6.742885,-0.039040,0.013664,1.010648,0.840000,0.560000,-0.840000
6.750972,-0.038552,0.013664,1.009184,0.840000,0.560000,-0.700000
6.759060,-0.039040,0.013664,1.008208,0.840000,0.560000,-0.840000
6.767147,-0.039040,0.013176,1.009672,0.840000,0.560000,-0.840000
6.775235,-0.037576,0.013664,1.010648,0.840000,0.560000,-0.840000
6.783322,-0.038552,0.013664,1.009672,0.840000,0.560000,-0.840000
6.791410,-0.039528,0.013664,1.010160,0.840000,0.420000,-0.840000
6.799497,-0.039528,0.013664,1.009184,0.840000,0.560000,-0.840000
6.807585,-0.039040,0.013664,1.009672,0.840000,0.560000,-0.840000
6.815673,-0.039528,0.013176,1.009672,0.700000,0.560000,-0.840000
6.823760,-0.039528,0.012688,1.008696,0.840000,0.560000,-0.840000
6.831848,-0.039040,0.012688,1.010160,0.840000,0.560000,-0.840000
6.839935,-0.039528,0.013664,1.010648,0.840000,0.560000,-0.840000
6.848023,-0.039528,0.013176,1.010160,0.840000,0.560000,-0.840000
6.856110,-0.039040,0.013664,1.008696,0.840000,0.560000,-0.840000
6.864198,-0.039040,0.014152,1.009672,0.840000,0.560000,-0.840000
6.872286,-0.039040,0.013176,1.009672,0.840000,0.560000,-0.840000
6.880373,-0.039528,0.014152,1.009672,0.840000,0.560000,-0.840000
6.888461,-0.039528,0.013664,1.009672,0.980000,0.560000,-0.840000
6.896548,-0.039528,0.013664,1.009184,0.840000,0.560000,-0.840000
6.904636,-0.039040,0.013664,1.010160,0.700000,0.560000,-0.840000
6.912723,-0.039528,0.013176,1.010160,0.840000,0.560000,-0.840000
6.920811,-0.039040,0.013664,1.010160,0.840000,0.560000,-0.840000
6.928898,-0.039040,0.013664,1.010160,0.840000,0.560000,-0.840000
6.936986,-0.039528,0.013176,1.009672,0.840000,0.420000,-0.840000
6.945074,-0.039528,0.013176,1.009672,0.840000,0.560000,-0.840000
6.953161,-0.040016,0.013176,1.010160,0.840000,0.560000,-0.840000
6.961249,-0.039528,0.013176,1.009184,0.840000,0.560000,-0.840000
6.969336,-0.039040,0.012688,1.010160,0.840000,0.560000,-0.840000
6.977424,-0.039528,0.013664,1.010160,0.840000,0.560000,-0.840000
6.985511,-0.039040,0.013664,1.010648,0.840000,0.560000,-0.840000
6.993599,-0.039040,0.013664,1.008696,0.840000,0.560000,-0.840000
7.001686,-0.038552,0.012688,1.010648,0.840000,0.560000,-0.840000
7.009774,-0.039040,0.012688,1.008208,0.840000,0.560000,-0.840000
7.017862,-0.039040,0.013664,1.010648,0.840000,0.560000,-0.840000
7.025949,-0.039040,0.013176,1.009184,0.840000,0.560000,-0.840000
7.034037,-0.039040,0.013176,1.010648,0.840000,0.560000,-0.840000
7.042124,-0.039040,0.013664,1.009672,0.840000,0.560000,-0.840000
7.050212,-0.039528,0.013664,1.010160,0.840000,0.560000,-0.840000
7.058299,-0.039040,0.013176,1.009672,0.840000,0.560000,-0.840000
7.066387,-0.039040,0.013664,1.010160,0.840000,0.560000,-0.840000
7.074475,-0.039528,0.013176,1.010160,0.700000,0.560000,-0.840000
7.082562,-0.039528,0.013176,1.009184,0.840000,0.560000,-0.840000
7.090650,-0.039040,0.013176,1.010160,0.700000,0.560000,-0.840000
7.098737,-0.038064,0.012688,1.010160,0.980000,0.560000,-0.840000
7.106825,-0.038552,0.014152,1.010160,0.840000,0.560000,-0.840000
7.114912,-0.038552,0.013176,1.009672,0.840000,0.560000,-0.840000
7.123000,-0.039528,0.013176,1.011624,0.840000,0.560000,-0.840000
7.131087,-0.038552,0.013664,1.010648,0.840000,0.560000,-0.840000
7.139175,-0.038552,0.013176,1.009672,0.840000,0.560000,-0.840000
7.147263,-0.038552,0.013176,1.009184,0.840000,0.560000,-0.840000
7.155350,-0.039040,0.013176,1.009672,0.840000,0.560000,-0.840000
7.163438,-0.038552,0.014152,1.010160,0.840000,0.560000,-0.840000
7.171525,-0.039040,0.013664,1.009184,0.840000,0.560000,-0.840000
7.179613,-0.040016,0.013176,1.008696,0.840000,0.560000,-0.840000
7.187700,-0.039040,0.014152,1.010648,0.840000,0.560000,-0.840000
7.195788,-0.039528,0.012688,1.011136,0.980000,0.560000,-0.840000
7.203875,-0.039040,0.013176,1.009184,0.840000,0.560000,-0.840000
7.211963,-0.038552,0.013176,1.010160,0.840000,0.560000,-0.840000
7.220051,-0.040016,0.013664,1.009672,0.840000,0.560000,-0.840000
7.228138,-0.039040,0.013664,1.009672,0.840000,0.560000,-0.840000
7.236226,-0.039040,0.014152,1.010648,0.840000,0.560000,-0.840000
7.244313,-0.039528,0.013176,1.009672,0.840000,0.560000,-0.840000
7.252401,-0.039040,0.013176,1.009184,0.840000,0.560000,-0.840000
7.260488,-0.039040,0.013176,1.009672,0.840000,0.560000,-0.840000
7.268576,-0.039040,0.013176,1.009672,0.840000,0.420000,-0.840000
7.276664,-0.038552,0.013176,1.010160,0.840000,0.560000,-0.840000
7.284751,-0.039528,0.013664,1.010648,0.840000,0.420000,-0.840000
7.292839,-0.040016,0.013176,1.009672,0.840000,0.560000,-0.840000
7.300926,-0.039040,0.013664,1.010160,0.840000,0.560000,-0.840000
7.309014,-0.039040,0.014152,1.010648,0.700000,0.560000,-0.840000
7.317101,-0.039040,0.013664,1.010648,0.840000,0.560000,-0.840000
7.325189,-0.038552,0.013664,1.009184,0.840000,0.560000,-0.840000
7.333276,-0.038552,0.013176,1.010160,0.980000,0.560000,-0.840000
7.341364,-0.039040,0.013664,1.008696,0.840000,0.420000,-0.840000
7.349452,-0.039040,0.013176,1.009672,0.840000,0.560000,-0.840000
7.357539,-0.039040,0.013176,1.009672,0.840000,0.560000,-0.840000
7.365627,-0.039040,0.013176,1.009672,0.840000,0.560000,-0.840000
7.373714,-0.039040,0.013664,1.009672,0.840000,0.560000,-0.840000
7.381802,-0.038552,0.013176,1.010648,0.840000,0.560000,-0.840000
7.389889,-0.038552,0.013176,1.008696,0.840000,0.560000,-0.840000
7.397977,-0.038064,0.013664,1.010160,0.700000,0.560000,-0.840000
7.406064,-0.039040,0.014152,1.009672,0.840000,0.560000,-0.840000
7.414152,-0.039528,0.012688,1.009672,0.840000,0.560000,-0.840000
7.422240,-0.039040,0.012688,1.010648,0.840000,0.560000,-0.840000
7.430327,-0.039040,0.013176,1.009672,0.840000,0.560000,-0.840000
7.438415,-0.038552,0.013664,1.008696,0.840000,0.560000,-0.840000
7.446502,-0.038552,0.013176,1.009672,0.840000,0.560000,-0.840000
7.454590,-0.039528,0.013176,1.009672,0.840000,0.560000,-0.840000
7.462677,-0.038552,0.013176,1.010160,0.840000,0.560000,-0.840000
7.470765,-0.038552,0.013664,1.009184,0.840000,0.560000,-0.840000
7.478852,-0.039528,0.013176,1.009184,0.840000,0.560000,-0.840000
7.486940,-0.039040,0.013664,1.010160,0.840000,0.560000,-0.840000
7.495028,-0.039040,0.013176,1.010648,0.840000,0.560000,-0.840000
7.503115,-0.039040,0.013664,1.010160,0.840000,0.560000,-0.840000
7.511203,-0.039528,0.013664,1.008696,0.840000,0.560000,-0.840000
7.519290,-0.039040,0.014152,1.009184,0.840000,0.560000,-0.840000
7.527378,-0.039528,0.013664,1.008696,0.840000,0.560000,-0.840000
7.535465,-0.038552,0.013664,1.010160,0.840000,0.420000,-0.840000
7.543553,-0.038552,0.013176,1.010160,0.840000,0.560000,-0.840000
7.551640,-0.038552,0.013664,1.009672,0.840000,0.560000,-0.840000
7.559728,-0.038552,0.013664,1.011136,0.980000,0.560000,-0.840000
7.567816,-0.039040,0.013664,1.010160,0.840000,0.560000,-0.840000
7.575903,-0.039528,0.013176,1.010160,0.840000,0.560000,-0.840000
7.583991,-0.039040,0.013664,1.009672,0.840000,0.560000,-0.840000
7.592078,-0.039040,0.013664,1.009672,0.840000,0.560000,-0.840000
7.600166,-0.039040,0.013176,1.009672,0.840000,0.420000,-0.840000
7.608253,-0.038552,0.013176,1.009672,0.980000,0.560000,-0.840000
7.616341,-0.039040,0.013664,1.009672,0.840000,0.560000,-0.840000
7.624428,-0.039040,0.013664,1.009672,0.700000,0.560000,-0.840000
7.632516,-0.038552,0.013664,1.009672,0.840000,0.560000,-0.840000
7.640604,-0.039040,0.013664,1.008696,0.840000,0.560000,-0.840000
7.648691,-0.039528,0.013176,1.009672,0.840000,0.560000,-0.840000
7.656779,-0.038552,0.013176,1.009672,0.840000,0.560000,-0.840000
7.664866,-0.039040,0.013664,1.009184,0.840000,0.560000,-0.840000
7.672954,-0.038064,0.013664,1.009672,0.840000,0.560000,-0.840000
7.681041,-0.038552,0.013176,1.009672,0.840000,0.560000,-0.840000
7.689129,-0.039528,0.013176,1.010160,0.840000,0.560000,-0.840000
7.697217,-0.039040,0.013176,1.009672,0.840000,0.560000,-0.840000
7.705304,-0.039528,0.013176,1.009672,0.840000,0.560000,-0.840000
7.713392,-0.038552,0.013664,1.009672,0.980000,0.560000,-0.840000
7.721479,-0.039040,0.013664,1.010648,0.840000,0.560000,-0.840000
7.729567,-0.038552,0.013664,1.010160,0.840000,0.560000,-0.840000
7.737654,-0.038552,0.013176,1.009184,0.840000,0.560000,-0.840000
7.745742,-0.039528,0.013664,1.010160,0.840000,0.560000,-0.840000
7.753829,-0.039040,0.013176,1.010160,0.840000,0.560000,-0.840000
7.761917,-0.038064,0.013664,1.009184,0.840000,0.560000,-0.840000
7.770005,-0.039528,0.013664,1.010160,0.840000,0.560000,-0.840000
7.778092,-0.039528,0.013664,1.009184,0.840000,0.560000,-0.840000
7.786180,-0.038552,0.013664,1.010160,0.840000,0.560000,-0.840000
7.794267,-0.039040,0.013176,1.010648,0.700000,0.560000,-0.840000
7.802355,-0.039528,0.013176,1.009184,0.840000,0.560000,-0.840000
7.810442,-0.039040,0.013176,1.009672,0.840000,0.560000,-0.840000
7.818530,-0.039040,0.013664,1.009672,0.840000,0.560000,-0.840000
7.826617,-0.039040,0.013176,1.009672,0.840000,0.560000,-0.840000
7.834705,-0.039040,0.013176,1.010648,0.840000,0.560000,-0.840000
7.842793,-0.038552,0.013176,1.009184,0.840000,0.560000,-0.840000
7.850880,-0.039040,0.014152,1.011136,0.840000,0.560000,-0.840000
7.858968,-0.038552,0.013664,1.009184,0.840000,0.560000,-0.840000
7.867055,-0.039040,0.012688,1.010160,0.840000,0.560000,-0.840000
7.875143,-0.039040,0.013176,1.010648,0.840000,0.560000,-0.840000
7.883230,-0.039528,0.013176,1.010160,0.840000,0.560000,-0.840000
7.891318,-0.038064,0.013664,1.009184,0.840000,0.560000,-0.840000
7.899405,-0.039040,0.014152,1.009672,0.840000,0.560000,-0.840000
7.907493,-0.038064,0.014152,1.009672,0.840000,0.560000,-0.840000
7.915581,-0.039040,0.013664,1.008696,0.840000,0.560000,-0.840000
7.923668,-0.038552,0.013664,1.009672,0.840000,0.420000,-0.840000
7.931756,-0.039040,0.013176,1.010160,0.840000,0.560000,-0.840000
7.939843,-0.039528,0.013176,1.010160,0.840000,0.560000,-0.840000
7.947931,-0.039040,0.013176,1.009184,0.840000,0.560000,-0.840000
7.956018,-0.038552,0.013176,1.009672,0.840000,0.560000,-0.840000
7.964106,-0.039040,0.013664,1.009672,0.840000,0.560000,-0.840000
7.972193,-0.039040,0.013664,1.009672,0.840000,0.560000,-0.840000
7.980281,-0.039040,0.012688,1.009672,0.840000,0.560000,-0.840000
7.988369,-0.038552,0.013664,1.009184,0.840000,0.560000,-0.840000
7.996456,-0.038552,0.014152,1.009184,0.840000,0.560000,-0.840000
8.004544,-0.039040,0.013176,1.010160,0.840000,0.560000,-0.840000
8.012631,-0.039040,0.013664,1.010160,0.840000,0.560000,-0.840000
8.020719,-0.039040,0.013176,1.009184,0.840000,0.700000,-0.840000
8.028806,-0.038064,0.013664,1.008696,0.840000,0.560000,-0.840000
8.036894,-0.038552,0.013664,1.009672,0.840000,0.560000,-0.840000
8.044982,-0.039040,0.013176,1.009184,0.840000,0.560000,-0.840000
8.053069,-0.039528,0.013664,1.010160,0.840000,0.560000,-0.840000
8.061157,-0.039528,0.013664,1.009672,0.840000,0.560000,-0.840000
8.069244,-0.039040,0.012688,1.010160,0.840000,0.420000,-0.840000
8.077332,-0.039040,0.014152,1.009672,0.840000,0.560000,-0.840000
8.085419,-0.039040,0.013176,1.010648,0.840000,0.560000,-0.840000
8.093507,-0.039040,0.013176,1.009672,0.840000,0.560000,-0.840000
8.101594,-0.039040,0.014152,1.009672,0.840000,0.560000,-0.840000
8.109682,-0.039040,0.013176,1.009184,0.840000,0.560000,-0.840000
8.117770,-0.039528,0.012688,1.009184,0.700000,0.560000,-0.840000
8.125857,-0.040016,0.013664,1.009672,0.840000,0.560000,-0.840000
8.133945,-0.039040,0.013664,1.010160,0.840000,0.560000,-0.840000
8.142032,-0.039040,0.013664,1.008208,0.840000,0.560000,-0.840000
8.150120,-0.038552,0.013176,1.008696,0.840000,0.560000,-0.840000
8.158207,-0.039528,0.014640,1.010160,0.840000,0.560000,-0.840000
8.166295,-0.038552,0.013176,1.009184,0.840000,0.560000,-0.840000
8.174382,-0.040016,0.013176,1.010160,0.840000,0.560000,-0.840000
8.182470,-0.039528,0.014152,1.008696,0.840000,0.560000,-0.840000
8.190558,-0.039040,0.013664,1.009672,0.840000,0.560000,-0.840000
8.198645,-0.039528,0.012688,1.010160,0.840000,0.560000,-0.840000
8.206733,-0.039040,0.013664,1.010648,0.840000,0.560000,-0.840000
8.214820,-0.039040,0.014152,1.009184,0.840000,0.560000,-0.840000
8.222908,-0.038552,0.013664,1.009184,0.840000,0.560000,-0.840000
8.230995,-0.039040,0.013664,1.009672,0.840000,0.560000,-0.840000
8.239083,-0.039528,0.013176,1.009184,0.840000,0.700000,-0.840000
8.247171,-0.039040,0.013176,1.008696,0.840000,0.560000,-0.840000
8.255258,-0.039528,0.013176,1.010160,0.700000,0.560000,-0.840000
8.263346,-0.039528,0.013176,1.009672,0.840000,0.560000,-0.840000
8.271433,-0.039040,0.014152,1.008696,0.840000,0.560000,-0.840000
8.279521,-0.039040,0.013664,1.010160,0.840000,0.560000,-0.840000
8.287608,-0.039040,0.013176,1.009672,0.840000,0.560000,-0.840000
8.295696,-0.039040,0.014152,1.009672,0.840000,0.560000,-0.840000
8.303783,-0.039528,0.013664,1.009672,0.840000,0.560000,-0.840000
8.311871,-0.039040,0.013664,1.010160,0.840000,0.560000,-0.840000
8.319959,-0.038552,0.013664,1.009672,0.840000,0.700000,-0.840000
8.328046,-0.038552,0.013664,1.009672,0.840000,0.700000,-0.840000
8.336134,-0.038064,0.013176,1.009672,0.840000,0.560000,-0.840000
8.344221,-0.039040,0.013664,1.009672,0.840000,0.560000,-0.840000
8.352309,-0.039528,0.012688,1.010160,0.840000,0.560000,-0.840000
8.360396,-0.038552,0.013176,1.009184,0.840000,0.560000,-0.840000
8.368484,-0.039040,0.014152,1.008208,0.840000,0.560000,-0.840000
8.376571,-0.038552,0.013176,1.009672,0.840000,0.560000,-0.840000
8.384659,-0.039040,0.013664,1.010648,0.840000,0.700000,-0.840000
8.392747,-0.039528,0.014152,1.009672,0.840000,0.560000,-0.840000
8.400834,-0.039040,0.013664,1.010648,0.840000,0.560000,-0.840000
8.408922,-0.038552,0.013664,1.009672,0.840000,0.560000,-0.840000
8.417009,-0.038552,0.013664,1.010160,0.980000,0.560000,-0.840000
8.425097,-0.038552,0.012688,1.010160,0.840000,0.560000,-0.840000
8.433184,-0.038552,0.013664,1.009672,0.840000,0.560000,-0.840000
8.441272,-0.039040,0.013664,1.009672,0.840000,0.560000,-0.840000
8.449360,-0.038064,0.013664,1.009672,0.980000,0.560000,-0.840000
8.457447,-0.039040,0.013664,1.009672,0.840000,0.560000,-0.840000
8.465535,-0.040016,0.013176,1.009672,0.840000,0.560000,-0.840000
8.473622,-0.038064,0.012688,1.009672,0.840000,0.560000,-0.840000
8.481710,-0.039528,0.013664,1.009184,0.840000,0.560000,-0.840000
8.489797,-0.039528,0.013664,1.009672,0.840000,0.560000,-0.840000
8.497885,-0.038552,0.012688,1.009672,0.840000,0.560000,-0.840000
8.505972,-0.039040,0.013664,1.009672,0.840000,0.560000,-0.840000
8.514060,-0.039528,0.013664,1.010160,0.840000,0.560000,-0.840000
8.522148,-0.039040,0.013664,1.009184,0.840000,0.560000,-0.840000
8.530235,-0.038552,0.013664,1.010160,0.700000,0.560000,-0.840000
8.538323,-0.039040,0.013664,1.009184,0.840000,0.560000,-0.840000
8.546410,-0.039528,0.013176,1.010160,0.840000,0.560000,-0.840000
8.554498,-0.039040,0.013176,1.009184,0.840000,0.560000,-0.840000
8.562585,-0.039040,0.013664,1.010160,0.840000,0.560000,-0.840000
8.570673,-0.038064,0.013176,1.009184,0.840000,0.560000,-0.840000
8.578761,-0.039040,0.013176,1.009672,0.840000,0.560000,-0.840000
8.586848,-0.039040,0.013664,1.009672,0.840000,0.560000,-0.840000
8.594936,-0.038552,0.013664,1.010648,0.840000,0.560000,-0.840000
8.603023,-0.039528,0.014152,1.010160,0.840000,0.560000,-0.840000
8.611111,-0.038552,0.014152,1.010160,0.700000,0.560000,-0.840000
8.619198,-0.038064,0.013176,1.009184,0.840000,0.560000,-0.840000
8.627286,-0.039528,0.013664,1.009672,0.840000,0.560000,-0.840000
8.635373,-0.039040,0.013176,1.009672,0.840000,0.700000,-0.840000
8.643461,-0.039528,0.013176,1.008696,0.840000,0.560000,-0.840000
8.651549,-0.039040,0.013664,1.009672,0.840000,0.560000,-0.840000
8.659636,-0.039040,0.013176,1.010648,0.840000,0.560000,-0.840000
8.667724,-0.039040,0.013176,1.008696,0.980000,0.560000,-0.840000
8.675811,-0.038064,0.013664,1.009672,0.840000,0.560000,-0.840000
8.683899,-0.038552,0.013664,1.008696,0.840000,0.560000,-0.840000
8.691986,-0.039040,0.012688,1.009672,0.840000,0.560000,-0.840000
8.700074,-0.039528,0.012688,1.011136,0.840000,0.560000,-0.840000
8.708162,-0.039040,0.013176,1.009672,0.840000,0.560000,-0.840000
8.716249,-0.039040,0.013664,1.009184,0.840000,0.560000,-0.840000
8.724337,-0.039040,0.012688,1.009672,0.980000,0.560000,-0.840000
8.732424,-0.038552,0.013664,1.009672,0.840000,0.560000,-0.840000
8.740512,-0.039528,0.013176,1.010160,0.840000,0.560000,-0.840000
8.748599,-0.039040,0.013176,1.010160,0.840000,0.560000,-0.840000
8.756687,-0.039040,0.013664,1.009184,0.840000,0.420000,-0.840000
8.764774,-0.038552,0.013664,1.009184,0.840000,0.560000,-0.840000
8.772862,-0.039040,0.014152,1.009672,0.840000,0.560000,-0.840000
8.780950,-0.038552,0.013664,1.009184,0.840000,0.560000,-0.840000
8.789037,-0.039040,0.013176,1.009184,0.840000,0.560000,-0.840000
8.797125,-0.038552,0.012688,1.010160,0.840000,0.420000,-0.840000
8.805212,-0.038064,0.013176,1.008696,0.840000,0.420000,-0.840000
8.813300,-0.039040,0.013664,1.009184,0.980000,0.560000,-0.840000
8.821387,-0.039528,0.013664,1.009184,0.840000,0.420000,-0.840000
8.829475,-0.039528,0.014152,1.009672,0.840000,0.560000,-0.840000
8.837562,-0.038552,0.013176,1.009184,0.840000,0.420000,-0.840000
8.845650,-0.039040,0.014152,1.009672,0.700000,0.560000,-0.840000
8.853738,-0.039040,0.013176,1.009672,0.840000,0.560000,-0.840000
8.861825,-0.039040,0.013176,1.009672,0.840000,0.560000,-0.840000
8.869913,-0.039040,0.014152,1.009672,0.840000,0.560000,-0.840000
8.878000,-0.040016,0.013664,1.009672,0.840000,0.560000,-0.840000
8.886088,-0.039040,0.013176,1.009672,0.840000,0.560000,-0.840000
8.894175,-0.039528,0.013664,1.009184,0.840000,0.560000,-0.840000
8.902263,-0.039040,0.013176,1.010648,0.840000,0.700000,-0.840000
8.910351,-0.039040,0.013664,1.009184,0.840000,0.560000,-0.840000
8.918438,-0.038552,0.013176,1.010160,0.840000,0.560000,-0.840000
8.926526,-0.039040,0.012688,1.010160,0.840000,0.560000,-0.840000
8.934613,-0.039040,0.014152,1.009672,0.840000,0.560000,-0.840000
8.942701,-0.038552,0.013176,1.009672,0.840000,0.560000,-0.840000
8.950788,-0.038064,0.013664,1.009184,0.840000,0.560000,-0.840000
8.958876,-0.038552,0.013664,1.010160,0.700000,0.560000,-0.840000
8.966963,-0.039040,0.013664,1.009672,0.840000,0.560000,-0.840000
8.975051,-0.039040,0.013664,1.010160,0.840000,0.560000,-0.840000
8.983139,-0.039528,0.013664,1.009672,0.840000,0.560000,-0.840000
8.991226,-0.039040,0.012688,1.010160,0.840000,0.560000,-0.840000
8.999314,-0.039040,0.013664,1.010160,0.700000,0.560000,-0.840000
9.007401,-0.038064,0.014152,1.010648,0.840000,0.560000,-0.840000
9.015489,-0.038064,0.013664,1.009184,0.840000,0.560000,-0.840000
9.023576,-0.038064,0.013176,1.009184,0.840000,0.560000,-0.840000
9.031664,-0.039528,0.012688,1.010160,0.840000,0.560000,-0.840000
9.039752,-0.038552,0.012688,1.010648,0.840000,0.560000,-0.840000
9.047839,-0.038552,0.013176,1.009184,0.840000,0.560000,-0.840000
9.055927,-0.038552,0.014152,1.009672,0.840000,0.560000,-0.840000
9.064014,-0.039528,0.013664,1.009672,0.840000,0.560000,-0.840000
9.072102,-0.038552,0.014152,1.010160,0.840000,0.560000,-0.840000
9.080189,-0.038552,0.014152,1.010160,0.840000,0.560000,-0.840000
9.088277,-0.039040,0.014152,1.010648,0.840000,0.420000,-0.840000
9.096364,-0.039040,0.013664,1.009184,0.840000,0.560000,-0.840000
9.104452,-0.039040,0.014640,1.010160,0.840000,0.560000,-0.840000
9.112540,-0.039040,0.013664,1.010160,0.840000,0.560000,-0.840000
9.120627,-0.038552,0.013664,1.009672,0.840000,0.560000,-0.840000
9.128715,-0.038552,0.013176,1.010160,0.840000,0.560000,-0.840000
9.136802,-0.038064,0.013176,1.010160,0.840000,0.560000,-0.840000
9.144890,-0.039528,0.013176,1.009672,0.840000,0.560000,-0.840000
9.152977,-0.038552,0.013664,1.008208,0.840000,0.560000,-0.840000
9.161065,-0.039040,0.013664,1.009184,0.840000,0.560000,-0.840000
9.169153,-0.038552,0.013664,1.009672,0.840000,0.560000,-0.840000
9.177240,-0.039040,0.013176,1.009184,0.840000,0.560000,-0.840000
9.185328,-0.039040,0.013664,1.009672,0.840000,0.560000,-0.840000
9.193415,-0.040016,0.013664,1.009184,0.700000,0.420000,-0.840000
9.201503,-0.039040,0.013176,1.010160,0.840000,0.560000,-0.840000
9.209590,-0.039040,0.013176,1.008696,0.840000,0.560000,-0.840000
9.217678,-0.039528,0.013664,1.009672,0.840000,0.560000,-0.840000
9.225765,-0.039040,0.014152,1.010160,0.840000,0.560000,-0.840000
9.233853,-0.039528,0.013664,1.009672,0.840000,0.560000,-0.840000
9.241941,-0.039040,0.013176,1.009672,0.840000,0.700000,-0.840000
9.250028,-0.039040,0.013664,1.009672,0.840000,0.560000,-0.840000
9.258116,-0.039040,0.013664,1.010160,0.840000,0.560000,-0.840000
9.266203,-0.039528,0.013664,1.010648,0.840000,0.560000,-0.840000
9.274291,-0.039528,0.013664,1.010160,0.840000,0.560000,-0.840000
9.282378,-0.038552,0.013664,1.010648,0.840000,0.560000,-0.840000
9.290466,-0.039040,0.013664,1.009672,0.700000,0.420000,-0.840000
9.298553,-0.039040,0.013176,1.010160,0.840000,0.560000,-0.840000
9.306641,-0.039040,0.013664,1.009184,0.840000,0.700000,-0.840000
9.314729,-0.039040,0.014152,1.010648,0.840000,0.560000,-0.840000
9.322816,-0.039040,0.013176,1.010160,0.840000,0.560000,-0.840000
9.330904,-0.039040,0.013176,1.010160,0.840000,0.700000,-0.840000
9.338991,-0.038552,0.013176,1.009672,0.840000,0.560000,-0.840000
9.347079,-0.039040,0.013664,1.011136,0.980000,0.560000,-0.840000
9.355166,-0.039040,0.014152,1.009672,0.840000,0.420000,-0.840000
9.363254,-0.039528,0.013176,1.009672,0.840000,0.560000,-0.840000
9.371341,-0.039040,0.013176,1.009672,0.840000,0.560000,-0.840000
9.379429,-0.038552,0.013664,1.009672,0.840000,0.560000,-0.840000
9.387517,-0.039040,0.013664,1.009184,0.840000,0.560000,-0.840000
9.395604,-0.039040,0.014640,1.010160,0.840000,0.560000,-0.840000
9.403692,-0.038064,0.013176,1.010160,0.840000,0.560000,-0.840000
9.411779,-0.039040,0.013176,1.010160,0.840000,0.560000,-0.840000
9.419867,-0.039528,0.013664,1.008696,0.840000,0.560000,-0.840000
9.427954,-0.039528,0.013664,1.010648,0.840000,0.560000,-0.840000
9.436042,-0.038552,0.013176,1.009184,0.840000,0.560000,-0.840000
9.444130,-0.039040,0.014152,1.009184,0.840000,0.560000,-0.840000
9.452217,-0.038552,0.013176,1.009184,0.840000,0.560000,-0.840000
9.460305,-0.039040,0.013176,1.008696,0.840000,0.560000,-0.840000
9.468392,-0.039040,0.013176,1.009672,0.840000,0.700000,-0.840000
9.476480,-0.039040,0.013664,1.010160,0.840000,0.560000,-0.840000
9.484567,-0.039040,0.012688,1.009672,0.840000,0.560000,-0.840000
9.492655,-0.039040,0.013664,1.008696,0.840000,0.560000,-0.840000
9.500742,-0.039040,0.013176,1.010648,0.840000,0.420000,-0.840000
9.508830,-0.038552,0.013664,1.009184,0.700000,0.560000,-0.840000
9.516918,-0.039040,0.012688,1.009672,0.840000,0.560000,-0.840000
9.525005,-0.039040,0.013664,1.009672,0.840000,0.560000,-0.840000
9.533093,-0.039040,0.013176,1.011136,0.840000,0.560000,-0.840000
9.541180,-0.038552,0.013664,1.009184,0.840000,0.560000,-0.840000
9.549268,-0.039040,0.013176,1.010160,0.840000,0.560000,-0.840000
9.557355,-0.039040,0.014152,1.010160,0.840000,0.560000,-0.840000
9.565443,-0.040016,0.014152,1.009184,0.840000,0.560000,-0.840000
9.573530,-0.040016,0.013664,1.009672,0.840000,0.560000,-0.840000
9.581618,-0.039040,0.014152,1.008208,0.840000,0.560000,-0.840000
9.589706,-0.038552,0.013664,1.011136,0.840000,0.560000,-0.840000
9.597793,-0.039528,0.013664,1.009184,0.840000,0.560000,-0.840000
9.605881,-0.039528,0.013176,1.010160,0.840000,0.560000,-0.840000
9.613968,-0.039528,0.012688,1.009184,0.840000,0.560000,-0.840000
9.622056,-0.038064,0.013664,1.010160,0.840000,0.420000,-0.840000
9.630143,-0.039528,0.013664,1.009672,0.840000,0.560000,-0.840000
9.638231,-0.039040,0.013664,1.009672,0.840000,0.560000,-0.840000
9.646319,-0.038552,0.013176,1.009184,0.840000,0.560000,-0.840000
9.654406,-0.039040,0.013664,1.010160,0.840000,0.560000,-0.840000
9.662494,-0.039040,0.013176,1.009184,0.840000,0.560000,-0.840000
9.670581,-0.038552,0.013664,1.009672,0.840000,0.560000,-0.840000
9.678669,-0.039040,0.013664,1.010648,0.840000,0.560000,-0.840000
9.686756,-0.039040,0.013176,1.009184,0.840000,0.560000,-0.840000
9.694844,-0.039040,0.013664,1.009184,0.840000,0.560000,-0.840000
9.702931,-0.039040,0.013176,1.010648,0.840000,0.560000,-0.840000
9.711019,-0.039040,0.014152,1.010160,0.840000,0.560000,-0.840000
9.719107,-0.038552,0.013664,1.010648,0.840000,0.560000,-0.840000
9.727194,-0.038552,0.013176,1.009184,0.840000,0.560000,-0.840000
9.735282,-0.039040,0.013176,1.010160,0.840000,0.560000,-0.840000
9.743369,-0.039040,0.013664,1.009184,0.840000,0.560000,-0.840000
9.751457,-0.038552,0.013176,1.010160,0.840000,0.560000,-0.840000
9.759544,-0.038552,0.013664,1.009672,0.840000,0.560000,-0.840000
9.767632,-0.039040,0.013664,1.010648,0.840000,0.420000,-0.840000
9.775719,-0.039040,0.013664,1.010160,0.840000,0.560000,-0.840000
9.783807,-0.038064,0.013664,1.009184,0.840000,0.560000,-0.840000
9.791895,-0.038064,0.013176,1.009672,0.700000,0.560000,-0.840000
9.799982,-0.039040,0.013664,1.010160,0.840000,0.560000,-0.840000
9.808070,-0.039528,0.013176,1.010160,0.840000,0.420000,-0.840000
9.816157,-0.039040,0.013176,1.008696,0.840000,0.560000,-0.840000
9.824245,-0.038064,0.013664,1.009672,0.840000,0.560000,-0.840000
9.832332,-0.039040,0.013664,1.009184,0.840000,0.560000,-0.840000
9.840420,-0.039528,0.014152,1.010160,0.840000,0.560000,-0.840000
9.848508,-0.039528,0.013664,1.010160,0.700000,0.560000,-0.840000
9.856595,-0.038552,0.013176,1.009672,0.840000,0.560000,-0.840000
9.864683,-0.039040,0.014640,1.009672,0.840000,0.420000,-0.840000
9.872770,-0.039040,0.013664,1.009672,0.840000,0.560000,-0.840000
9.880858,-0.039040,0.013664,1.010160,0.840000,0.420000,-0.840000
9.888945,-0.040016,0.013664,1.009184,0.840000,0.560000,-0.840000
9.897033,-0.039040,0.013176,1.009672,0.840000,0.560000,-0.840000
9.905120,-0.038064,0.013664,1.009184,0.840000,0.560000,-0.840000
9.913208,-0.039040,0.013176,1.009672,0.840000,0.560000,-0.840000
9.921296,-0.039528,0.013664,1.009672,0.840000,0.560000,-0.840000
9.929383,-0.038552,0.013176,1.009672,0.840000,0.560000,-0.840000
9.937471,-0.039040,0.014152,1.008696,0.840000,0.560000,-0.840000
9.945558,-0.039040,0.013664,1.009184,0.840000,0.560000,-0.840000
9.953646,-0.038552,0.014152,1.009184,0.840000,0.560000,-0.840000
9.961733,-0.039528,0.013176,1.009184,0.840000,0.700000,-0.840000
9.969821,-0.039040,0.013664,1.009672,0.840000,0.560000,-0.840000
9.977908,-0.039528,0.013176,1.009184,0.840000,0.560000,-0.840000
9.985996,-0.038552,0.013664,1.010160,0.840000,0.560000,-0.840000
9.994084,-0.039528,0.013664,1.009672,0.840000,0.560000,-0.840000
10.002171,-0.038552,0.013664,1.008696,0.840000,0.560000,-0.840000
10.010259,-0.039040,0.013176,1.008696,0.840000,0.560000,-0.840000
10.018346,-0.039040,0.013176,1.009184,0.840000,0.560000,-0.840000
10.026434,-0.038064,0.013176,1.009184,0.840000,0.560000,-0.840000
10.034521,-0.039528,0.013176,1.010160,0.840000,0.560000,-0.840000
10.042609,-0.039040,0.014152,1.009672,0.840000,0.560000,-0.840000
10.050696,-0.038552,0.013664,1.008696,0.840000,0.560000,-0.840000
10.058784,-0.038552,0.013664,1.009672,0.840000,0.560000,-0.840000
10.066872,-0.040504,0.014152,1.010160,0.840000,0.560000,-0.840000
10.074959,-0.039040,0.013664,1.010160,0.840000,0.560000,-0.840000
10.083047,-0.038064,0.012688,1.009184,0.840000,0.560000,-0.840000
10.091134,-0.038552,0.013176,1.010160,0.840000,0.560000,-0.840000
10.099222,-0.039528,0.013664,1.009672,0.840000,0.560000,-0.840000
10.107309,-0.039040,0.013664,1.009184,0.840000,0.560000,-0.840000
10.115397,-0.039528,0.014152,1.009184,0.840000,0.420000,-0.840000
10.123485,-0.038552,0.013664,1.010160,0.980000,0.560000,-0.840000
10.131572,-0.038552,0.013176,1.010160,0.840000,0.560000,-0.840000
10.139660,-0.039040,0.013176,1.010160,0.840000,0.560000,-0.840000
10.147747,-0.040016,0.013664,1.009672,0.840000,0.560000,-0.840000
10.155835,-0.039040,0.013664,1.009184,0.840000,0.560000,-0.840000
10.163922,-0.039528,0.013176,1.008696,0.840000,0.560000,-0.840000
10.172010,-0.039040,0.013176,1.009184,0.840000,0.560000,-0.840000
10.180097,-0.039528,0.013664,1.009672,0.840000,0.560000,-0.840000
10.188185,-0.038552,0.013664,1.009184,0.840000,0.560000,-0.840000
10.196273,-0.039040,0.013176,1.009672,0.840000,0.560000,-0.840000
10.204360,-0.039040,0.013664,1.009672,0.840000,0.560000,-0.840000
10.212448,-0.039528,0.013664,1.010160,0.840000,0.560000,-0.840000
10.220535,-0.038552,0.013664,1.009184,0.840000,0.560000,-0.840000
10.228623,-0.038552,0.013664,1.009184,0.840000,0.560000,-0.840000
10.236710,-0.039040,0.013176,1.009184,0.840000,0.560000,-0.840000
10.244798,-0.039040,0.013664,1.009184,0.840000,0.560000,-0.840000
10.252886,-0.038552,0.013664,1.009184,0.840000,0.420000,-0.840000
10.260973,-0.039040,0.014152,1.009184,0.840000,0.560000,-0.840000
10.269061,-0.038064,0.013176,1.009672,0.840000,0.700000,-0.840000
10.277148,-0.038552,0.013176,1.010160,0.840000,0.560000,-0.840000
10.285236,-0.038552,0.013176,1.009184,0.840000,0.560000,-0.840000
10.293323,-0.038552,0.013664,1.008696,0.840000,0.560000,-0.840000
10.301411,-0.039040,0.013664,1.010160,0.840000,0.560000,-0.840000
10.309498,-0.039040,0.013664,1.008696,0.840000,0.560000,-0.840000
10.317586,-0.039040,0.014152,1.009672,0.840000,0.560000,-0.840000
10.325674,-0.039040,0.013176,1.009184,0.840000,0.560000,-0.840000
10.333761,-0.039528,0.013176,1.010648,0.840000,0.560000,-0.840000
10.341849,-0.039040,0.013176,1.010160,0.840000,0.560000,-0.840000
10.349936,-0.039040,0.013176,1.009672,0.840000,0.560000,-0.840000
10.358024,-0.039040,0.013176,1.009184,0.700000,0.560000,-0.840000
10.366111,-0.039040,0.013176,1.009672,0.840000,0.560000,-0.840000
10.374199,-0.039040,0.013664,1.009672,0.840000,0.420000,-0.840000
10.382287,-0.038552,0.013176,1.011136,0.840000,0.560000,-0.840000
10.390374,-0.038552,0.013176,1.010648,0.840000,0.560000,-0.840000
10.398462,-0.038552,0.013176,1.010160,0.840000,0.560000,-0.840000
10.406549,-0.039040,0.013176,1.009672,0.840000,0.560000,-0.840000
10.414637,-0.039040,0.013176,1.009184,0.840000,0.560000,-0.840000
10.422724,-0.038552,0.014152,1.008696,0.840000,0.560000,-0.840000
10.430812,-0.038552,0.013664,1.010160,0.840000,0.560000,-0.840000
10.438899,-0.039040,0.014152,1.008208,0.840000,0.700000,-0.840000
10.446987,-0.039040,0.013176,1.010160,0.840000,0.560000,-0.840000
10.455075,-0.039040,0.014640,1.008208,0.840000,0.700000,-0.840000
10.463162,-0.038552,0.013176,1.009184,0.840000,0.560000,-0.840000
10.471250,-0.038552,0.013176,1.010648,0.840000,0.560000,-0.840000
10.479337,-0.039040,0.014152,1.008696,0.840000,0.560000,-0.840000
10.487425,-0.039040,0.013176,1.009672,0.840000,0.560000,-0.840000
10.495512,-0.039040,0.013176,1.011136,0.840000,0.560000,-0.840000
10.503600,-0.039528,0.013176,1.009672,0.840000,0.560000,-0.840000
10.511687,-0.039528,0.013176,1.010160,0.840000,0.560000,-0.840000
10.519775,-0.039040,0.013664,1.009184,0.700000,0.560000,-0.840000
10.527863,-0.040016,0.013664,1.009672,0.840000,0.560000,-0.840000
10.535950,-0.039040,0.013664,1.010648,0.840000,0.560000,-0.840000
10.544038,-0.038064,0.014152,1.009672,0.840000,0.420000,-0.840000
10.552125,-0.039040,0.013176,1.008696,0.840000,0.560000,-0.840000
10.560213,-0.039040,0.013664,1.009672,0.840000,0.560000,-0.840000
10.568300,-0.038552,0.013664,1.009184,0.840000,0.560000,-0.840000
10.576388,-0.039040,0.013664,1.010648,0.840000,0.700000,-0.840000
10.584476,-0.039040,0.014152,1.009672,0.840000,0.560000,-0.840000
10.592563,-0.039040,0.013176,1.009672,0.840000,0.560000,-0.840000
10.600651,-0.039528,0.013664,1.009184,0.840000,0.560000,-0.840000
10.608738,-0.039040,0.013664,1.008696,0.840000,0.560000,-0.840000
10.616826,-0.039040,0.013664,1.009184,0.840000,0.560000,-0.840000
10.624913,-0.039528,0.013664,1.010160,0.840000,0.560000,-0.840000
10.633001,-0.038064,0.012688,1.008696,0.840000,0.560000,-0.840000
10.641088,-0.039528,0.014152,1.010160,0.840000,0.560000,-0.840000
10.649176,-0.038552,0.013664,1.009184,0.840000,0.560000,-0.840000
10.657264,-0.038064,0.014152,1.009184,0.840000,0.420000,-0.840000
10.665351,-0.039040,0.013664,1.009672,0.840000,0.560000,-0.840000
10.673439,-0.039040,0.014152,1.008696,0.840000,0.560000,-0.840000
10.681526,-0.038552,0.013176,1.009184,0.840000,0.560000,-0.840000
10.689614,-0.039528,0.013664,1.010160,0.840000,0.560000,-0.840000
10.697701,-0.039528,0.012688,1.009184,0.840000,0.560000,-0.840000
10.705789,-0.039040,0.013664,1.010160,0.700000,0.560000,-0.840000
10.713877,-0.038552,0.013664,1.009184,0.840000,0.420000,-0.840000
10.721964,-0.038064,0.013664,1.010160,0.840000,0.560000,-0.840000
10.730052,-0.039040,0.013176,1.009184,0.840000,0.560000,-0.840000
10.738139,-0.039040,0.013664,1.009184,0.840000,0.560000,-0.840000
10.746227,-0.039040,0.013176,1.009184,0.840000,0.560000,-0.840000
10.754314,-0.039040,0.013664,1.010160,0.840000,0.560000,-0.840000
10.762402,-0.039040,0.013664,1.009184,0.840000,0.560000,-0.840000
10.770489,-0.038552,0.013664,1.010648,0.840000,0.420000,-0.840000
10.778577,-0.039040,0.013664,1.009184,0.840000,0.560000,-0.840000
10.786665,-0.039528,0.013664,1.009672,0.840000,0.560000,-0.840000
10.794752,-0.038552,0.014152,1.009672,0.840000,0.560000,-0.840000
10.802840,-0.039528,0.012688,1.009672,0.840000,0.560000,-0.840000
10.810927,-0.039040,0.013176,1.008696,0.840000,0.560000,-0.840000
10.819015,-0.039040,0.013664,1.009184,0.840000,0.560000,-0.840000
10.827102,-0.039528,0.013664,1.010160,0.840000,0.560000,-0.840000
10.835190,-0.040016,0.013664,1.008696,0.840000,0.560000,-0.840000
10.843278,-0.039528,0.013664,1.010160,0.840000,0.560000,-0.840000
10.851365,-0.039040,0.013176,1.009184,0.840000,0.560000,-0.840000
10.859453,-0.039528,0.013176,1.009184,0.840000,0.560000,-0.840000
10.867540,-0.039040,0.013664,1.008696,0.840000,0.560000,-0.840000
10.875628,-0.039040,0.013176,1.009184,0.840000,0.560000,-0.840000
10.883715,-0.039528,0.013664,1.010648,0.840000,0.560000,-0.840000
10.891803,-0.039528,0.014152,1.010160,0.840000,0.560000,-0.840000
10.899890,-0.039528,0.012688,1.009184,0.840000,0.560000,-0.840000
10.907978,-0.039040,0.013176,1.009672,0.840000,0.560000,-0.840000
10.916066,-0.038552,0.013176,1.008696,0.840000,0.560000,-0.840000
10.924153,-0.038552,0.013664,1.009184,0.840000,0.560000,-0.840000
10.932241,-0.039040,0.012688,1.009184,0.840000,0.560000,-0.840000
10.940328,-0.039528,0.013176,1.008696,0.840000,0.560000,-0.840000
10.948416,-0.038552,0.013664,1.010160,0.840000,0.560000,-0.840000
10.956503,-0.040016,0.013664,1.009672,0.840000,0.560000,-0.840000
10.964591,-0.039040,0.013664,1.009184,0.840000,0.560000,-0.840000
10.972678,-0.038552,0.013176,1.009672,0.840000,0.560000,-0.840000
10.980766,-0.038552,0.013176,1.009184,0.980000,0.560000,-0.840000
10.988854,-0.039040,0.013176,1.009184,0.840000,0.560000,-0.840000
10.996941,-0.039040,0.013664,1.010160,0.840000,0.560000,-0.840000
11.005029,-0.039040,0.013176,1.009672,0.840000,0.560000,-0.840000
11.013116,-0.039528,0.013664,1.010160,0.840000,0.560000,-0.840000
11.021204,-0.040016,0.012688,1.009672,0.840000,0.560000,-0.840000
11.029291,-0.039040,0.013664,1.010160,0.840000,0.560000,-0.840000
11.037379,-0.038552,0.013664,1.010160,0.840000,0.560000,-0.840000
11.045467,-0.038552,0.013176,1.009184,0.840000,0.560000,-0.840000
11.053554,-0.039528,0.014152,1.009672,0.840000,0.560000,-0.840000
11.061642,-0.038552,0.013664,1.009672,0.840000,0.560000,-0.840000
11.069729,-0.038064,0.013176,1.008696,0.840000,0.560000,-0.840000
11.077817,-0.039528,0.013664,1.008696,0.840000,0.560000,-0.840000
11.085904,-0.039040,0.013176,1.010160,0.840000,0.560000,-0.840000
11.093992,-0.039040,0.013664,1.009672,0.840000,0.560000,-0.840000
11.102079,-0.038552,0.014152,1.009672,0.980000,0.560000,-0.840000
11.110167,-0.038552,0.013664,1.009184,0.840000,0.560000,-0.840000
11.118255,-0.039040,0.013176,1.009184,0.840000,0.560000,-0.840000
11.126342,-0.039040,0.014152,1.010160,0.840000,0.420000,-0.840000
11.134430,-0.039040,0.013664,1.009184,0.980000,0.560000,-0.840000
11.142517,-0.039040,0.013176,1.010160,0.840000,0.560000,-0.840000
11.150605,-0.039040,0.013176,1.009184,0.840000,0.560000,-0.840000
11.158692,-0.039528,0.013664,1.009184,0.840000,0.560000,-0.840000
11.166780,-0.039040,0.014152,1.009672,0.840000,0.560000,-0.840000
11.174868,-0.039040,0.013664,1.009672,0.840000,0.560000,-0.840000
11.182955,-0.039040,0.013664,1.009672,0.840000,0.560000,-0.840000
11.191043,-0.038552,0.013664,1.009672,0.700000,0.560000,-0.840000
11.199130,-0.039528,0.013664,1.010160,0.840000,0.560000,-0.840000
11.207218,-0.039040,0.013176,1.009672,0.840000,0.560000,-0.840000
11.215305,-0.039528,0.013176,1.009184,0.840000,0.560000,-0.840000
11.223393,-0.039040,0.012688,1.009184,0.840000,0.560000,-0.840000
11.231480,-0.039040,0.013176,1.009184,0.840000,0.560000,-0.840000
11.239568,-0.039528,0.013664,1.010648,0.840000,0.420000,-0.840000
11.247656,-0.038552,0.014152,1.010160,0.840000,0.560000,-0.840000
11.255743,-0.039040,0.013176,1.009672,0.840000,0.560000,-0.840000
11.263831,-0.038552,0.013176,1.010160,0.840000,0.560000,-0.840000
11.271918,-0.039040,0.013664,1.009672,0.840000,0.420000,-0.840000
11.280006,-0.039040,0.014152,1.009672,0.840000,0.560000,-0.840000
11.288093,-0.039040,0.013664,1.009672,0.840000,0.560000,-0.840000
11.296181,-0.039040,0.013176,1.009184,0.840000,0.560000,-0.840000
11.304269,-0.039040,0.013176,1.009184,0.840000,0.560000,-0.840000
11.312356,-0.039528,0.013664,1.009184,0.700000,0.560000,-0.840000
11.320444,-0.038552,0.013176,1.010160,0.840000,0.560000,-0.840000
11.328531,-0.038552,0.013176,1.010160,0.840000,0.560000,-0.840000
11.336619,-0.039040,0.013664,1.009672,0.840000,0.560000,-0.840000
11.344706,-0.039040,0.013176,1.009672,0.840000,0.560000,-0.840000
11.352794,-0.038552,0.014152,1.009184,0.840000,0.560000,-0.840000
11.360881,-0.039040,0.013664,1.009672,0.840000,0.560000,-0.840000
11.368969,-0.039040,0.013664,1.010648,0.840000,0.560000,-0.840000
11.377057,-0.038552,0.013664,1.010648,0.840000,0.560000,-0.840000
11.385144,-0.039040,0.013176,1.009672,0.980000,0.560000,-0.840000
11.393232,-0.039040,0.013176,1.008696,0.840000,0.560000,-0.840000
11.401319,-0.039040,0.013664,1.010160,0.840000,0.700000,-0.840000
11.409407,-0.039040,0.013664,1.010160,0.840000,0.560000,-0.840000
11.417494,-0.039040,0.013664,1.009672,0.840000,0.560000,-0.840000
11.425582,-0.039040,0.013176,1.010160,0.840000,0.560000,-0.840000
11.433670,-0.038552,0.013176,1.009184,0.840000,0.560000,-0.840000
11.441757,-0.039528,0.013664,1.008696,0.840000,0.560000,-0.840000
11.449845,-0.038552,0.013664,1.009184,0.840000,0.560000,-0.840000
11.457932,-0.039040,0.013176,1.009672,0.840000,0.560000,-0.840000
11.466020,-0.039528,0.013664,1.009184,0.840000,0.560000,-0.840000
11.474107,-0.038552,0.013664,1.010160,0.840000,0.420000,-0.840000
11.482195,-0.038552,0.014152,1.010160,0.840000,0.560000,-0.840000
11.490282,-0.039040,0.013176,1.010160,0.840000,0.560000,-0.840000
11.498370,-0.039528,0.013664,1.009184,0.840000,0.560000,-0.840000
11.506458,-0.039040,0.013664,1.009672,0.700000,0.560000,-0.840000
11.514545,-0.038552,0.013176,1.009672,0.840000,0.560000,-0.840000
11.522633,-0.039040,0.013664,1.009672,0.700000,0.560000,-0.840000
11.530720,-0.038552,0.013664,1.009184,0.700000,0.420000,-0.840000
11.538808,-0.038552,0.013176,1.009672,0.840000,0.560000,-0.840000
11.546895,-0.039040,0.013176,1.010648,0.840000,0.700000,-0.840000
11.554983,-0.038552,0.013176,1.009672,0.840000,0.560000,-0.840000
11.563070,-0.039528,0.013664,1.009184,0.840000,0.560000,-0.840000
11.571158,-0.039528,0.012688,1.009184,0.840000,0.560000,-0.840000
11.579246,-0.039040,0.013176,1.008696,0.840000,0.560000,-0.840000
11.587333,-0.039040,0.013664,1.009184,0.840000,0.560000,-0.840000
11.595421,-0.039040,0.013664,1.010160,0.840000,0.560000,-0.840000
11.603508,-0.038064,0.013664,1.009672,0.840000,0.560000,-0.840000
11.611596,-0.039040,0.013176,1.009672,0.840000,0.560000,-0.840000
11.619683,-0.039528,0.013664,1.009184,0.840000,0.560000,-0.840000
11.627771,-0.038552,0.013664,1.009672,0.840000,0.560000,-0.840000
11.635859,-0.038552,0.014152,1.010160,0.840000,0.560000,-0.840000
11.643946,-0.039040,0.013664,1.010160,0.840000,0.560000,-0.840000
11.652034,-0.039040,0.013176,1.010160,0.840000,0.560000,-0.840000
11.660121,-0.039040,0.013664,1.009184,0.840000,0.700000,-0.840000
11.668209,-0.039040,0.013664,1.009672,0.840000,0.560000,-0.840000
11.676296,-0.039528,0.014152,1.010160,0.840000,0.560000,-0.840000
11.684384,-0.039528,0.014152,1.009672,0.840000,0.560000,-0.840000
11.692471,-0.039040,0.013176,1.009672,0.840000,0.560000,-0.840000
11.700559,-0.039040,0.013664,1.009672,0.840000,0.560000,-0.840000
11.708647,-0.039528,0.013176,1.009672,0.840000,0.560000,-0.840000
11.716734,-0.038552,0.013664,1.009184,0.840000,0.560000,-0.840000
11.724822,-0.039528,0.013664,1.009184,0.840000,0.560000,-0.840000
11.732909,-0.038552,0.014152,1.009672,0.840000,0.560000,-0.840000
11.740997,-0.039528,0.012688,1.008696,0.840000,0.560000,-0.840000
11.749084,-0.038552,0.013664,1.009184,0.840000,0.560000,-0.840000
11.757172,-0.039040,0.013664,1.009672,0.700000,0.560000,-0.840000
11.765260,-0.039040,0.013176,1.009672,0.840000,0.560000,-0.840000
11.773347,-0.039528,0.012688,1.009672,0.840000,0.560000,-0.840000
11.781435,-0.038552,0.013664,1.010648,0.840000,0.420000,-0.840000
11.789522,-0.039528,0.013664,1.010648,0.700000,0.560000,-0.840000
11.797610,-0.039040,0.013176,1.010160,0.840000,0.560000,-0.840000
11.805697,-0.039040,0.013664,1.009672,0.840000,0.560000,-0.840000
11.813785,-0.039040,0.013664,1.010160,0.840000,0.420000,-0.840000
11.821872,-0.038552,0.013664,1.008208,0.840000,0.560000,-0.840000
11.829960,-0.038552,0.013176,1.010160,0.840000,0.560000,-0.840000
11.838048,-0.038552,0.013664,1.009672,0.840000,0.560000,-0.840000
11.846135,-0.038552,0.014152,1.009672,0.840000,0.560000,-0.840000
11.854223,-0.039528,0.013176,1.008696,0.700000,0.560000,-0.840000
11.862310,-0.038552,0.013176,1.008208,0.840000,0.560000,-0.840000
11.870398,-0.039040,0.013176,1.009184,0.840000,0.560000,-0.840000
11.878485,-0.038552,0.013176,1.010160,0.840000,0.420000,-0.840000
11.886573,-0.039040,0.012688,1.009672,0.840000,0.560000,-0.840000
11.894661,-0.038552,0.013176,1.009184,0.700000,0.560000,-0.840000
11.902748,-0.039040,0.013664,1.008696,0.840000,0.560000,-0.840000
11.910836,-0.039040,0.014152,1.008696,0.840000,0.420000,-0.840000
11.918923,-0.040016,0.014152,1.008696,0.840000,0.420000,-0.840000
11.927011,-0.038552,0.013664,1.009672,0.840000,0.560000,-0.840000
11.935098,-0.039040,0.012688,1.010160,0.700000,0.700000,-0.840000
11.943186,-0.039528,0.013664,1.010160,0.840000,0.560000,-0.840000
11.951273,-0.039040,0.013176,1.009672,0.840000,0.560000,-0.840000
11.959361,-0.039040,0.013176,1.009672,0.840000,0.560000,-0.840000
11.967449,-0.039040,0.013664,1.010160,0.980000,0.560000,-0.840000
11.975536,-0.039528,0.013664,1.008696,0.840000,0.560000,-0.840000
11.983624,-0.039040,0.013664,1.010160,0.980000,0.560000,-0.840000
11.991711,-0.039528,0.013664,1.010160,0.840000,0.560000,-0.840000
11.999799,-0.039040,0.013664,1.010160,0.840000,0.560000,-0.840000
12.007886,-0.039528,0.013176,1.009184,0.840000,0.560000,-0.840000
12.015974,-0.038064,0.013176,1.009672,0.840000,0.560000,-0.840000
12.024061,-0.039040,0.013664,1.009184,0.840000,0.560000,-0.840000
12.032149,-0.038552,0.013176,1.008208,0.840000,0.560000,-0.840000
12.040237,-0.038552,0.013176,1.008696,0.840000,0.560000,-0.840000
12.048324,-0.039040,0.013176,1.009672,0.840000,0.560000,-0.840000
12.056412,-0.040016,0.013176,1.009672,0.840000,0.560000,-0.840000
12.064499,-0.039040,0.013176,1.009672,0.840000,0.560000,-0.840000
12.072587,-0.038552,0.013176,1.010648,0.840000,0.560000,-0.840000
12.080674,-0.039528,0.013176,1.008696,0.840000,0.560000,-0.840000
12.088762,-0.039040,0.013664,1.010160,0.840000,0.420000,-0.840000
12.096850,-0.039040,0.013664,1.010648,0.840000,0.560000,-0.840000
12.104937,-0.038552,0.014152,1.010160,0.840000,0.560000,-0.840000
12.113025,-0.038552,0.013664,1.008696,0.840000,0.560000,-0.840000
12.121112,-0.039040,0.013664,1.009672,0.840000,0.560000,-0.840000
12.129200,-0.039040,0.013664,1.010160,0.840000,0.560000,-0.840000
12.137287,-0.038064,0.014152,1.009184,0.840000,0.560000,-0.840000
12.145375,-0.039528,0.013176,1.009184,0.840000,0.560000,-0.840000
12.153462,-0.038552,0.013664,1.009184,0.840000,0.560000,-0.840000
12.161550,-0.039040,0.013664,1.008696,0.840000,0.560000,-0.840000
12.169638,-0.039040,0.013664,1.009672,0.840000,0.560000,-0.840000
12.177725,-0.039528,0.013176,1.009672,0.840000,0.560000,-0.840000
12.185813,-0.039040,0.013664,1.009672,0.840000,0.560000,-0.840000
12.193900,-0.039528,0.014152,1.008208,0.840000,0.560000,-0.840000
12.201988,-0.039040,0.013664,1.009672,0.840000,0.560000,-0.840000
12.210075,-0.038552,0.013176,1.008696,0.840000,0.560000,-0.840000
12.218163,-0.039040,0.014152,1.009184,0.840000,0.420000,-0.840000
12.226251,-0.039040,0.014152,1.009672,0.840000,0.560000,-0.840000
12.234338,-0.039528,0.012688,1.009672,0.840000,0.560000,-0.840000
12.242426,-0.039040,0.014152,1.009184,0.840000,0.560000,-0.840000
12.250513,-0.039528,0.014152,1.009184,0.840000,0.560000,-0.840000
12.258601,-0.038064,0.013664,1.009672,0.840000,0.560000,-0.840000
12.266688,-0.039528,0.013664,1.009672,0.840000,0.560000,-0.840000
12.274776,-0.038552,0.014152,1.009184,0.840000,0.560000,-0.840000
12.282863,-0.038552,0.013176,1.008696,0.840000,0.560000,-0.840000
12.290951,-0.039040,0.012200,1.010160,0.840000,0.420000,-0.840000
12.299039,-0.039528,0.013664,1.009672,0.840000,0.560000,-0.840000
12.307126,-0.038552,0.013176,1.008696,0.840000,0.560000,-0.840000
12.315214,-0.039040,0.013664,1.009184,0.700000,0.560000,-0.840000
12.323301,-0.038552,0.014152,1.009184,0.840000,0.560000,-0.840000
12.331389,-0.038552,0.012688,1.007720,0.840000,0.560000,-0.840000
12.339476,-0.039528,0.013176,1.008696,0.840000,0.560000,-0.840000
12.347564,-0.039528,0.013664,1.009184,0.840000,0.560000,-0.840000
12.355652,-0.039040,0.013176,1.010648,0.840000,0.560000,-0.840000
12.363739,-0.038552,0.014152,1.010160,0.840000,0.560000,-0.840000
12.371827,-0.039040,0.014152,1.010648,0.840000,0.560000,-0.840000
12.379914,-0.038552,0.013176,1.010648,0.840000,0.560000,-0.840000
12.388002,-0.039040,0.014152,1.010160,0.700000,0.560000,-0.840000
12.396089,-0.039040,0.013176,1.010160,0.840000,0.560000,-0.840000
12.404177,-0.038064,0.014152,1.010160,0.840000,0.560000,-0.840000
12.412264,-0.039040,0.013664,1.010160,0.840000,0.560000,-0.840000
12.420352,-0.038552,0.012688,1.009184,0.840000,0.560000,-0.840000
12.428440,-0.039040,0.013664,1.009672,0.840000,0.560000,-0.840000
12.436527,-0.039040,0.013176,1.009672,0.840000,0.560000,-0.840000
12.444615,-0.039040,0.012688,1.009672,0.840000,0.560000,-0.840000
12.452702,-0.039040,0.013176,1.010160,0.840000,0.560000,-0.840000
12.460790,-0.038552,0.014152,1.010160,0.700000,0.560000,-0.840000
12.468877,-0.039528,0.013664,1.009672,0.840000,0.560000,-0.840000
12.476965,-0.039528,0.012688,1.010648,0.840000,0.560000,-0.840000
12.485052,-0.039528,0.013664,1.010160,0.840000,0.420000,-0.840000
12.493140,-0.039040,0.012688,1.008696,0.840000,0.560000,-0.840000
12.501228,-0.039040,0.013664,1.009672,0.840000,0.420000,-0.840000
12.509315,-0.039040,0.013176,1.010160,0.840000,0.560000,-0.840000
12.517403,-0.038552,0.012688,1.008696,0.840000,0.560000,-0.840000
12.525490,-0.038552,0.013176,1.010160,0.840000,0.560000,-0.840000
12.533578,-0.039528,0.013664,1.009672,0.840000,0.560000,-0.840000
12.541665,-0.039040,0.013176,1.010160,0.980000,0.560000,-0.840000
12.549753,-0.039040,0.012688,1.009672,0.840000,0.560000,-0.840000
12.557841,-0.038552,0.013176,1.008696,0.840000,0.560000,-0.840000
12.565928,-0.038552,0.013664,1.009672,0.840000,0.700000,-0.840000
12.574016,-0.039040,0.013176,1.009672,0.840000,0.560000,-0.840000
12.582103,-0.038552,0.013664,1.009184,0.840000,0.560000,-0.840000
12.590191,-0.039040,0.013664,1.009184,0.840000,0.560000,-0.840000
12.598278,-0.039528,0.013664,1.008696,0.840000,0.560000,-0.840000
12.606366,-0.039040,0.013664,1.009184,0.840000,0.560000,-0.840000
12.614453,-0.038552,0.012688,1.010160,0.840000,0.560000,-0.840000
12.622541,-0.039040,0.014152,1.010160,0.840000,0.560000,-0.840000
12.630629,-0.039528,0.014152,1.009672,0.840000,0.560000,-0.840000
12.638716,-0.039040,0.012688,1.009672,0.840000,0.420000,-0.840000
12.646804,-0.039040,0.013664,1.009672,0.840000,0.560000,-0.840000
12.654891,-0.039040,0.013176,1.008208,0.840000,0.560000,-0.840000
12.662979,-0.039528,0.013664,1.009672,0.840000,0.560000,-0.840000
12.671066,-0.039040,0.013664,1.009672,0.840000,0.560000,-0.840000
12.679154,-0.039040,0.014152,1.009672,0.840000,0.560000,-0.840000
12.687242,-0.039040,0.014152,1.009672,0.980000,0.560000,-0.840000
12.695329,-0.039040,0.013664,1.009672,0.980000,0.560000,-0.840000
12.703417,-0.039040,0.013664,1.009672,0.980000,0.560000,-0.840000
12.711504,-0.038552,0.012688,1.009184,0.840000,0.560000,-0.840000
12.719592,-0.038552,0.013664,1.009184,0.840000,0.560000,-0.840000
12.727679,-0.038552,0.012688,1.009672,0.840000,0.560000,-0.840000
12.735767,-0.039040,0.013176,1.010160,0.980000,0.560000,-0.840000
12.743854,-0.039040,0.013664,1.008208,0.840000,0.560000,-0.840000
12.751942,-0.039528,0.013176,1.009184,0.840000,0.560000,-0.840000
12.760030,-0.039040,0.013176,1.009672,0.840000,0.560000,-0.840000
12.768117,-0.040016,0.013664,1.010648,0.840000,0.560000,-0.840000
12.776205,-0.038552,0.013664,1.009672,0.840000,0.560000,-0.840000
12.784292,-0.039040,0.013176,1.010160,0.840000,0.560000,-0.840000
12.792380,-0.039528,0.013176,1.010160,0.840000,0.700000,-0.840000
12.800467,-0.039040,0.014152,1.010160,0.840000,0.560000,-0.840000
12.808555,-0.038552,0.013176,1.008696,0.840000,0.560000,-0.840000
12.816643,-0.038552,0.014640,1.010160,0.840000,0.560000,-0.840000
12.824730,-0.038552,0.013176,1.009184,0.840000,0.700000,-0.840000
12.832818,-0.038552,0.013176,1.009672,0.840000,0.560000,-0.840000
12.840905,-0.039040,0.013664,1.009672,0.840000,0.560000,-0.840000
12.848993,-0.039040,0.013664,1.009672,0.840000,0.560000,-0.840000
12.857080,-0.039040,0.014152,1.009184,0.840000,0.560000,-0.840000
12.865168,-0.039040,0.013176,1.007720,0.980000,0.560000,-0.840000
12.873255,-0.039528,0.013664,1.009672,0.840000,0.560000,-0.840000
12.881343,-0.039528,0.013176,1.008696,0.840000,0.700000,-0.840000
12.889431,-0.039040,0.012200,1.010648,0.840000,0.560000,-0.840000
12.897518,-0.039040,0.013664,1.009672,0.700000,0.560000,-0.840000
12.905606,-0.038552,0.013664,1.009184,0.840000,0.560000,-0.840000
12.913693,-0.039040,0.013664,1.008696,0.840000,0.560000,-0.840000
12.921781,-0.039040,0.013176,1.009184,0.840000,0.560000,-0.840000
12.929868,-0.038552,0.013664,1.009672,0.840000,0.560000,-0.840000
12.937956,-0.039040,0.013664,1.010648,0.840000,0.560000,-0.840000
12.946043,-0.039528,0.013176,1.009672,0.840000,0.560000,-0.840000
12.954131,-0.040016,0.013664,1.009184,0.840000,0.560000,-0.840000
12.962219,-0.039040,0.013176,1.010648,0.840000,0.560000,-0.840000
12.970306,-0.039040,0.013176,1.009672,0.840000,0.560000,-0.840000
12.978394,-0.039040,0.014152,1.009672,0.840000,0.560000,-0.840000
12.986481,-0.038064,0.013176,1.009184,0.840000,0.560000,-0.840000
12.994569,-0.040016,0.014152,1.008696,0.840000,0.560000,-0.840000
13.002656,-0.039528,0.013664,1.009672,0.840000,0.560000,-0.840000
13.010744,-0.039040,0.013176,1.009672,0.840000,0.560000,-0.840000
13.018832,-0.039040,0.014152,1.009672,0.840000,0.560000,-0.840000
13.026919,-0.039528,0.014152,1.009672,0.840000,0.560000,-0.840000
13.035007,-0.039040,0.013176,1.010648,0.840000,0.560000,-0.840000
13.043094,-0.038552,0.013664,1.010160,0.840000,0.560000,-0.840000
13.051182,-0.038552,0.012688,1.009184,0.840000,0.560000,-0.840000
13.059269,-0.038552,0.013176,1.009672,0.840000,0.560000,-0.840000
13.067357,-0.038552,0.014152,1.009672,0.840000,0.420000,-0.840000
13.075444,-0.038552,0.013664,1.010160,0.840000,0.560000,-0.840000
13.083532,-0.039040,0.013664,1.009184,0.840000,0.420000,-0.840000
13.091620,-0.038552,0.012688,1.009184,0.700000,0.700000,-0.840000
13.099707,-0.039040,0.012688,1.009184,0.840000,0.560000,-0.840000
13.107795,-0.039040,0.013664,1.009184,0.840000,0.700000,-0.840000
13.115882,-0.039040,0.012200,1.009672,0.840000,0.560000,-0.840000
13.123970,-0.038552,0.013176,1.008696,0.840000,0.560000,-0.840000
13.132057,-0.039040,0.013664,1.009672,0.840000,0.560000,-0.840000
13.140145,-0.038552,0.013664,1.009184,0.840000,0.560000,-0.840000
13.148233,-0.039040,0.013664,1.009672,0.840000,0.560000,-0.840000
13.156320,-0.039040,0.013664,1.009184,0.840000,0.560000,-0.840000
13.164408,-0.039040,0.013664,1.009672,0.840000,0.560000,-0.840000
13.172495,-0.039040,0.013176,1.010160,0.840000,0.560000,-0.840000
13.180583,-0.039528,0.014152,1.009672,0.840000,0.560000,-0.840000
13.188670,-0.039040,0.013176,1.009672,0.840000,0.560000,-0.840000
13.196758,-0.039040,0.012688,1.009672,0.840000,0.560000,-0.840000
13.204845,-0.039040,0.013176,1.009184,0.840000,0.700000,-0.840000
13.212933,-0.039040,0.013176,1.010160,0.840000,0.700000,-0.840000
13.221021,-0.039040,0.013664,1.009184,0.840000,0.560000,-0.840000
13.229108,-0.038552,0.013176,1.009184,0.840000,0.560000,-0.840000
13.237196,-0.039040,0.013664,1.009672,0.700000,0.560000,-0.840000
13.245283,-0.038552,0.013664,1.008208,0.840000,0.560000,-0.840000
13.253371,-0.038552,0.013176,1.010160,0.840000,0.560000,-0.840000
13.261458,-0.039040,0.013664,1.009672,0.840000,0.560000,-0.840000
13.269546,-0.039040,0.013664,1.009184,0.840000,0.560000,-0.840000
13.277634,-0.039040,0.013664,1.009672,0.840000,0.560000,-0.840000
13.285721,-0.039040,0.013664,1.009672,0.700000,0.560000,-0.840000
13.293809,-0.038552,0.013664,1.008208,0.840000,0.560000,-0.840000
13.301896,-0.039040,0.013664,1.009184,0.840000,0.560000,-0.840000
13.309984,-0.039528,0.012688,1.009184,0.840000,0.420000,-0.840000
13.318071,-0.039040,0.013176,1.009184,0.840000,0.560000,-0.840000
13.326159,-0.039528,0.013664,1.009672,0.840000,0.560000,-0.840000
13.334246,-0.039040,0.014152,1.008696,0.840000,0.560000,-0.840000
13.342334,-0.039040,0.014152,1.010160,0.980000,0.560000,-0.840000
13.350422,-0.039528,0.013176,1.010160,0.840000,0.560000,-0.840000
13.358509,-0.038552,0.013664,1.009672,0.840000,0.420000,-0.840000
13.366597,-0.039040,0.013176,1.010648,0.840000,0.560000,-0.840000
13.374684,-0.039040,0.013176,1.009672,0.840000,0.560000,-0.840000
13.382772,-0.039040,0.013176,1.010160,0.840000,0.560000,-0.840000
13.390859,-0.039528,0.013664,1.008696,0.840000,0.700000,-0.840000
13.398947,-0.038064,0.012200,1.010648,0.840000,0.560000,-0.840000
13.407035,-0.038552,0.013176,1.009672,0.840000,0.560000,-0.840000
13.415122,-0.040016,0.013664,1.009184,0.840000,0.560000,-0.840000
13.423210,-0.039040,0.013664,1.009672,0.980000,0.560000,-0.840000
13.431297,-0.039040,0.013176,1.010160,0.840000,0.560000,-0.840000
13.439385,-0.039040,0.013176,1.009184,0.840000,0.700000,-0.840000
13.447472,-0.039528,0.013176,1.009184,0.840000,0.560000,-0.840000
13.455560,-0.039040,0.013176,1.009184,0.840000,0.560000,-0.840000
13.463647,-0.039040,0.013176,1.009672,0.840000,0.560000,-0.840000
13.471735,-0.038552,0.013664,1.010160,0.840000,0.560000,-0.840000
13.479823,-0.039528,0.013664,1.008696,0.840000,0.560000,-0.840000
13.487910,-0.039528,0.013176,1.009184,0.840000,0.560000,-0.840000
13.495998,-0.038552,0.013664,1.008696,0.840000,0.560000,-0.840000
13.504085,-0.039040,0.013664,1.010648,0.840000,0.560000,-0.840000
13.512173,-0.038552,0.013664,1.010160,0.840000,0.560000,-0.840000
13.520260,-0.038552,0.014152,1.008208,0.840000,0.560000,-0.840000
13.528348,-0.039040,0.014152,1.010160,0.840000,0.560000,-0.840000
13.536436,-0.038064,0.013664,1.009184,0.840000,0.560000,-0.840000
13.544523,-0.039040,0.013176,1.009184,0.840000,0.560000,-0.840000
13.552611,-0.038552,0.013176,1.009672,0.840000,0.560000,-0.840000
13.560698,-0.039528,0.013176,1.009672,0.840000,0.420000,-0.840000
13.568786,-0.039040,0.013664,1.009672,0.840000,0.560000,-0.840000
13.576873,-0.038552,0.013664,1.009672,0.840000,0.560000,-0.840000
13.584961,-0.039040,0.013664,1.010160,0.840000,0.560000,-0.840000
13.593049,-0.038552,0.012688,1.009184,0.840000,0.560000,-0.840000
13.601136,-0.039040,0.013176,1.010160,0.980000,0.560000,-0.840000
13.609224,-0.038064,0.013664,1.009672,0.980000,0.560000,-0.840000
13.617311,-0.039528,0.013176,1.009672,0.840000,0.560000,-0.840000
13.625399,-0.039040,0.013176,1.010160,0.840000,0.560000,-0.840000
13.633486,-0.039040,0.012688,1.009672,0.840000,0.700000,-0.840000
13.641574,-0.038552,0.013664,1.009184,0.840000,0.560000,-0.840000
13.649661,-0.039040,0.013176,1.008696,0.840000,0.560000,-0.840000
13.657749,-0.039528,0.013664,1.009184,0.840000,0.560000,-0.840000
13.665837,-0.038064,0.013664,1.009672,0.840000,0.420000,-0.840000
13.673924,-0.039040,0.013176,1.009184,0.840000,0.560000,-0.840000
13.682012,-0.039528,0.013664,1.008696,0.840000,0.560000,-0.840000
13.690099,-0.039040,0.013176,1.008696,0.840000,0.560000,-0.840000
13.698187,-0.038552,0.013664,1.010160,0.840000,0.560000,-0.840000
13.706274,-0.039040,0.014152,1.009672,0.840000,0.560000,-0.840000
13.714362,-0.039040,0.013664,1.009672,0.840000,0.560000,-0.840000
13.722450,-0.039528,0.013176,1.010160,0.840000,0.560000,-0.840000
13.730537,-0.040016,0.012688,1.009672,0.840000,0.560000,-0.840000
13.738625,-0.039040,0.013664,1.009184,0.840000,0.560000,-0.840000
13.746712,-0.039040,0.014152,1.010160,0.840000,0.560000,-0.840000
13.754800,-0.038552,0.013176,1.009672,0.840000,0.560000,-0.840000
13.762887,-0.039528,0.013176,1.009672,0.700000,0.700000,-0.840000
13.770975,-0.038552,0.013664,1.009672,0.840000,0.560000,-0.840000
13.779062,-0.039528,0.012688,1.010648,0.840000,0.560000,-0.840000
13.787150,-0.039040,0.013664,1.010648,0.840000,0.560000,-0.840000
13.795238,-0.039040,0.013176,1.009184,0.840000,0.560000,-0.840000
13.803325,-0.039040,0.014152,1.007720,0.840000,0.560000,-0.840000
13.811413,-0.039040,0.013176,1.009672,0.840000,0.560000,-0.840000
13.819500,-0.039040,0.013664,1.009672,0.840000,0.560000,-0.840000
13.827588,-0.039040,0.013664,1.009672,0.840000,0.560000,-0.840000
13.835675,-0.038552,0.013176,1.009184,0.840000,0.560000,-0.840000
13.843763,-0.039528,0.012688,1.010648,0.840000,0.700000,-0.840000
13.851851,-0.039040,0.013176,1.008208,0.840000,0.560000,-0.840000
13.859938,-0.039040,0.013664,1.009184,0.840000,0.560000,-0.840000
13.868026,-0.038064,0.013664,1.009184,0.840000,0.560000,-0.840000
13.876113,-0.038552,0.013664,1.010648,0.840000,0.560000,-0.840000
13.884201,-0.038552,0.013176,1.009672,0.840000,0.560000,-0.840000
13.892288,-0.039040,0.013176,1.009184,0.840000,0.560000,-0.840000
13.900376,-0.038552,0.013664,1.010160,0.840000,0.560000,-0.840000
13.908463,-0.039040,0.013664,1.008696,0.840000,0.560000,-0.840000
13.916551,-0.038552,0.013176,1.009184,0.840000,0.560000,-0.840000
13.924639,-0.039528,0.012688,1.009672,0.840000,0.560000,-0.840000
13.932726,-0.038552,0.013176,1.009184,0.840000,0.560000,-0.840000
13.940814,-0.038552,0.013664,1.009672,0.840000,0.700000,-0.840000
13.948901,-0.039040,0.013664,1.009184,0.840000,0.560000,-0.840000
13.956989,-0.039528,0.014640,1.009184,0.840000,0.560000,-0.840000
13.965076,-0.039040,0.013664,1.009184,0.840000,0.560000,-0.840000
13.973164,-0.039040,0.014152,1.008208,0.840000,0.560000,-0.840000
13.981252,-0.039040,0.013664,1.009184,0.840000,0.560000,-0.840000
13.989339,-0.039040,0.013176,1.009672,0.840000,0.560000,-0.840000
13.997427,-0.039040,0.013176,1.009184,0.840000,0.560000,-0.840000
14.005514,-0.038552,0.013176,1.009672,0.840000,0.560000,-0.840000
14.013602,-0.038552,0.013664,1.008696,0.840000,0.560000,-0.840000
14.021689,-0.039040,0.013176,1.008696,0.840000,0.560000,-0.840000
14.029777,-0.039040,0.013176,1.009672,0.840000,0.560000,-0.840000
14.037864,-0.038552,0.014152,1.009184,0.840000,0.560000,-0.840000
14.045952,-0.039528,0.013664,1.009672,0.700000,0.560000,-0.840000
14.054040,-0.038552,0.013664,1.010648,0.840000,0.560000,-0.840000
14.062127,-0.038552,0.014152,1.009672,0.840000,0.560000,-0.840000
14.070215,-0.039040,0.013664,1.010160,0.840000,0.560000,-0.840000
14.078302,-0.039040,0.013176,1.009672,0.840000,0.560000,-0.840000
14.086390,-0.038552,0.013176,1.010160,0.840000,0.560000,-0.840000
14.094477,-0.038552,0.013176,1.010160,0.840000,0.560000,-0.840000
14.102565,-0.039040,0.012688,1.010160,0.840000,0.700000,-0.840000
14.110652,-0.039528,0.013176,1.010160,0.840000,0.700000,-0.840000
14.118740,-0.039040,0.013664,1.009672,0.840000,0.560000,-0.840000
14.126828,-0.039528,0.012200,1.009672,0.840000,0.560000,-0.840000
14.134915,-0.039040,0.013664,1.009672,0.840000,0.560000,-0.840000
14.143003,-0.039528,0.013664,1.010648,0.840000,0.560000,-0.840000
14.151090,-0.039528,0.013176,1.010648,0.840000,0.560000,-0.840000
14.159178,-0.039528,0.013176,1.009184,0.840000,0.560000,-0.840000
14.167265,-0.039528,0.013664,1.009672,0.840000,0.560000,-0.840000
14.175353,-0.039528,0.013664,1.008696,0.840000,0.560000,-0.840000
14.183441,-0.038552,0.013176,1.009672,0.980000,0.560000,-0.840000
14.191528,-0.039528,0.013664,1.009184,0.840000,0.560000,-0.840000
14.199616,-0.039040,0.013176,1.010160,0.840000,0.560000,-0.840000
14.207703,-0.040016,0.013664,1.008208,0.840000,0.560000,-0.840000
14.215791,-0.038552,0.013176,1.008208,0.840000,0.700000,-0.840000
14.223878,-0.038552,0.013664,1.008696,0.840000,0.560000,-0.840000
14.231966,-0.039040,0.013664,1.009184,0.840000,0.560000,-0.840000
14.240053,-0.039040,0.013176,1.009672,0.840000,0.560000,-0.840000
14.248141,-0.039040,0.013176,1.009672,0.840000,0.560000,-0.840000
14.256229,-0.038552,0.013176,1.009672,0.840000,0.560000,-0.840000
14.264316,-0.039040,0.014152,1.009184,0.840000,0.560000,-0.840000
14.272404,-0.038064,0.013176,1.009184,0.840000,0.560000,-0.840000
14.280491,-0.038552,0.013176,1.008696,0.840000,0.560000,-0.840000
14.288579,-0.039040,0.014152,1.009184,0.840000,0.560000,-0.840000
14.296666,-0.039040,0.013664,1.010160,0.840000,0.560000,-0.840000
14.304754,-0.039040,0.013664,1.009672,0.840000,0.560000,-0.840000
14.312842,-0.038552,0.013664,1.009184,0.840000,0.560000,-0.840000
14.320929,-0.039528,0.013664,1.008696,0.840000,0.560000,-0.840000
14.329017,-0.039040,0.014152,1.009672,0.840000,0.560000,-0.840000
14.337104,-0.039528,0.013664,1.010160,0.840000,0.560000,-0.840000
14.345192,-0.039040,0.013664,1.010160,0.840000,0.560000,-0.840000
14.353279,-0.039040,0.013176,1.009184,0.840000,0.560000,-0.840000
14.361367,-0.038552,0.013176,1.009184,0.840000,0.560000,-0.840000
14.369454,-0.039040,0.013176,1.010160,0.840000,0.560000,-0.840000
14.377542,-0.038552,0.013176,1.009184,0.840000,0.560000,-0.840000
14.385630,-0.039040,0.013176,1.009184,0.840000,0.560000,-0.840000
14.393717,-0.039040,0.013664,1.010160,0.840000,0.560000,-0.840000
14.401805,-0.038552,0.013664,1.009672,0.840000,0.560000,-0.840000
14.409892,-0.039040,0.013664,1.009672,0.840000,0.560000,-0.840000
14.417980,-0.039040,0.012688,1.009672,0.840000,0.560000,-0.840000
14.426067,-0.039040,0.013176,1.009184,0.840000,0.560000,-0.840000
14.434155,-0.038552,0.013664,1.010160,0.840000,0.560000,-0.840000
14.442243,-0.038552,0.013664,1.009672,0.840000,0.560000,-0.840000
14.450330,-0.039040,0.013176,1.009672,0.840000,0.560000,-0.840000
14.458418,-0.039528,0.013664,1.009184,0.840000,0.560000,-0.840000
14.466505,-0.039528,0.013664,1.009672,0.840000,0.560000,-0.840000
14.474593,-0.038552,0.013664,1.009184,0.840000,0.560000,-0.840000
14.482680,-0.039040,0.012688,1.009184,0.840000,0.560000,-0.840000
14.490768,-0.039040,0.013664,1.008696,0.840000,0.420000,-0.840000
14.498855,-0.039040,0.013664,1.009184,0.840000,0.560000,-0.840000
14.506943,-0.039040,0.013664,1.009184,0.840000,0.560000,-0.840000
14.515031,-0.038552,0.013176,1.010160,0.700000,0.560000,-0.840000
14.523118,-0.039040,0.013176,1.009672,0.840000,0.560000,-0.840000
14.531206,-0.039040,0.014152,1.008696,0.840000,0.560000,-0.840000
14.539293,-0.039528,0.014152,1.009184,0.840000,0.560000,-0.840000
14.547381,-0.039528,0.013664,1.010160,0.700000,0.560000,-0.840000
14.555468,-0.039040,0.013176,1.009184,0.840000,0.560000,-0.840000
14.563556,-0.039040,0.013664,1.008208,0.980000,0.560000,-0.840000
14.571643,-0.039040,0.013176,1.009672,0.840000,0.560000,-0.840000
14.579731,-0.039040,0.014152,1.008696,0.840000,0.560000,-0.840000
14.587819,-0.038552,0.013664,1.009184,0.840000,0.560000,-0.840000
14.595906,-0.039528,0.013176,1.009672,0.840000,0.560000,-0.840000
14.603994,-0.038064,0.014152,1.010160,0.840000,0.560000,-0.840000
14.612081,-0.038552,0.012688,1.009184,0.840000,0.560000,-0.840000
14.620169,-0.039040,0.014152,1.008696,0.840000,0.560000,-0.840000
14.628256,-0.038552,0.013664,1.008696,0.840000,0.560000,-0.840000
14.636344,-0.039040,0.013664,1.008696,0.840000,0.560000,-0.840000
14.644432,-0.039528,0.014152,1.009672,0.840000,0.560000,-0.840000
14.652519,-0.039040,0.013664,1.009672,0.840000,0.560000,-0.840000
14.660607,-0.039528,0.014152,1.009184,0.840000,0.560000,-0.840000
14.668694,-0.039528,0.013664,1.009672,0.840000,0.560000,-0.840000
14.676782,-0.039040,0.013664,1.009672,0.840000,0.560000,-0.840000
14.684869,-0.039040,0.012688,1.009672,0.840000,0.560000,-0.840000
14.692957,-0.040016,0.013664,1.008696,0.700000,0.560000,-0.840000
14.701044,-0.038552,0.013664,1.009184,0.840000,0.560000,-0.840000
14.709132,-0.039528,0.012688,1.010160,0.840000,0.700000,-0.840000
14.717220,-0.038552,0.013664,1.009672,0.700000,0.560000,-0.840000
14.725307,-0.039528,0.013176,1.009672,0.840000,0.560000,-0.840000
14.733395,-0.038552,0.013176,1.009184,0.840000,0.700000,-0.840000
14.741482,-0.039040,0.013176,1.009184,0.840000,0.560000,-0.840000
14.749570,-0.038552,0.013176,1.009184,0.840000,0.560000,-0.840000
14.757657,-0.038552,0.013176,1.008208,0.840000,0.560000,-0.840000
14.765745,-0.039040,0.013664,1.009184,0.840000,0.560000,-0.840000
14.773833,-0.038552,0.013176,1.009672,0.840000,0.560000,-0.840000
14.781920,-0.038552,0.013664,1.010160,0.700000,0.560000,-0.840000
14.790008,-0.038552,0.013664,1.010160,0.840000,0.560000,-0.840000
14.798095,-0.038552,0.013664,1.008696,0.840000,0.560000,-0.840000
14.806183,-0.040016,0.012688,1.008696,0.840000,0.560000,-0.840000
14.814270,-0.039528,0.013664,1.009184,0.700000,0.560000,-0.840000
14.822358,-0.039528,0.013664,1.010160,0.840000,0.560000,-0.840000
14.830445,-0.039528,0.013176,1.009184,0.840000,0.560000,-0.840000
14.838533,-0.039528,0.013664,1.009184,0.840000,0.560000,-0.840000
14.846621,-0.039040,0.013176,1.009184,0.840000,0.560000,-0.840000
14.854708,-0.039528,0.013176,1.009672,0.840000,0.560000,-0.840000
14.862796,-0.039040,0.014152,1.009184,0.840000,0.560000,-0.840000
14.870883,-0.039040,0.013664,1.008696,0.840000,0.560000,-0.840000
14.878971,-0.040016,0.013664,1.009672,0.840000,0.700000,-0.840000
14.887058,-0.039528,0.014152,1.009672,0.840000,0.700000,-0.840000
14.895146,-0.038552,0.013176,1.009672,0.840000,0.560000,-0.840000
14.903234,-0.039528,0.013176,1.009184,0.840000,0.560000,-0.840000
14.911321,-0.039528,0.012688,1.008696,0.840000,0.560000,-0.840000
14.919409,-0.039528,0.012688,1.010160,0.840000,0.560000,-0.840000
14.927496,-0.039040,0.014152,1.009184,0.840000,0.560000,-0.840000
14.935584,-0.039528,0.013176,1.008696,0.840000,0.560000,-0.840000
14.943671,-0.039040,0.013176,1.009672,0.840000,0.560000,-0.840000
14.951759,-0.038552,0.013664,1.009184,0.840000,0.560000,-0.840000
14.959846,-0.039040,0.013176,1.009672,0.840000,0.560000,-0.840000
14.967934,-0.039040,0.014152,1.009184,0.980000,0.560000,-0.840000
14.976022,-0.039040,0.013176,1.008696,0.840000,0.560000,-0.840000
14.984109,-0.039040,0.013176,1.009184,0.840000,0.560000,-0.840000
14.992197,-0.038552,0.013176,1.009672,0.840000,0.560000,-0.840000
15.000284,-0.039040,0.013664,1.010160,0.840000,0.560000,-0.840000
15.008372,-0.038552,0.013176,1.008696,0.840000,0.560000,-0.840000
15.016459,-0.039040,0.013664,1.009184,0.840000,0.560000,-0.840000
15.024547,-0.039040,0.013664,1.009672,0.840000,0.560000,-0.840000
15.032635,-0.039040,0.013664,1.009672,0.700000,0.560000,-0.840000
15.040722,-0.039040,0.013664,1.008696,0.840000,0.560000,-0.840000
15.048810,-0.039040,0.014152,1.010160,0.840000,0.560000,-0.840000
15.056897,-0.038552,0.013176,1.010160,0.840000,0.700000,-0.840000
15.064985,-0.038552,0.013176,1.009672,0.840000,0.560000,-0.840000
15.073072,-0.039040,0.013176,1.010160,0.700000,0.560000,-0.840000
15.081160,-0.039528,0.013176,1.009672,0.840000,0.560000,-0.840000
15.089247,-0.039040,0.013176,1.009672,0.840000,0.560000,-0.840000
15.097335,-0.039528,0.013664,1.010648,0.840000,0.560000,-0.840000
15.105423,-0.039040,0.013176,1.010160,0.840000,0.560000,-0.840000
15.113510,-0.038552,0.013176,1.010648,0.840000,0.560000,-0.840000
15.121598,-0.039528,0.013664,1.009672,0.840000,0.560000,-0.840000
15.129685,-0.039040,0.013664,1.010160,0.840000,0.560000,-0.840000
15.137773,-0.039528,0.013176,1.010160,0.840000,0.560000,-0.840000
15.145860,-0.038552,0.014152,1.009184,0.840000,0.560000,-0.840000
15.153948,-0.039040,0.013176,1.010160,0.840000,0.560000,-0.840000
15.162036,-0.039040,0.013664,1.009184,0.840000,0.560000,-0.840000
15.170123,-0.039040,0.012688,1.008208,0.840000,0.560000,-0.840000
15.178211,-0.038552,0.013664,1.009184,0.840000,0.560000,-0.840000
15.186298,-0.039040,0.013664,1.009184,0.840000,0.560000,-0.840000
15.194386,-0.039040,0.013664,1.009672,0.840000,0.560000,-0.840000
15.202473,-0.038552,0.013176,1.009672,0.840000,0.560000,-0.840000
15.210561,-0.039040,0.013664,1.009672,0.840000,0.560000,-0.840000
15.218649,-0.038552,0.013176,1.009672,0.840000,0.420000,-0.840000
15.226736,-0.039040,0.013176,1.009184,0.840000,0.560000,-0.840000
15.234824,-0.039040,0.012688,1.009184,0.840000,0.560000,-0.840000
15.242911,-0.039040,0.013176,1.009184,0.700000,0.560000,-0.840000
15.250999,-0.039040,0.013664,1.009672,0.840000,0.560000,-0.840000
15.259086,-0.039040,0.013176,1.009672,0.840000,0.560000,-0.840000
15.267174,-0.039040,0.013664,1.010160,0.700000,0.560000,-0.840000
15.275261,-0.038552,0.013176,1.010160,0.840000,0.560000,-0.840000
15.283349,-0.038552,0.013176,1.009184,0.840000,0.560000,-0.840000
15.291437,-0.039528,0.013664,1.008696,0.840000,0.700000,-0.840000
15.299524,-0.039040,0.012688,1.009672,0.840000,0.560000,-0.840000
15.307612,-0.039040,0.013176,1.010160,0.840000,0.560000,-0.840000
15.315699,-0.039040,0.013176,1.008208,0.840000,0.560000,-0.840000
15.323787,-0.039040,0.013664,1.008696,0.840000,0.420000,-0.840000
15.331874,-0.039040,0.013176,1.009184,0.840000,0.560000,-0.840000
15.339962,-0.038552,0.013176,1.009672,0.840000,0.560000,-0.840000
15.348050,-0.039040,0.013176,1.010160,0.840000,0.560000,-0.840000
15.356137,-0.038552,0.012200,1.009672,0.840000,0.560000,-0.840000
15.364225,-0.038064,0.013664,1.009672,0.840000,0.560000,-0.840000
15.372312,-0.039040,0.013176,1.009672,0.840000,0.560000,-0.840000
15.380400,-0.038552,0.013176,1.009672,0.840000,0.560000,-0.840000
15.388487,-0.038552,0.013664,1.009672,0.840000,0.560000,-0.840000
15.396575,-0.038552,0.013176,1.009672,0.840000,0.560000,-0.840000
15.404662,-0.039040,0.013176,1.008696,0.840000,0.560000,-0.840000
15.412750,-0.039040,0.013664,1.008208,0.840000,0.560000,-0.840000
15.420838,-0.038552,0.013176,1.009184,0.840000,0.560000,-0.840000
15.428925,-0.039040,0.012688,1.010160,0.700000,0.560000,-0.840000
15.437013,-0.038552,0.013176,1.009184,0.840000,0.560000,-0.840000
15.445100,-0.038552,0.013176,1.009184,0.840000,0.560000,-0.840000
15.453188,-0.039040,0.013176,1.009184,0.840000,0.560000,-0.840000
15.461275,-0.039040,0.013664,1.009184,0.840000,0.560000,-0.840000
15.469363,-0.039040,0.013176,1.010160,0.840000,0.560000,-0.840000
15.477451,-0.039040,0.013176,1.009184,0.840000,0.560000,-0.840000
15.485538,-0.039528,0.014152,1.009672,0.840000,0.560000,-0.840000
15.493626,-0.038552,0.013176,1.009184,0.840000,0.560000,-0.840000
15.501713,-0.038064,0.013664,1.010160,0.840000,0.560000,-0.840000
15.509801,-0.038552,0.013176,1.008208,0.840000,0.560000,-0.840000
15.517888,-0.038064,0.013176,1.009672,0.840000,0.560000,-0.840000
15.525976,-0.039040,0.013176,1.010160,0.840000,0.560000,-0.840000
15.534064,-0.039040,0.013664,1.008696,0.840000,0.560000,-0.840000
15.542151,-0.039040,0.013176,1.009672,0.840000,0.560000,-0.840000
15.550239,-0.038552,0.013664,1.009184,0.840000,0.560000,-0.840000
15.558326,-0.039040,0.013176,1.009184,0.840000,0.560000,-0.840000
15.566414,-0.039528,0.013664,1.009672,0.840000,0.560000,-0.840000
15.574501,-0.039040,0.013664,1.009184,0.840000,0.560000,-0.840000
15.582589,-0.039040,0.013664,1.009184,0.840000,0.560000,-0.840000
15.590676,-0.039040,0.012688,1.009184,0.840000,0.560000,-0.840000
15.598764,-0.038552,0.013176,1.008696,0.840000,0.420000,-0.840000
15.606852,-0.038552,0.013176,1.009672,0.840000,0.560000,-0.840000
15.614939,-0.039528,0.013664,1.009672,0.840000,0.560000,-0.840000
15.623027,-0.039040,0.013664,1.009184,0.840000,0.560000,-0.840000
15.631114,-0.039040,0.013176,1.009672,0.840000,0.560000,-0.840000
15.639202,-0.038552,0.012688,1.010160,0.840000,0.560000,-0.840000
15.647289,-0.039040,0.013176,1.009184,0.840000,0.560000,-0.840000
15.655377,-0.039528,0.013176,1.009184,0.840000,0.560000,-0.840000
15.663465,-0.039040,0.013664,1.009672,0.840000,0.560000,-0.840000
15.671552,-0.039040,0.013176,1.009184,0.840000,0.560000,-0.840000
15.679640,-0.039040,0.013176,1.009672,0.840000,0.560000,-0.840000
15.687727,-0.039528,0.013664,1.009184,0.840000,0.420000,-0.840000
15.695815,-0.039528,0.013176,1.009184,0.840000,0.420000,-0.840000
15.703902,-0.038552,0.013176,1.009672,0.840000,0.560000,-0.840000
15.711990,-0.039528,0.013664,1.008208,0.840000,0.560000,-0.840000
15.720077,-0.039040,0.014152,1.009184,0.700000,0.560000,-0.840000
15.728165,-0.039528,0.013176,1.009184,0.840000,0.560000,-0.840000
15.736253,-0.039040,0.013176,1.009184,0.840000,0.560000,-0.840000
15.744340,-0.039040,0.013176,1.009184,0.840000,0.560000,-0.840000
15.752428,-0.039528,0.013664,1.009184,0.840000,0.560000,-0.840000
15.760515,-0.038552,0.013664,1.009184,0.980000,0.560000,-0.840000
15.768603,-0.038064,0.013176,1.009672,0.840000,0.560000,-0.840000
15.776690,-0.039040,0.014152,1.009672,0.840000,0.560000,-0.840000
15.784778,-0.039040,0.013664,1.008208,0.840000,0.560000,-0.840000
15.792866,-0.039528,0.013176,1.009672,0.840000,0.560000,-0.840000
15.800953,-0.039040,0.013176,1.010160,0.840000,0.560000,-0.840000
15.809041,-0.039040,0.013176,1.009184,0.840000,0.560000,-0.840000
15.817128,-0.039040,0.013664,1.010160,0.840000,0.560000,-0.840000
15.825216,-0.040016,0.013176,1.009672,0.840000,0.560000,-0.840000
15.833303,-0.038552,0.014152,1.009184,0.840000,0.560000,-0.840000
15.841391,-0.039528,0.014152,1.010160,0.840000,0.560000,-0.840000
15.849479,-0.039040,0.013664,1.009184,0.840000,0.560000,-0.840000
15.857566,-0.039040,0.014152,1.009184,0.840000,0.560000,-0.840000
15.865654,-0.038064,0.013664,1.009672,0.840000,0.560000,-0.840000
15.873741,-0.038552,0.013664,1.008696,0.840000,0.560000,-0.840000
15.881829,-0.039528,0.014152,1.009184,0.840000,0.560000,-0.840000
15.889916,-0.039528,0.013664,1.008208,0.840000,0.560000,-0.840000
15.898004,-0.038552,0.012200,1.009672,0.840000,0.560000,-0.840000
15.906091,-0.039528,0.013176,1.009672,0.840000,0.560000,-0.840000
15.914179,-0.039528,0.013176,1.009184,0.840000,0.560000,-0.840000
15.922267,-0.039528,0.014152,1.009184,0.840000,0.560000,-0.840000
15.930354,-0.039040,0.013176,1.009184,0.840000,0.560000,-0.840000
15.938442,-0.039528,0.013664,1.008696,0.840000,0.420000,-0.840000
15.946529,-0.039528,0.013664,1.009184,0.840000,0.560000,-0.840000
15.954617,-0.038552,0.013176,1.009184,0.840000,0.700000,-0.840000
15.962704,-0.039040,0.013176,1.008696,0.840000,0.560000,-0.840000
15.970792,-0.039040,0.012688,1.008696,0.840000,0.560000,-0.840000
15.978880,-0.039040,0.013176,1.009672,0.840000,0.560000,-0.840000
15.986967,-0.039528,0.013176,1.009184,0.700000,0.420000,-0.840000
15.995055,-0.039040,0.014152,1.009184,0.840000,0.560000,-0.840000
16.003142,-0.038064,0.013664,1.010160,0.840000,0.560000,-0.840000
16.011230,-0.038552,0.014152,1.010648,0.840000,0.560000,-0.840000
16.019317,-0.039040,0.012688,1.009672,0.840000,0.560000,-0.840000
16.027405,-0.039040,0.013176,1.008696,0.840000,0.560000,-0.840000
16.035492,-0.039528,0.013176,1.010160,0.840000,0.560000,-0.840000
16.043580,-0.040016,0.013664,1.010160,0.840000,0.560000,-0.840000
16.051668,-0.039528,0.013664,1.009672,0.840000,0.560000,-0.840000
16.059755,-0.039040,0.013664,1.009672,0.840000,0.560000,-0.840000
16.067843,-0.039528,0.013176,1.008696,0.840000,0.560000,-0.840000
16.075930,-0.039528,0.013664,1.008696,0.840000,0.560000,-0.840000
16.084018,-0.039528,0.013176,1.008208,0.840000,0.560000,-0.840000
16.092105,-0.038552,0.013176,1.009184,0.840000,0.560000,-0.840000
16.100193,-0.038064,0.013176,1.010648,0.980000,0.560000,-0.840000
16.108281,-0.038552,0.013664,1.010160,0.840000,0.560000,-0.840000
16.116368,-0.038552,0.013664,1.009184,0.840000,0.560000,-0.840000
16.124456,-0.039528,0.013664,1.008208,0.840000,0.560000,-0.840000
16.132543,-0.039040,0.013176,1.009672,0.840000,0.560000,-0.840000
16.140631,-0.038552,0.012688,1.009184,0.700000,0.560000,-0.840000
16.148718,-0.039528,0.013176,1.009184,0.700000,0.560000,-0.840000
16.156806,-0.039528,0.013176,1.008696,0.840000,0.560000,-0.840000
16.164893,-0.038552,0.014152,1.008208,0.840000,0.560000,-0.840000
16.172981,-0.039040,0.013664,1.008696,0.700000,0.560000,-0.840000
