Time [s],lsm6dsv16x_acc_x [g],lsm6dsv16x_acc_y [g],lsm6dsv16x_acc_z [g],lsm6dsv16x_gyro_x [dps],lsm6dsv16x_gyro_y [dps],lsm6dsv16x_gyro_z [dps]
41.170578,-0.075152,-0.267424,0.844728,0.560000,6.720000,-3.360000
41.174644,-0.111264,-0.285480,0.967704,-2.660000,0.700000,-0.980000
41.178710,0.048800,-0.272792,1.023336,1.820000,-5.880000,3.360000
41.182776,0.083448,-0.298168,1.021872,3.220000,-3.780000,0.000000
41.186842,-0.063440,-0.201544,0.882792,-2.240000,1.120000,-3.640000
41.190908,-0.011224,-0.192760,0.940376,-2.240000,6.440000,-1.960000
41.194974,-0.123952,-0.294752,1.023336,-1.540000,1.680000,0.980000
41.199040,0.104920,-0.387960,1.021384,1.400000,-11.620000,2.660000
41.203106,0.065392,-0.211792,0.918416,2.800000,-3.920000,-1.540000
41.207172,-0.061976,-0.193248,0.882792,-3.920000,12.180000,-3.640000
41.211238,-0.054168,-0.274744,1.018944,-2.380000,3.920000,-0.280000
41.215304,-0.038552,-0.291824,1.009184,3.780000,-9.240000,2.520000
41.219370,0.026840,-0.350872,0.940376,0.980000,-6.580000,0.420000
41.223436,0.057096,-0.165920,1.010648,-2.100000,2.800000,-2.240000
41.227502,0.006344,-0.235704,0.937448,-0.140000,6.160000,-1.960000
41.231568,-0.164456,-0.346968,1.027240,-3.220000,0.700000,-1.120000
41.235634,0.028304,-0.260592,0.965752,0.000000,-7.840000,3.640000
41.239700,0.139568,-0.240584,1.013088,2.380000,-2.800000,0.700000
41.243766,-0.020008,-0.278160,0.965264,-2.940000,3.640000,-4.340000
41.247833,-0.052704,-0.224968,0.899872,-1.260000,5.180000,-1.960000
41.251899,-0.108336,-0.291824,0.922808,-0.560000,-1.820000,1.680000
41.255965,0.106384,-0.333304,1.062864,0.280000,-8.540000,2.800000
41.260031,0.047824,-0.201544,0.953064,2.940000,-1.400000,-1.400000
41.264097,-0.076128,-0.243024,0.825696,-2.100000,9.940000,-4.060000
41.268163,-0.106872,-0.245952,1.094584,-3.360000,3.500000,0.000000
41.272229,0.017568,-0.267424,0.994544,3.780000,-9.240000,3.640000
41.276295,0.086864,-0.389912,0.952088,1.400000,-8.680000,0.000000
41.280361,0.005856,-0.150304,1.019920,-4.060000,6.160000,-3.920000
41.284427,0.000976,-0.217160,0.900360,-0.700000,9.940000,-1.680000
41.288493,-0.198616,-0.364536,0.986248,-2.380000,0.560000,-0.840000
41.292559,0.045384,-0.329888,1.022848,2.240000,-14.000000,4.200000
41.296625,0.183000,-0.221064,1.000888,4.060000,-6.720000,0.140000
41.300691,-0.008296,-0.221064,0.954528,-4.060000,11.620000,-5.040000
41.304757,-0.074176,-0.179584,0.958432,-2.940000,7.980000,-1.820000
41.308823,-0.175680,-0.311832,0.912072,0.560000,-5.180000,1.540000
41.312889,0.073688,-0.376248,1.020896,-0.700000,-9.660000,2.520000
41.316955,0.185440,-0.202032,1.020896,1.400000,-3.640000,-0.280000
41.321021,-0.052704,-0.192760,0.840336,-1.260000,7.420000,-3.640000
41.325087,-0.087840,-0.245464,0.904264,-3.080000,8.820000,-2.800000
41.329153,-0.081984,-0.310856,1.084824,2.100000,-4.760000,2.940000
41.333219,0.054656,-0.371856,0.974048,3.080000,-10.080000,2.100000
41.337285,0.049288,-0.215208,0.957944,0.000000,-2.520000,-3.220000
41.341351,-0.055144,-0.112240,0.971608,-2.940000,11.900000,-3.080000
41.345417,-0.061488,-0.342088,0.976488,-3.080000,4.200000,-0.840000
41.349483,0.017080,-0.342576,1.056520,2.100000,-12.600000,3.780000
41.353549,0.063928,-0.302560,0.895480,3.360000,-4.200000,0.840000
41.357615,0.044408,-0.255712,0.982344,-3.360000,4.340000,-2.940000
41.361681,0.045872,-0.126392,1.025288,-1.400000,8.960000,-2.380000
41.365747,-0.296704,-0.332328,0.837896,1.260000,0.700000,0.000000
41.369814,0.057096,-0.346480,1.038464,-1.540000,-11.200000,3.780000
41.373880,0.257176,-0.171776,1.064816,3.220000,-7.560000,-0.140000
41.377946,-0.085888,-0.213744,0.849608,-1.260000,10.920000,-5.040000
41.382012,-0.128344,-0.298656,0.919392,-4.900000,8.960000,-2.380000
41.386078,-0.033184,-0.233264,1.075064,1.680000,-6.720000,3.920000
41.390144,0.035136,-0.382592,0.955016,4.060000,-10.360000,1.960000
41.394210,0.084424,-0.277672,0.962336,-0.560000,-3.500000,-1.680000
41.398276,0.003904,-0.061488,0.947208,-1.680000,8.680000,-3.220000
41.402342,-0.124440,-0.304024,0.930616,-3.080000,11.480000,-3.640000
41.406408,-0.119072,-0.343552,1.054080,-0.980000,-7.420000,4.200000
41.410474,0.127368,-0.302072,1.022848,4.480000,-15.120000,3.080000
41.414540,0.063440,-0.230336,0.927200,-2.660000,-0.280000,-4.480000
41.418606,0.021960,-0.160064,0.978928,-7.000000,14.980000,-2.660000
41.422672,-0.182512,-0.276208,0.931592,-1.400000,3.640000,-0.840000
41.426738,-0.023912,-0.388448,1.029192,1.260000,-10.080000,1.820000
41.430804,0.112240,-0.348920,0.950136,1.400000,-7.700000,2.100000
41.434870,0.087840,-0.188856,0.990640,0.280000,-0.980000,-2.100000
41.438936,0.047824,-0.165432,0.908656,-3.640000,11.060000,-3.780000
41.443002,-0.237656,-0.214232,0.910120,-0.280000,8.540000,-0.980000
41.447068,-0.069296,-0.380640,1.016016,2.380000,-8.960000,3.500000
41.451134,0.190320,-0.353800,1.104344,0.560000,-13.020000,1.120000
41.455200,-0.016592,-0.052216,0.856928,0.000000,3.640000,-4.060000
41.459266,-0.046848,-0.249368,0.853024,-4.200000,12.460000,-3.220000
41.463332,-0.021960,-0.332816,1.159976,-3.080000,-1.960000,1.540000
41.467398,-0.062952,-0.394304,0.936960,6.160000,-10.780000,2.940000
41.471464,0.043920,-0.292312,0.947696,1.120000,-2.660000,-0.980000
41.475530,0.049776,-0.158600,1.008208,-2.520000,4.760000,-2.660000
41.479596,-0.021472,-0.242536,0.935008,2.380000,4.340000,-1.540000
41.483662,-0.158112,-0.374296,0.957456,-0.980000,-0.840000,0.000000
41.487728,0.130784,-0.231312,1.104344,0.140000,-6.860000,4.620000
41.491795,0.096136,-0.235216,0.941840,2.660000,-2.100000,-1.260000
41.495861,-0.044408,-0.212280,0.943792,-4.060000,7.700000,-5.040000
41.499927,-0.164456,-0.209840,0.892064,-2.240000,5.880000,-0.980000
41.503993,-0.035136,-0.366488,1.005280,2.100000,-6.580000,2.660000
41.508059,0.151280,-0.357216,1.068232,1.120000,-11.200000,0.700000
41.512125,0.005856,-0.101992,0.887672,1.120000,0.000000,-2.240000
41.516191,0.020496,-0.164456,0.865712,-4.480000,11.900000,-2.380000
41.520257,-0.083448,-0.288408,1.083848,-5.320000,6.300000,-0.840000
41.524323,-0.121512,-0.370880,0.978928,3.500000,-9.240000,4.340000
41.528389,0.091744,-0.355264,0.912560,2.520000,-11.620000,0.840000
41.532455,0.029280,-0.149328,0.993080,-3.780000,4.060000,-4.200000
41.536521,0.000488,-0.197640,0.915976,-1.120000,8.120000,-1.820000
41.540587,-0.133224,-0.387472,1.041392,-2.380000,0.000000,-0.980000
41.544653,0.005368,-0.262056,1.041392,-0.140000,-5.740000,3.080000
41.548719,0.122976,-0.256688,0.942328,3.220000,-4.340000,1.680000
41.552785,0.000976,-0.264984,0.939888,-2.940000,1.260000,-4.060000
41.556851,0.008296,-0.195688,0.933544,-2.660000,5.180000,-1.820000
41.560917,-0.183000,-0.316224,0.911584,-0.280000,3.220000,0.000000
41.564983,0.065880,-0.368928,1.073600,-0.280000,-7.840000,3.640000
41.569049,0.104920,-0.186416,1.006256,3.640000,-5.880000,-0.420000
41.573115,-0.095160,-0.152256,0.839848,-1.400000,6.020000,-3.500000
41.577181,0.016592,-0.266936,1.027240,-4.760000,5.880000,-1.260000
41.581247,-0.060512,-0.304024,1.044320,1.680000,-4.900000,2.100000
41.585313,-0.018056,-0.404552,0.904752,1.400000,-6.860000,0.840000
41.589379,0.080520,-0.173240,0.972096,-2.940000,0.280000,-1.820000
41.593445,-0.005856,-0.190320,1.002352,-0.560000,7.000000,-1.680000
41.597511,-0.127368,-0.323544,0.973560,-1.960000,2.100000,-1.400000
41.601577,-0.007320,-0.264008,0.972096,-0.420000,-8.820000,2.940000
41.605643,0.102480,-0.244488,0.980392,1.540000,-4.060000,1.260000
41.609709,0.044896,-0.268400,0.987712,-2.800000,3.360000,-3.500000
41.613776,0.000488,-0.215696,0.938912,-3.500000,6.580000,-2.100000
41.617842,-0.198616,-0.272304,0.937936,-2.100000,1.680000,0.140000
41.621908,0.042456,-0.333792,1.080920,-1.260000,-8.120000,3.640000
41.625974,0.153232,-0.223992,0.956968,3.360000,-7.000000,0.000000
41.630040,-0.078568,-0.206424,0.880840,-3.080000,4.620000,-3.780000
41.634106,-0.008296,-0.236680,1.000400,-4.480000,8.680000,-2.520000
41.638172,-0.122488,-0.319640,0.951112,1.540000,-2.520000,1.400000
41.642238,-0.020008,-0.432856,1.003816,1.120000,-8.820000,1.680000
41.646304,0.141520,-0.195688,1.050664,-0.420000,-4.060000,-1.120000
41.650370,0.005368,-0.132736,0.883768,-0.280000,7.840000,-2.520000
41.654436,-0.055144,-0.340624,0.966728,-3.640000,4.480000,-1.400000
41.658502,-0.032208,-0.284504,1.048712,-0.840000,-6.440000,2.380000
41.662568,0.006344,-0.284992,0.899384,3.780000,-3.360000,1.540000
41.666634,0.049288,-0.246928,0.952088,-2.940000,1.120000,-2.240000
41.670700,0.032696,-0.162504,1.002840,-0.700000,3.220000,-1.400000
41.674766,-0.170800,-0.284016,0.869616,0.980000,4.060000,-1.680000
41.678832,0.002440,-0.329888,1.065304,-0.560000,-5.740000,2.240000
41.682898,0.147376,-0.246928,1.039440,2.520000,-7.700000,1.400000
41.686964,-0.029280,-0.252296,0.900848,-1.960000,2.100000,-3.920000
41.691030,-0.084424,-0.175192,0.932080,-4.620000,10.780000,-2.380000
41.695096,-0.124440,-0.266448,1.000400,-0.280000,0.000000,1.960000
41.699162,0.064904,-0.467504,1.082384,1.260000,-14.140000,2.520000
41.703228,0.120536,-0.218136,0.952088,-0.420000,-5.180000,-2.240000
41.707294,-0.055632,-0.142496,0.903288,-2.660000,12.040000,-3.220000
41.711360,-0.005856,-0.333304,1.015040,-4.060000,5.600000,-0.980000
41.715426,-0.056608,-0.263520,0.995520,1.960000,-8.400000,2.660000
41.719492,-0.030744,-0.293288,0.819840,2.380000,-3.920000,1.820000
41.723558,0.136152,-0.245952,1.059448,-3.640000,-1.540000,-1.820000
41.727624,0.059536,-0.117120,0.996496,-1.260000,7.000000,-2.380000
41.731690,-0.244000,-0.271816,0.840824,-1.540000,7.140000,-3.080000
41.735756,-0.055632,-0.373808,1.032120,-2.240000,-6.860000,2.940000
41.739823,0.157624,-0.321104,1.087752,3.920000,-12.320000,2.100000
41.743889,-0.036600,-0.268400,0.889136,-0.700000,0.840000,-4.900000
41.747955,0.013664,-0.153232,0.864248,-5.600000,11.200000,-2.100000
41.752021,-0.081008,-0.249368,1.061400,-0.280000,2.940000,0.420000
41.756087,-0.012200,-0.435296,1.035536,2.100000,-8.120000,2.380000
41.760153,0.089304,-0.289872,0.922320,1.680000,-5.880000,0.420000
41.764219,-0.031232,-0.132248,1.016504,-1.680000,4.200000,-2.660000
41.768285,0.063928,-0.248880,0.934032,-2.800000,6.440000,-2.940000
41.772351,-0.149328,-0.243512,0.933056,0.840000,-1.540000,0.560000
41.776417,-0.024400,-0.353800,0.956968,0.840000,-7.140000,2.520000
41.780483,0.171776,-0.252296,1.112152,-2.800000,-3.640000,-0.980000
41.784549,-0.001464,-0.105896,0.915976,-1.540000,6.720000,-2.240000
41.788615,-0.194712,-0.306464,0.812032,-3.780000,6.860000,-2.940000
41.792681,-0.067832,-0.340136,1.087264,-3.500000,-5.740000,2.800000
41.796747,0.185928,-0.316712,1.020896,4.760000,-11.200000,3.360000
41.800813,-0.021472,-0.289384,0.951112,-0.280000,1.400000,-3.640000
41.804879,-0.013176,-0.199104,0.872056,-3.080000,8.820000,-2.520000
41.808945,-0.045384,-0.244976,1.023336,0.140000,1.260000,-0.700000
41.813011,-0.064904,-0.364536,1.027240,0.420000,-5.600000,1.820000
41.817077,0.100040,-0.228872,0.983808,0.980000,-6.720000,2.240000
41.821143,0.020984,-0.148840,0.933544,-0.420000,2.520000,-3.080000
41.825209,0.011224,-0.257176,0.996008,-5.180000,8.400000,-3.080000
41.829275,-0.134688,-0.241072,0.934032,-0.700000,0.140000,0.700000
41.833341,-0.047824,-0.444080,0.915000,1.120000,-8.540000,2.520000
41.837407,0.126392,-0.261080,1.072624,-1.540000,-3.500000,-0.280000
41.841473,0.007320,-0.100528,0.959408,0.700000,4.480000,-2.940000
41.845539,-0.116144,-0.319152,0.816912,-1.400000,5.040000,-2.240000
41.849605,-0.023424,-0.240584,1.134112,-2.380000,-3.500000,1.260000
41.853671,0.069296,-0.326472,0.971120,3.780000,-6.160000,2.660000
41.857737,0.059048,-0.344040,0.992104,0.140000,-2.240000,-1.820000
41.861804,-0.045872,-0.187392,0.917440,-3.220000,7.000000,-3.360000
41.865870,-0.101016,-0.192272,0.895968,-0.420000,5.320000,-0.700000
41.869936,-0.036600,-0.370392,1.037488,-0.980000,-6.020000,1.680000
41.874002,0.146400,-0.276208,1.082872,1.680000,-10.220000,1.960000
41.878068,-0.033672,-0.189832,0.849608,-0.140000,3.220000,-3.080000
41.882134,0.022936,-0.205936,0.975512,-5.460000,9.520000,-3.080000
41.886200,-0.103944,-0.232776,1.013576,-0.840000,0.000000,1.120000
41.890266,-0.032208,-0.433344,0.903776,1.540000,-8.820000,2.240000
41.894332,0.093208,-0.258640,1.009672,-1.960000,-6.020000,-0.140000
41.898398,0.020984,-0.095160,1.021872,-1.120000,7.420000,-2.800000
41.902464,-0.055632,-0.337208,0.888160,-1.820000,4.900000,-2.240000
41.906530,-0.092720,-0.312320,1.014552,-2.240000,-4.200000,0.560000
41.910596,0.029280,-0.261568,0.988200,1.960000,-5.320000,3.360000
41.914662,0.122000,-0.323056,1.021384,-0.980000,-2.660000,-1.820000
41.918728,-0.044408,-0.158600,0.932080,-3.080000,5.740000,-2.660000
41.922794,-0.146400,-0.217648,0.879864,-0.560000,6.580000,-1.960000
41.926860,-0.017080,-0.354288,1.094096,-2.240000,-5.600000,2.100000
41.930926,0.162992,-0.347944,1.024800,3.360000,-10.080000,2.100000
41.934992,-0.010736,-0.206912,0.836432,0.420000,1.540000,-3.780000
41.939058,-0.056608,-0.203984,0.955992,-6.300000,12.180000,-3.220000
41.943124,-0.040504,-0.207400,1.020896,0.980000,-0.980000,2.240000
41.947190,-0.016104,-0.419192,0.900360,3.220000,-11.200000,1.820000
41.951256,0.059536,-0.262056,1.020896,-2.380000,-2.520000,-0.700000
41.955322,-0.000976,-0.127856,0.979416,-0.560000,7.700000,-2.240000
41.959388,-0.032696,-0.314272,0.907192,-0.840000,4.200000,-2.520000
41.963454,-0.112728,-0.288896,1.073600,-0.560000,-4.480000,1.400000
41.967520,0.005856,-0.295240,0.952576,2.520000,-5.880000,2.660000
41.971586,0.136152,-0.279624,1.032120,-1.400000,-2.100000,-2.240000
41.975652,0.014152,-0.153720,0.973560,-2.940000,4.760000,-2.520000
41.979718,-0.173240,-0.282064,0.812520,-0.980000,7.000000,-2.100000
41.983785,-0.058072,-0.347456,1.087264,-2.520000,-3.080000,1.960000
41.987851,0.196176,-0.296704,1.016016,2.940000,-10.640000,2.800000
41.991917,-0.023912,-0.231312,0.889624,0.840000,-0.700000,-3.500000
41.995983,-0.024888,-0.201056,0.938912,-5.880000,9.800000,-2.660000
42.000049,-0.013664,-0.172752,1.014064,-0.560000,3.640000,0.700000
42.004115,-0.093696,-0.429928,0.963800,1.680000,-7.280000,1.960000
42.008181,0.069784,-0.290360,1.017968,-0.560000,-6.860000,0.280000
42.012247,0.000000,-0.117608,0.907680,-0.420000,3.640000,-2.240000
42.016313,-0.008296,-0.299632,0.940376,-3.360000,4.900000,-2.240000
42.020379,-0.088816,-0.283528,1.053592,-1.960000,-3.780000,0.840000
42.024445,0.001464,-0.307928,0.936960,2.940000,-5.740000,2.520000
42.028511,0.091256,-0.313784,1.020408,-1.120000,-0.560000,-1.120000
42.032577,0.057584,-0.194712,1.007232,-1.680000,3.780000,-2.520000
42.036643,-0.136152,-0.253760,0.848632,-0.700000,5.880000,-1.960000
42.040709,-0.093696,-0.277184,1.001376,-1.540000,-3.080000,1.400000
42.044775,0.162504,-0.287432,1.069696,2.100000,-8.820000,3.360000
42.048841,0.009760,-0.265472,0.907680,0.560000,-1.960000,-2.380000
42.052907,-0.033184,-0.210328,0.921344,-6.300000,9.380000,-3.500000
42.056973,-0.101504,-0.150792,0.935008,-0.980000,6.020000,0.000000
42.061039,-0.058072,-0.427976,0.993568,2.100000,-8.820000,2.100000
42.065105,0.115656,-0.345504,1.042856,0.700000,-10.220000,0.280000
42.069171,-0.029280,-0.089304,0.948184,-0.140000,2.100000,-2.660000
42.073237,0.081984,-0.242048,0.969656,-4.480000,10.640000,-2.240000
42.077303,-0.172752,-0.311344,0.959896,-1.960000,1.960000,0.280000
42.081369,-0.068320,-0.376248,0.954040,2.660000,-9.660000,2.660000
42.085435,0.137128,-0.290360,1.019432,-0.420000,-7.000000,0.000000
42.089501,0.079056,-0.151280,0.996984,-2.100000,5.600000,-3.220000
42.093567,-0.076616,-0.254736,0.841800,0.420000,6.300000,-2.100000
42.097633,-0.085888,-0.344528,1.009184,-3.220000,-1.120000,-0.140000
42.101699,0.044896,-0.218624,1.090192,1.400000,-4.340000,3.220000
42.105766,0.036600,-0.263520,0.891088,2.100000,-3.080000,-0.420000
42.109832,-0.025376,-0.203496,0.935496,-4.760000,1.260000,-3.080000
42.113898,-0.024888,-0.213256,0.924760,-0.560000,4.480000,-1.120000
42.117964,-0.085888,-0.427488,0.979416,0.560000,-0.420000,0.000000
42.122030,0.061000,-0.354288,1.092632,0.420000,-7.980000,1.400000
42.126096,0.010248,-0.142496,0.888160,3.080000,-1.260000,-1.120000
42.130162,-0.017080,-0.204960,0.946720,-3.080000,7.560000,-2.240000
42.134228,0.001952,-0.245952,1.022360,-2.660000,1.960000,0.700000
42.138294,-0.033184,-0.380152,1.002352,2.380000,-6.440000,0.980000
42.142360,0.000976,-0.315248,0.983808,-1.120000,-2.100000,-1.260000
42.146426,0.050752,-0.136640,0.987712,-1.680000,2.380000,-0.700000
42.150492,-0.022448,-0.239608,0.900848,0.560000,0.980000,-1.260000
42.154558,-0.080032,-0.308904,0.973072,-3.640000,-0.700000,-1.260000
42.158624,0.030256,-0.226432,1.006744,-0.560000,-1.260000,2.940000
42.162690,0.065880,-0.289872,0.997472,0.980000,-2.380000,0.000000
42.166756,-0.021472,-0.244000,0.964288,-2.940000,-0.700000,-2.380000
42.170822,-0.101504,-0.181048,0.875472,-1.260000,4.480000,-1.400000
42.174888,-0.061488,-0.350384,1.012112,-1.820000,-0.560000,0.280000
42.178954,0.105408,-0.326472,1.079456,-0.560000,-8.260000,1.820000
42.183020,0.014152,-0.231312,0.858392,2.240000,-0.980000,-1.540000
42.187086,-0.035624,-0.264008,0.985760,-4.480000,7.420000,-2.660000
42.191152,0.003904,-0.203496,1.043344,-2.380000,1.120000,0.420000
42.195218,-0.077104,-0.328424,0.900360,2.800000,-6.160000,1.960000
42.199284,0.010736,-0.372344,0.992592,-3.220000,-2.940000,-0.420000
42.203350,0.111752,-0.153720,1.069696,-2.240000,1.540000,-1.120000
42.207416,-0.050264,-0.254736,0.855952,0.280000,4.760000,-1.960000
42.211482,-0.122000,-0.305976,0.992104,-3.500000,0.140000,-1.260000
42.215548,0.021472,-0.188856,0.982832,0.000000,-6.860000,3.360000
42.219614,0.155184,-0.300120,0.989664,1.260000,-3.500000,-0.420000
42.223680,-0.027816,-0.274256,0.999912,-4.480000,4.340000,-3.780000
42.227746,-0.059536,-0.179584,0.864248,-0.560000,6.860000,-1.680000
42.231813,-0.130296,-0.320128,0.947208,-0.700000,-0.560000,0.840000
42.235879,0.042456,-0.376736,1.081408,-0.840000,-10.500000,1.960000
42.239945,0.045384,-0.186416,0.932568,2.520000,-5.460000,-0.840000
42.244011,0.014152,-0.179584,0.896944,-4.760000,9.520000,-3.080000
42.248077,-0.024888,-0.179096,1.055544,-4.060000,7.000000,-1.540000
42.252143,-0.131760,-0.399672,0.970632,2.240000,-5.320000,1.820000
42.256209,0.049776,-0.433344,0.925248,-0.280000,-11.340000,0.980000
42.260275,0.086376,-0.171288,1.026752,-2.240000,1.540000,-3.220000
42.264341,0.035624,-0.161528,0.924272,-2.100000,8.540000,-1.120000
42.268407,-0.121024,-0.309392,0.974536,-2.800000,2.240000,-0.980000
42.272473,-0.012688,-0.294752,0.986248,0.700000,-6.020000,2.380000
42.276539,0.091744,-0.323056,1.001864,1.680000,-4.480000,0.840000
42.280605,-0.004392,-0.260104,0.992104,-2.380000,1.960000,-3.360000
42.284671,-0.037576,-0.185928,0.839848,-0.140000,4.480000,-1.680000
42.288737,-0.125904,-0.264496,0.933056,-0.700000,0.280000,0.420000
42.292803,0.089304,-0.347456,1.165344,0.000000,-7.560000,2.800000
42.296869,0.079544,-0.228384,0.939400,3.360000,-1.540000,-0.980000
42.300935,-0.144936,-0.262056,0.831552,-4.900000,7.700000,-4.060000
42.305001,-0.009760,-0.176656,1.093120,-4.480000,2.940000,0.700000
42.309067,0.000000,-0.309880,0.963800,3.780000,-7.840000,2.660000
42.313133,0.066856,-0.376736,0.935984,1.400000,-8.120000,0.140000
42.317199,0.002440,-0.172752,1.001376,-4.340000,4.480000,-3.500000
42.321265,0.020984,-0.212768,0.935496,-1.820000,8.960000,-1.400000
42.325331,-0.154696,-0.311832,1.016504,-1.680000,0.560000,-0.840000
42.329397,0.001464,-0.283528,0.962336,0.840000,-8.960000,2.940000
42.333463,0.115168,-0.264984,0.993080,1.260000,-5.600000,0.280000
42.337529,0.044408,-0.225456,1.042368,-4.060000,4.340000,-3.780000
42.341595,-0.023912,-0.196176,0.867664,-0.840000,6.580000,-2.240000
42.345661,-0.202032,-0.329888,0.905728,-0.980000,1.120000,-0.560000
42.349727,0.039528,-0.384056,1.020896,-0.700000,-7.280000,2.520000
42.353794,0.144448,-0.228384,1.032120,2.240000,-5.460000,-0.420000
42.357860,-0.101992,-0.205448,0.870104,-2.100000,6.020000,-3.780000
42.361926,0.017568,-0.237656,0.968680,-2.100000,3.920000,-0.140000
42.365992,-0.040016,-0.320616,1.046760,2.520000,-4.060000,0.980000
42.370058,0.007320,-0.408944,0.999424,1.260000,-4.480000,0.420000
42.374124,0.057096,-0.183976,0.946720,-0.560000,0.000000,-1.400000
42.378190,-0.009272,-0.162504,0.941352,-0.560000,7.280000,-2.100000
42.382256,-0.111264,-0.341112,1.022848,-2.800000,1.680000,-0.840000
42.386322,0.018056,-0.264008,0.935984,2.380000,-11.200000,2.800000
42.390388,0.046848,-0.273768,0.953552,2.100000,-3.920000,-0.700000
42.394454,0.056608,-0.190320,1.075552,-5.460000,8.260000,-2.660000
42.398520,-0.041480,-0.228384,0.898408,-0.140000,3.500000,-0.980000
42.402586,-0.162016,-0.345504,0.868152,-0.700000,-1.960000,0.280000
42.406652,0.063928,-0.283528,1.060912,-2.380000,-6.440000,2.800000
42.410718,0.139080,-0.194712,1.048712,1.820000,-2.240000,-1.260000
42.414784,-0.095160,-0.250344,0.802272,-2.800000,5.460000,-3.360000
42.418850,-0.072224,-0.240096,1.032608,-6.020000,4.620000,-1.540000
42.422916,-0.065880,-0.265472,1.003328,0.980000,-4.480000,2.940000
42.426982,0.108336,-0.419680,0.981368,1.680000,-8.960000,1.260000
42.431048,0.039528,-0.184952,0.982832,-2.380000,-0.280000,-3.220000
42.435114,-0.048800,-0.199104,0.874984,-2.240000,10.500000,-2.660000
42.439180,-0.067832,-0.325984,1.051152,-4.200000,1.680000,0.280000
42.443246,0.008296,-0.323544,1.036024,2.240000,-9.660000,2.800000
42.447312,0.024888,-0.281576,0.901336,2.800000,-4.620000,0.000000
42.451378,0.036600,-0.216184,0.957456,-4.200000,5.040000,-3.640000
42.455444,0.058560,-0.203008,1.000888,-0.140000,4.900000,-1.680000
42.459510,-0.231312,-0.311344,0.851560,0.280000,0.140000,-0.280000
42.463576,0.055632,-0.330376,1.007720,-0.560000,-7.560000,2.520000
42.467642,0.138592,-0.201056,1.093120,1.540000,-2.940000,-0.840000
42.471708,-0.084424,-0.258640,0.898896,-1.820000,5.460000,-3.640000
42.475775,-0.060024,-0.226432,0.949160,-3.500000,4.340000,-1.260000
42.479841,-0.053680,-0.265960,0.988688,0.140000,-3.360000,2.660000
42.483907,0.102968,-0.421632,1.038952,0.840000,-8.820000,1.400000
42.487973,0.038552,-0.214720,0.939400,0.140000,-0.280000,-3.080000
42.492039,-0.070760,-0.224968,0.812032,-1.680000,9.800000,-3.080000
42.496105,-0.097600,-0.249368,1.113128,-4.340000,2.800000,0.000000
42.500171,0.065880,-0.293776,1.002352,2.940000,-9.800000,3.220000
42.504237,0.049288,-0.295240,0.893528,2.520000,-7.140000,0.560000
42.508303,0.005856,-0.209840,1.002352,-4.900000,6.440000,-4.340000
42.512369,0.055144,-0.222528,0.942816,-0.560000,7.560000,-1.400000
42.516435,-0.229848,-0.297192,0.904752,0.700000,-0.560000,-0.140000
42.520501,-0.003904,-0.346968,1.020896,-1.260000,-8.400000,2.380000
42.524567,0.191784,-0.193248,1.059936,2.940000,-5.320000,0.280000
42.528633,-0.039040,-0.220576,0.943792,-1.680000,5.040000,-3.920000
42.532699,-0.077104,-0.261080,0.897432,-3.640000,6.580000,-2.240000
42.536765,-0.082472,-0.269864,0.981856,-0.420000,-2.800000,1.820000
42.540831,0.091256,-0.434808,1.010160,0.280000,-8.260000,1.960000
42.544897,0.051728,-0.251808,1.030656,0.700000,-0.280000,-1.680000
42.548963,-0.050752,-0.171288,0.837896,0.280000,7.560000,-3.220000
42.553029,-0.035136,-0.251808,1.057496,-2.100000,2.100000,-1.120000
42.557095,0.017568,-0.271328,0.997960,2.800000,-6.020000,2.520000
42.561161,0.015616,-0.343064,0.940376,1.820000,-4.620000,0.560000
42.565227,-0.008784,-0.213256,0.964776,-4.340000,3.360000,-3.360000
42.569293,-0.004392,-0.177144,0.926224,-0.700000,7.000000,-1.400000
42.573359,-0.165432,-0.305488,0.921832,-0.700000,-1.260000,-0.140000
42.577425,0.055144,-0.349408,1.044808,-0.420000,-12.040000,3.080000
42.581491,0.140056,-0.194224,1.049688,1.680000,-1.400000,-0.980000
42.585557,-0.028304,-0.213256,0.938912,-4.200000,9.520000,-3.640000
42.589623,-0.098576,-0.278160,0.963312,-4.340000,5.320000,-1.540000
42.593689,-0.094672,-0.278160,0.974536,1.960000,-6.860000,2.520000
42.597755,0.084912,-0.436272,0.921344,1.120000,-8.400000,1.540000
42.601822,0.141032,-0.181536,1.103368,-1.540000,-1.260000,-2.660000
42.605888,-0.083936,-0.194712,0.838384,-0.560000,9.520000,-3.220000
42.609954,-0.125416,-0.275232,0.969656,-3.500000,4.480000,-0.840000
42.614020,0.043920,-0.308416,1.044320,1.960000,-7.560000,3.220000
42.618086,0.052216,-0.326472,0.966728,2.800000,-6.020000,0.560000
42.622152,-0.012688,-0.211304,0.922808,-2.660000,1.820000,-4.060000
42.626218,0.045384,-0.150304,0.930128,-1.400000,8.260000,-2.100000
42.630284,-0.153720,-0.298168,0.980880,-0.840000,2.100000,-0.420000
42.634350,0.000488,-0.368440,1.005768,1.120000,-10.780000,1.960000
42.638416,0.100528,-0.221552,0.978928,2.380000,-4.060000,-0.140000
42.642482,-0.021960,-0.252296,0.984296,-4.060000,7.980000,-3.920000
42.646548,-0.063928,-0.251808,0.962824,-1.260000,4.620000,-1.120000
42.650614,-0.079056,-0.301584,0.930616,2.660000,-5.600000,1.680000
42.654680,0.043432,-0.408456,0.975512,-0.140000,-5.460000,0.840000
42.658746,0.154696,-0.170312,1.114592,0.280000,-0.280000,-1.680000
42.662812,-0.063928,-0.177632,0.858392,-1.120000,6.860000,-3.360000
42.666878,-0.147864,-0.228384,0.965752,-4.900000,4.760000,-0.980000
42.670944,0.062952,-0.298656,1.072136,0.140000,-7.280000,3.920000
42.675010,0.114680,-0.351360,0.925248,2.660000,-9.380000,0.420000
42.679076,-0.073688,-0.231312,0.922808,-4.480000,4.060000,-4.760000
42.683142,-0.059536,-0.143960,0.847168,-3.080000,11.760000,-2.660000
42.687208,-0.103456,-0.332816,0.982344,-0.840000,-2.380000,1.540000
42.691274,0.042944,-0.434808,1.098976,1.680000,-12.320000,2.100000
42.695340,0.093696,-0.197640,0.977464,3.640000,-4.480000,-0.140000
42.699406,0.035624,-0.241560,0.894992,-2.940000,10.500000,-3.780000
42.703472,-0.010736,-0.194712,1.037000,-1.960000,6.160000,-2.100000
42.707538,-0.221064,-0.338184,0.889136,2.800000,-3.220000,0.840000
42.711604,0.056120,-0.380640,1.006744,0.420000,-8.400000,2.520000
42.715670,0.195688,-0.153720,1.135088,1.540000,-3.360000,-1.120000
42.719736,-0.039528,-0.206912,0.882792,0.560000,6.160000,-3.220000
42.723803,-0.110288,-0.258152,0.850584,-4.060000,6.020000,-2.660000
42.727869,-0.041968,-0.188368,1.021872,1.120000,-3.360000,2.660000
42.731935,0.056608,-0.408456,0.966728,2.800000,-6.580000,1.260000
42.736001,0.017568,-0.275720,1.026752,-1.680000,-2.800000,-2.940000
42.740067,-0.016104,-0.168848,0.868152,-1.260000,6.860000,-2.240000
42.744133,-0.085888,-0.239608,0.939400,-2.380000,5.460000,-0.560000
42.748199,0.006832,-0.369904,1.088728,-0.140000,-8.400000,2.800000
42.752265,0.083448,-0.277184,0.986736,3.780000,-5.740000,-0.140000
42.756331,-0.072224,-0.224480,0.910120,-2.520000,5.460000,-3.920000
42.760397,0.054168,-0.166408,1.062376,-4.200000,5.880000,-1.260000
42.764463,-0.151768,-0.318176,0.905240,0.980000,-2.660000,0.560000
42.768529,0.003416,-0.406016,0.991616,-0.140000,-7.980000,1.400000
42.772595,0.153720,-0.209840,1.013088,0.000000,-3.220000,-0.700000
42.776661,0.018544,-0.212768,0.932080,-0.420000,7.840000,-3.080000
42.780727,-0.129808,-0.252784,0.954528,-3.360000,5.040000,-1.680000
42.784793,-0.035624,-0.231800,0.934520,0.000000,-4.900000,2.380000
42.788859,0.027328,-0.353312,0.996008,0.980000,-5.460000,1.400000
42.792925,0.073200,-0.281576,1.068232,-2.240000,-1.260000,-2.100000
42.796991,-0.003416,-0.141032,0.814960,-0.280000,3.920000,-2.100000
42.801057,-0.156160,-0.255712,0.966728,-2.800000,5.740000,-1.960000
42.805123,0.024888,-0.362096,1.100440,-1.960000,-5.740000,2.660000
42.809189,0.079056,-0.288896,0.977952,4.620000,-9.100000,1.260000
42.813255,-0.046848,-0.270352,0.885720,-2.660000,4.060000,-4.200000
42.817321,0.030744,-0.181048,1.006256,-4.340000,7.000000,-0.980000
42.821387,-0.083936,-0.274256,0.987224,0.700000,-1.120000,0.700000
42.825453,-0.003416,-0.382104,0.984784,0.280000,-7.980000,0.700000
42.829519,0.063928,-0.242536,0.951112,-0.420000,-1.680000,-0.420000
42.833585,0.044896,-0.181536,0.987712,-0.420000,5.040000,-1.960000
42.837651,-0.042944,-0.264496,0.903288,-1.960000,3.220000,-1.680000
42.841717,-0.098088,-0.254248,0.916464,0.700000,-1.960000,0.980000
42.845784,0.015128,-0.327936,1.016992,0.840000,-4.480000,1.400000
42.849850,0.075640,-0.287432,1.055544,-1.260000,-1.960000,-2.100000
42.853916,-0.033672,-0.163968,0.899872,0.420000,3.360000,-1.400000
42.857982,-0.098088,-0.290848,0.947208,-2.800000,5.180000,-1.960000
42.862048,0.024400,-0.296216,1.040904,-0.700000,-5.040000,2.660000
42.866114,0.099064,-0.321104,0.965264,3.920000,-6.020000,0.560000
42.870180,-0.066856,-0.274744,0.951600,-2.800000,2.520000,-3.220000
42.874246,0.005368,-0.179584,0.969168,-2.380000,5.880000,-0.560000
42.878312,0.016104,-0.220576,0.983320,1.680000,-0.840000,-0.560000
42.882378,-0.094184,-0.388936,1.027240,-1.400000,-3.920000,0.000000
42.886444,0.065392,-0.254736,0.960384,-0.840000,-4.480000,0.840000
42.890510,0.040016,-0.203984,0.979416,-0.700000,2.940000,-2.520000
42.894576,-0.022936,-0.275232,0.957456,-3.220000,5.180000,-1.680000
42.898642,-0.076128,-0.215696,0.920368,0.560000,-3.500000,0.980000
42.902708,-0.016592,-0.337208,0.922808,0.000000,-3.500000,0.560000
42.906774,0.077104,-0.284504,1.101904,-2.940000,-1.400000,-0.560000
42.910840,0.003904,-0.187880,0.935496,0.700000,2.660000,-1.960000
42.914906,-0.104920,-0.273768,0.861320,-2.100000,3.920000,-1.120000
42.918972,-0.023424,-0.238632,1.065304,-2.520000,-2.940000,1.540000
42.923038,0.099552,-0.299144,1.013576,3.220000,-7.700000,1.960000
42.927104,-0.025376,-0.330376,0.889136,-2.800000,1.260000,-3.360000
42.931170,-0.034648,-0.196176,0.980392,-4.200000,6.720000,-2.240000
42.935236,-0.050752,-0.218624,0.976488,0.840000,2.380000,0.140000
42.939302,-0.038064,-0.351360,0.996496,0.420000,-7.000000,0.980000
42.943368,0.053192,-0.282064,0.961360,0.840000,-5.880000,-0.140000
42.947434,0.058560,-0.196176,0.980880,-1.400000,3.780000,-2.380000
42.951500,-0.011712,-0.315736,0.951600,-4.200000,5.740000,-2.240000
42.955566,-0.104432,-0.207400,0.958432,0.140000,-0.980000,0.700000
42.959632,-0.018056,-0.353312,0.924760,0.700000,-5.600000,1.400000
42.963698,0.119072,-0.296216,1.097512,-2.100000,-3.080000,-0.840000
42.967765,-0.006344,-0.120536,0.940376,0.280000,3.780000,-1.820000
42.971831,-0.107360,-0.283040,0.825696,-2.240000,4.060000,-1.400000
42.975897,-0.046848,-0.317688,1.072136,-2.240000,-1.680000,0.140000
42.979963,0.093696,-0.314272,1.025776,4.340000,-6.440000,1.120000
42.984029,-0.032696,-0.298168,0.903776,-1.260000,-0.280000,-2.660000
42.988095,0.024400,-0.130784,0.994544,-3.360000,4.200000,-1.400000
42.992161,-0.043920,-0.248880,0.916952,0.560000,2.800000,-0.140000
42.996227,-0.044896,-0.377224,1.036512,-0.840000,-4.200000,0.420000
43.000293,0.022448,-0.266936,0.986248,0.560000,-4.480000,-0.140000
43.004359,0.029280,-0.208376,0.926224,-0.980000,2.100000,-1.540000
43.008425,-0.005856,-0.282064,0.990152,-4.060000,3.220000,-1.820000
43.012491,-0.035624,-0.210328,0.963312,0.700000,-2.100000,1.120000
43.016557,-0.026840,-0.384056,0.895968,0.280000,-2.240000,0.140000
43.020623,0.041968,-0.264008,1.071648,-2.520000,-0.420000,-0.840000
43.024689,0.025376,-0.175192,0.946720,1.400000,0.560000,-0.840000
43.028755,-0.093208,-0.289872,0.874008,-2.100000,2.800000,-1.680000
43.032821,-0.014152,-0.238632,1.072624,-2.520000,-1.960000,0.420000
43.036887,0.067344,-0.284016,0.970632,2.100000,-3.500000,1.260000
43.040953,-0.030744,-0.339160,0.977952,-2.240000,-1.120000,-1.680000
43.045019,-0.011712,-0.195688,0.960384,-3.220000,3.360000,-1.820000
43.049085,-0.014152,-0.201056,0.966728,-0.280000,2.240000,-0.560000
43.053151,-0.046848,-0.345504,1.016016,-3.080000,-3.360000,0.420000
43.057217,0.063440,-0.264984,0.948184,-0.140000,-5.600000,1.120000
43.061283,0.002440,-0.293776,0.941352,-0.560000,2.800000,-2.380000
43.065349,-0.018056,-0.282064,0.998448,-3.780000,4.480000,-1.960000
43.069415,-0.038552,-0.158600,0.962824,1.260000,-2.240000,0.980000
43.073481,-0.056608,-0.343064,0.888160,-0.420000,-3.780000,0.560000
43.077547,0.089792,-0.281088,1.087264,-2.520000,-1.400000,-0.560000
43.081613,0.034160,-0.215696,0.976976,0.280000,1.540000,-1.820000
43.085679,-0.113704,-0.290848,0.823744,-2.100000,4.480000,-2.100000
43.089745,-0.069784,-0.222040,1.025288,-1.820000,-1.120000,-0.280000
43.093812,0.078568,-0.304024,0.982832,3.080000,-6.160000,1.680000
43.097878,0.040992,-0.354288,1.009184,-1.820000,-2.660000,-2.240000
43.101944,-0.031232,-0.182512,0.995032,-3.500000,5.040000,-2.240000
43.106010,-0.015128,-0.223992,0.921832,0.140000,3.920000,-0.140000
43.110076,-0.033184,-0.337696,1.014064,-1.680000,-4.480000,0.980000
43.114142,0.025376,-0.276208,0.938912,0.700000,-4.340000,1.120000
43.118208,-0.006832,-0.263032,0.928176,-1.120000,3.500000,-2.800000
43.122274,0.011712,-0.286944,1.011136,-3.360000,1.820000,-1.820000
43.126340,-0.045384,-0.157624,0.939400,2.100000,-2.380000,0.280000
43.130406,-0.062464,-0.336232,0.920368,0.000000,-1.820000,-0.420000
43.134472,0.123464,-0.271328,1.146312,-2.520000,-2.100000,0.000000
43.138538,0.029280,-0.242536,0.951600,1.400000,1.120000,-2.240000
43.142604,-0.147376,-0.263032,0.847168,-3.080000,6.020000,-2.660000
43.146670,-0.059048,-0.193736,0.995032,-1.820000,-1.400000,0.700000
43.150736,0.081008,-0.353312,0.998936,2.800000,-7.560000,0.840000
43.154802,0.009760,-0.362096,0.987224,-2.660000,-2.100000,-2.660000
43.158868,-0.009760,-0.169824,0.946232,-3.080000,4.760000,-1.820000
43.162934,-0.022936,-0.179584,0.949648,0.140000,4.900000,-1.540000
43.167000,-0.048312,-0.329400,1.029680,-2.380000,-2.660000,0.840000
43.171066,0.031720,-0.322568,0.980880,0.980000,-7.000000,0.980000
43.175132,0.024888,-0.296704,0.940864,-0.560000,1.260000,-2.800000
43.179198,0.006344,-0.240584,0.986248,-5.040000,5.880000,-2.800000
43.183264,-0.058560,-0.147376,0.944768,1.260000,-0.980000,0.140000
43.187330,-0.052216,-0.361120,0.859856,0.420000,-3.920000,0.140000
43.191396,0.067344,-0.332816,1.094096,-2.660000,-2.100000,-0.700000
43.195462,0.051240,-0.212280,1.035536,1.400000,0.700000,-1.540000
43.199528,-0.068320,-0.243512,0.830576,-1.260000,4.200000,-1.960000
43.203594,-0.119072,-0.223016,0.977952,-2.520000,0.980000,-0.700000
43.207660,0.072224,-0.315736,1.049688,2.240000,-6.020000,1.260000
43.211726,0.059048,-0.375760,1.025776,0.840000,-3.920000,-2.380000
43.215793,-0.048312,-0.200568,0.886696,-2.100000,4.060000,-2.240000
43.219859,-0.029768,-0.151280,0.931104,-0.140000,5.320000,-0.980000
43.223925,0.017080,-0.345016,1.017480,-1.540000,-3.220000,0.700000
43.227991,-0.012200,-0.318664,1.004792,0.840000,-5.040000,-0.280000
43.232057,-0.029768,-0.254736,0.910120,0.420000,2.100000,-1.680000
43.236123,0.030744,-0.252784,1.022848,-3.640000,2.380000,-2.240000
43.240189,0.002928,-0.205448,0.981368,1.260000,-1.260000,0.560000
43.244255,-0.038064,-0.333792,0.895968,2.240000,-1.820000,-0.840000
43.248321,-0.012688,-0.299144,1.001864,-2.660000,0.000000,-1.680000
43.252387,0.081008,-0.172752,1.043832,0.420000,-0.560000,-0.560000
43.256453,-0.070272,-0.288408,0.860832,0.280000,2.380000,-1.680000
43.260519,-0.048800,-0.258152,0.964288,-2.380000,-1.260000,-0.560000
43.264585,0.041480,-0.267912,1.021384,0.700000,-1.960000,-0.140000
43.268651,0.010736,-0.291336,0.991616,-1.120000,1.260000,-1.260000
43.272717,-0.060024,-0.272792,0.915000,-2.520000,-0.980000,-1.120000
43.276783,-0.000976,-0.193736,0.917440,1.540000,-1.540000,-0.140000
43.280849,0.004392,-0.392352,1.018456,-2.100000,0.700000,-1.400000
43.284915,0.039528,-0.262056,1.067744,-1.400000,-1.120000,0.420000
43.288981,-0.045384,-0.205936,0.898896,1.820000,1.120000,-1.820000
43.293047,-0.033184,-0.304512,0.946232,-2.380000,2.520000,-1.120000
43.297113,0.035624,-0.270840,1.065792,0.980000,-3.500000,0.700000
43.301179,-0.009760,-0.284992,0.911584,2.660000,-2.940000,-0.840000
43.305245,-0.013664,-0.232288,0.947208,-4.060000,3.220000,-2.240000
43.309311,0.033184,-0.174216,1.005280,-0.560000,1.960000,-0.420000
43.313377,-0.063928,-0.327936,0.966728,1.680000,-0.980000,-0.700000
43.317443,-0.030256,-0.347456,0.985272,-1.820000,-3.220000,-0.980000
43.321509,0.075640,-0.171288,0.995520,0.420000,-0.560000,-0.700000
43.325575,-0.003904,-0.255712,0.938424,-0.420000,0.980000,-0.980000
43.329641,-0.028304,-0.274744,0.960384,-3.220000,-0.420000,-0.980000
43.333707,-0.050264,-0.263520,0.950624,0.560000,0.980000,-0.560000
43.337774,-0.011224,-0.336720,0.965264,-1.400000,0.840000,-0.980000
43.341840,0.007808,-0.242536,1.038464,-0.420000,-3.780000,-1.120000
43.345906,-0.026840,-0.218136,0.873032,1.260000,0.280000,-0.560000
43.349972,0.024888,-0.327448,0.993568,-2.520000,0.840000,-0.980000
43.354038,0.031232,-0.242536,1.088240,-0.560000,-2.100000,0.280000
43.358104,-0.057584,-0.285480,0.840336,1.960000,2.520000,-1.680000
43.362170,-0.066856,-0.301096,0.951600,-3.080000,2.240000,-1.960000
43.366236,0.074176,-0.181048,1.065304,0.000000,-2.520000,-0.140000
43.370302,-0.030256,-0.298168,0.938912,2.800000,-3.360000,0.000000
43.374368,0.018544,-0.317688,0.959896,-3.360000,-1.400000,-1.820000
43.378434,0.051728,-0.200080,1.007720,-1.120000,2.100000,-0.980000
43.382500,-0.006344,-0.265472,0.960872,0.560000,3.500000,-0.840000
43.386566,-0.130784,-0.287432,0.934032,-2.380000,-0.840000,-1.400000
43.390632,0.019032,-0.243024,0.967704,0.840000,-3.220000,0.980000
43.394698,0.056608,-0.299144,1.033096,-0.700000,-2.800000,-2.240000
43.398764,-0.002928,-0.249368,0.965264,-2.520000,0.560000,-1.260000
43.402830,-0.015616,-0.193248,0.894016,0.140000,2.380000,-0.700000
43.406896,-0.065392,-0.333792,0.960872,-2.800000,1.120000,-0.420000
43.410962,0.061976,-0.321592,1.041392,-1.120000,-3.220000,-0.140000
43.415028,-0.072224,-0.234240,0.903776,1.540000,-0.840000,-1.960000
43.419094,-0.039040,-0.269864,0.934032,-2.940000,1.820000,-1.820000
43.423160,0.086376,-0.207888,1.075552,-0.560000,-1.820000,0.280000
43.427226,-0.009760,-0.310368,0.955992,3.080000,-0.140000,-1.260000
43.431292,-0.041480,-0.332328,0.967216,-2.660000,1.120000,-1.960000
43.435358,0.027328,-0.178120,1.050664,-1.260000,1.820000,-1.540000
43.439424,-0.058072,-0.279624,0.903776,1.820000,-1.120000,-0.840000
43.443490,-0.001952,-0.320616,0.929640,-1.260000,-5.880000,-1.120000
43.447556,-0.002440,-0.221064,0.980880,0.280000,0.700000,-0.420000
43.451622,0.097112,-0.239608,1.052616,-2.240000,4.620000,-1.960000
43.455688,-0.061000,-0.257176,0.986736,-3.220000,0.420000,-1.260000
43.459755,-0.077592,-0.243024,0.879376,0.560000,-1.680000,-0.140000
43.463821,-0.009760,-0.366488,0.963312,-1.820000,-1.540000,-0.840000
43.467887,0.084912,-0.246440,1.126792,-2.520000,-2.940000,-0.980000
43.471953,-0.000976,-0.158112,0.845216,0.840000,0.980000,-1.400000
43.476019,-0.090280,-0.307928,0.918416,-4.060000,4.060000,-1.680000
43.480085,-0.005368,-0.322080,1.054568,-2.240000,-1.120000,0.280000
43.484151,0.055632,-0.285480,0.977952,3.220000,-5.180000,0.000000
43.488217,-0.078568,-0.280112,0.900848,-3.360000,1.820000,-2.940000
43.492283,0.040992,-0.163968,0.977952,-2.380000,2.800000,-0.700000
43.496349,0.008784,-0.318664,0.936960,1.820000,-2.100000,0.140000
43.500415,-0.035624,-0.382592,1.008696,-2.380000,-2.800000,-1.120000
43.504481,-0.024888,-0.184464,0.983808,-1.680000,2.660000,-1.260000
43.508547,0.043432,-0.225456,0.980880,-0.140000,1.680000,-0.840000
43.512613,-0.034160,-0.315248,0.985272,-1.540000,-3.640000,-0.560000
43.516679,-0.018056,-0.262544,0.925248,1.400000,-1.260000,-0.140000
43.520745,0.026352,-0.288408,0.998448,-1.260000,1.400000,-1.120000
43.524811,0.034160,-0.250832,1.006256,-2.520000,-0.140000,-1.120000
43.528877,-0.073200,-0.234728,0.868640,1.400000,-0.140000,-0.140000
43.532943,-0.053192,-0.322568,0.963800,-1.960000,0.420000,-0.700000
43.537009,0.092720,-0.254736,1.132160,-1.260000,-3.080000,0.560000
43.541075,-0.005856,-0.212768,0.902312,2.100000,0.000000,-0.980000
43.545141,-0.092720,-0.310856,0.885232,-3.640000,1.820000,-2.100000
43.549207,0.036600,-0.241072,1.031632,-1.960000,-1.400000,0.700000
43.553273,0.059536,-0.307440,1.017480,1.960000,-1.820000,0.140000
43.557339,-0.062464,-0.283040,0.941840,-2.240000,-0.140000,-1.260000
43.561405,-0.037576,-0.193736,0.908656,-1.680000,2.520000,-0.980000
43.565471,-0.000976,-0.284016,0.974536,0.560000,-0.140000,0.140000
43.569537,-0.023912,-0.361120,1.045296,-1.120000,-4.060000,-0.420000
43.573603,0.040992,-0.219112,0.915488,1.120000,-2.240000,0.000000
43.577669,-0.006344,-0.237168,0.918904,-0.420000,3.220000,-1.540000
43.581735,0.027816,-0.264008,1.054080,-2.940000,0.840000,-1.120000
43.585802,-0.068808,-0.242048,0.949160,1.680000,-1.260000,0.840000
43.589868,-0.054656,-0.378688,0.893040,-0.840000,-0.700000,-0.700000
43.593934,0.061976,-0.219600,1.090192,-2.660000,-2.380000,-0.560000
43.598000,0.032208,-0.216184,0.962824,2.940000,-0.140000,-0.420000
43.602066,-0.086864,-0.312808,0.879864,-1.680000,1.120000,-1.820000
43.606132,0.019032,-0.242536,1.038464,-1.680000,-0.560000,0.420000
43.610198,0.048312,-0.289384,1.000400,1.960000,-0.700000,0.140000
43.614264,-0.046848,-0.298168,0.977952,-1.260000,-0.140000,-1.680000
43.618330,-0.037576,-0.201056,0.930128,-0.700000,0.700000,-0.420000
43.622396,0.009272,-0.274744,0.943304,1.540000,0.420000,0.140000
43.626462,0.038064,-0.362096,1.034072,-0.980000,-4.200000,-0.560000
43.630528,0.017568,-0.203008,0.955992,0.420000,-0.560000,-0.420000
43.634594,-0.095160,-0.227896,0.840336,0.280000,6.020000,-1.680000
43.638660,0.007320,-0.247904,1.100440,-2.520000,-0.840000,-0.280000
43.642726,0.000976,-0.300608,0.959896,1.680000,-4.620000,0.700000
43.646792,-0.038064,-0.342088,0.918904,0.140000,-1.400000,-0.840000
43.650858,0.039528,-0.189344,1.066280,-4.200000,1.680000,-2.100000
43.654924,0.081008,-0.178120,0.929152,1.680000,0.560000,-0.140000
43.658990,-0.152256,-0.379664,0.817888,-0.560000,1.820000,-1.680000
43.663056,-0.042456,-0.306464,1.070184,-3.080000,-0.700000,-0.140000
43.667122,0.105408,-0.185440,1.066280,1.540000,-3.360000,0.140000
43.671188,-0.021960,-0.264496,0.925736,-0.420000,0.280000,-2.100000
43.675254,-0.012200,-0.244976,0.957456,-2.940000,-0.980000,-0.700000
43.679320,0.019032,-0.263520,0.951600,0.840000,2.380000,-0.700000
43.683386,-0.002440,-0.324520,1.023336,-0.140000,1.400000,-2.520000
43.687452,-0.068320,-0.247904,0.940864,-0.980000,-1.400000,-1.540000
43.691518,-0.006832,-0.223992,0.923296,0.000000,-0.980000,-0.700000
43.695584,0.030256,-0.280600,1.082384,-3.360000,-1.540000,-0.980000
43.699650,0.050752,-0.269376,0.989176,0.280000,-1.960000,0.280000
43.703716,-0.057584,-0.288408,0.850096,0.420000,1.400000,-1.820000
43.707783,-0.037576,-0.290848,1.002840,-4.480000,4.200000,-1.960000
43.711849,-0.017568,-0.219600,1.010160,0.700000,-1.540000,0.420000
43.715915,-0.024400,-0.329888,0.914024,1.260000,-4.900000,0.140000
43.719981,0.030744,-0.263520,1.033584,-3.360000,-1.960000,-1.400000
43.724047,0.059048,-0.176656,0.970144,-0.700000,2.520000,-0.280000
43.728113,-0.030744,-0.298656,0.910120,-1.260000,1.120000,-1.120000
43.732179,-0.065392,-0.303048,1.006256,-4.060000,-0.560000,-0.980000
43.736245,-0.031232,-0.250832,0.972096,0.140000,0.420000,0.140000
43.740311,0.026352,-0.322568,0.967216,-1.120000,-3.360000,-0.420000
43.744377,0.025864,-0.235216,0.972096,-2.380000,-3.080000,-1.260000
43.748443,-0.018056,-0.230336,0.918904,0.560000,3.500000,-0.560000
43.752509,0.011712,-0.334280,1.018944,-2.520000,0.980000,-0.980000
43.756575,0.005856,-0.234240,1.061400,-1.400000,-1.680000,0.560000
43.760641,-0.056120,-0.294264,0.832040,0.700000,0.280000,-0.280000
43.764707,-0.008784,-0.289384,0.983320,-2.660000,-1.540000,-1.540000
43.768773,0.074664,-0.244976,1.033584,0.280000,-1.540000,0.280000
43.772839,-0.046848,-0.292312,0.886696,1.820000,0.560000,-0.280000
43.776905,-0.044408,-0.266936,0.976976,-2.940000,0.140000,-1.120000
43.780971,0.072224,-0.217160,0.992592,0.420000,0.420000,0.280000
43.785037,-0.046360,-0.310368,0.975024,0.840000,-0.280000,-1.400000
43.789103,-0.063440,-0.254248,0.961848,-1.680000,-0.560000,-1.400000
43.793169,0.016104,-0.243512,0.985272,1.400000,0.700000,0.420000
43.797235,0.010248,-0.315736,0.965264,1.260000,-3.640000,-0.700000
43.801301,0.017080,-0.271328,0.957456,-0.980000,-2.240000,-1.120000
43.805367,-0.064416,-0.165432,0.905728,0.700000,5.460000,-1.260000
43.809433,0.002928,-0.317688,1.030656,-1.540000,0.840000,-0.560000
43.813499,0.048800,-0.296216,1.064328,0.420000,-6.580000,1.120000
43.817565,-0.024888,-0.286456,0.837408,1.960000,-0.840000,-0.420000
43.821631,-0.013664,-0.247904,0.980392,-4.060000,4.480000,-1.680000
43.825697,0.039040,-0.220088,1.050664,-0.140000,0.000000,-0.280000
43.829763,-0.087352,-0.291824,0.890600,2.380000,-1.820000,-0.980000
43.833829,-0.021960,-0.307440,0.993568,-3.220000,-1.260000,-0.420000
43.837896,0.081496,-0.219600,1.062376,-1.400000,-1.540000,0.140000
43.841962,-0.007808,-0.299144,0.928664,0.840000,1.960000,-1.120000
43.846028,-0.060512,-0.283528,0.938912,-3.780000,0.700000,-1.120000
43.850094,-0.035624,-0.211792,0.940376,0.000000,0.280000,0.700000
43.854160,0.066368,-0.320616,1.015528,0.840000,-2.240000,-0.280000
43.858226,-0.036600,-0.281088,1.000888,-2.240000,-2.660000,-1.260000
43.862292,-0.004880,-0.176168,0.894016,-0.980000,2.240000,-0.980000
43.866358,-0.018056,-0.272792,1.033096,-2.520000,2.380000,-0.980000
43.870424,-0.003416,-0.291824,1.037000,-1.960000,-3.500000,0.700000
43.874490,0.023424,-0.271328,0.874008,1.680000,-4.060000,0.700000
43.878556,-0.053680,-0.291336,0.926224,-3.500000,3.500000,-2.660000
43.882622,0.046848,-0.238144,1.039928,-2.520000,0.560000,-0.840000
43.886688,-0.045384,-0.226432,0.943304,1.960000,-0.840000,-0.280000
43.890754,-0.038552,-0.355752,0.932080,-3.220000,-0.700000,-0.560000
43.894820,0.079056,-0.224968,1.087752,-0.700000,-2.240000,0.280000
43.898886,0.006832,-0.291336,0.924760,1.960000,1.120000,-1.680000
43.902952,-0.075152,-0.285968,0.906216,-3.220000,2.380000,-1.680000
43.907018,-0.027816,-0.207888,0.991616,-1.400000,-0.980000,0.000000
43.911084,0.025864,-0.315248,1.010160,0.840000,-1.820000,0.140000
43.915150,0.046848,-0.312320,1.014064,-2.380000,-3.640000,-0.980000
43.919216,-0.044896,-0.180072,0.887184,-0.700000,3.640000,-2.100000
43.923282,-0.035624,-0.252784,1.010648,-0.700000,3.640000,-1.120000
43.927348,-0.016104,-0.316224,0.995520,-1.540000,-4.900000,0.280000
43.931414,0.021960,-0.276208,0.902312,2.100000,-4.760000,0.140000
43.935480,-0.033672,-0.275720,0.971608,-3.080000,2.660000,-2.660000
43.939546,0.086376,-0.211304,1.037976,-3.360000,2.100000,-0.980000
43.943612,-0.076128,-0.200080,0.922808,2.520000,-0.140000,0.000000
43.947678,-0.081008,-0.353312,0.876936,-2.240000,-0.980000,-0.420000
43.951744,0.102480,-0.301584,1.125328,-2.100000,-4.760000,0.560000
43.955810,0.017568,-0.221552,0.956480,1.400000,1.540000,-2.100000
43.959876,-0.089304,-0.298168,0.840824,-2.520000,4.480000,-2.940000
43.963943,-0.065392,-0.182024,1.001864,-1.400000,-0.280000,0.140000
43.968009,0.081008,-0.347456,0.998936,2.940000,-4.760000,0.140000
43.972075,0.017568,-0.363560,1.019432,-1.120000,-2.660000,-1.540000
43.976141,-0.046360,-0.188856,0.932080,-1.400000,4.900000,-2.940000
43.980207,-0.007320,-0.200080,0.981856,1.120000,4.200000,-1.260000
43.984273,0.000976,-0.311832,0.972584,-0.560000,-5.600000,-0.140000
43.988339,-0.005368,-0.310856,0.933056,1.540000,-4.620000,0.140000
43.992405,0.026352,-0.280112,0.986736,-1.680000,2.380000,-2.520000
43.996471,0.020984,-0.210816,1.037488,-4.340000,4.480000,-1.260000
44.000537,-0.063440,-0.214232,0.924760,1.540000,-0.140000,0.560000
44.004603,-0.054656,-0.376736,0.893040,0.420000,-4.480000,0.140000
44.008669,0.068808,-0.300608,1.086288,-2.520000,-2.660000,-0.840000
44.012735,0.037088,-0.195688,0.972584,1.120000,3.080000,-1.680000
44.016801,-0.077592,-0.263032,0.821792,-1.540000,3.920000,-2.380000
44.020867,-0.089304,-0.222040,1.006256,-3.080000,-0.980000,0.420000
44.024933,0.079544,-0.322568,1.010648,2.660000,-5.460000,1.540000
44.028999,0.065880,-0.338672,1.023824,-0.700000,-3.220000,-1.680000
44.033065,-0.041480,-0.211304,0.919392,-3.500000,4.900000,-2.380000
44.037131,-0.089304,-0.183976,0.918416,-0.280000,5.880000,-0.420000
44.041197,-0.005368,-0.331840,1.035048,-2.100000,-4.620000,0.700000
44.045263,0.058560,-0.322080,1.018456,0.840000,-8.120000,1.540000
44.049329,-0.028792,-0.222040,0.921344,0.560000,2.240000,-2.660000
44.053395,0.007808,-0.284016,0.986736,-4.340000,6.440000,-2.240000
44.057461,0.000488,-0.212280,1.025288,-0.280000,-1.960000,0.980000
44.061527,-0.066856,-0.340136,0.870104,1.820000,-3.780000,0.420000
44.065593,0.056608,-0.307928,1.016504,-2.660000,-1.400000,-0.280000
44.069659,0.043432,-0.185928,1.044320,-0.140000,1.680000,-1.820000
44.073725,-0.086376,-0.270840,0.840824,0.280000,3.500000,-1.680000
44.077791,-0.055632,-0.261568,0.967216,-3.360000,-1.960000,0.560000
44.081857,0.058072,-0.306952,1.036512,2.240000,-5.460000,1.400000
44.085923,0.041480,-0.327448,0.960872,0.700000,-0.420000,-1.540000
44.089990,-0.011712,-0.232776,0.918904,-3.080000,3.500000,-2.660000
44.094056,-0.134200,-0.140056,0.932568,0.420000,4.900000,-0.420000
44.098122,0.027328,-0.325008,1.052128,-0.420000,-4.340000,1.260000
44.102188,0.089792,-0.363560,1.046272,1.120000,-9.660000,1.260000
44.106254,0.020984,-0.226920,0.901336,1.540000,2.240000,-3.080000
44.110320,-0.059536,-0.252784,0.939888,-5.180000,11.060000,-3.080000
44.114386,-0.028304,-0.176168,1.016504,-1.120000,-1.120000,0.980000
44.118452,-0.071736,-0.352824,0.903288,3.360000,-7.560000,1.540000
44.122518,0.062464,-0.339648,1.028704,-1.960000,-3.920000,-1.400000
44.126584,0.037576,-0.174704,1.044320,-2.100000,2.240000,-2.100000
44.130650,0.024888,-0.232776,0.894504,1.260000,4.760000,-1.820000
44.134716,-0.141032,-0.332328,0.919880,-3.360000,0.980000,-0.280000
44.138782,0.024888,-0.320128,0.988200,0.980000,-5.180000,2.100000
44.142848,0.092232,-0.266936,1.038464,2.520000,-2.520000,-1.820000
44.146914,-0.041968,-0.239120,0.879376,-1.820000,3.080000,-2.660000
44.150980,-0.064416,-0.162992,0.879376,0.700000,2.240000,0.280000
44.155046,-0.015616,-0.317688,1.047248,0.000000,-1.400000,0.420000
44.159112,0.095160,-0.383568,1.072136,-0.140000,-5.320000,1.120000
44.163178,-0.017568,-0.195200,0.922320,2.240000,0.420000,-1.960000
44.167244,-0.103456,-0.267424,0.864248,-1.680000,7.420000,-2.660000
44.171310,0.017568,-0.213256,1.082384,-2.660000,-2.520000,0.840000
44.175376,0.000000,-0.299632,0.972584,3.920000,-7.840000,2.240000
44.179442,0.048800,-0.340136,0.961360,-1.120000,-1.540000,-1.120000
44.183508,-0.004880,-0.189832,0.989176,-3.500000,4.760000,-2.800000
44.187574,-0.015128,-0.247416,0.934032,0.980000,5.320000,-0.980000
44.191640,-0.118096,-0.315248,0.983808,-1.680000,-1.960000,-0.140000
44.195706,0.004392,-0.266448,0.937936,-0.980000,-7.560000,2.520000
44.199772,0.112240,-0.267912,0.993080,2.100000,-2.380000,-1.400000
44.203838,0.001464,-0.293288,1.023824,-3.920000,5.600000,-3.640000
44.207904,-0.106384,-0.143960,0.915488,-0.280000,3.220000,-0.140000
44.211970,-0.054656,-0.329400,0.905728,2.520000,-2.520000,0.140000
44.216037,0.110776,-0.413824,1.109224,-1.680000,-4.760000,-0.280000
44.220103,0.050752,-0.167872,0.962824,2.520000,-3.220000,-1.400000
44.224169,-0.092232,-0.230336,0.824232,-0.140000,8.260000,-2.940000
44.228235,-0.026352,-0.234240,1.007232,-4.200000,2.100000,0.560000
44.232301,0.036112,-0.356728,1.047248,3.780000,-7.700000,2.240000
44.236367,-0.009760,-0.328912,0.933544,2.100000,-2.520000,-2.100000
44.240433,-0.041480,-0.206912,0.953552,-3.500000,5.040000,-2.380000
44.244499,0.035136,-0.155184,0.976000,1.120000,1.820000,0.280000
44.248565,-0.031232,-0.335256,0.994544,1.260000,-3.780000,0.000000
44.252631,-0.000488,-0.320128,0.983808,-1.120000,-3.220000,0.560000
44.256697,-0.000488,-0.229848,0.935984,0.980000,1.400000,-0.560000
44.260763,0.031720,-0.302560,1.012600,-1.540000,2.660000,-2.520000
44.264829,-0.065880,-0.192272,0.961360,-1.260000,0.140000,-0.560000
44.268895,-0.092720,-0.265472,0.888648,2.380000,-1.540000,0.980000
44.272961,0.098576,-0.367952,1.117520,-1.680000,-2.940000,-0.420000
44.277027,0.058072,-0.217160,1.011136,-0.140000,-1.540000,-0.980000
44.281093,-0.065880,-0.253272,0.780312,-0.140000,4.480000,-2.100000
44.285159,-0.069784,-0.223016,1.069208,-4.200000,2.940000,-0.560000
44.289225,0.035136,-0.274256,1.012112,0.980000,-5.740000,2.240000
44.293291,0.044896,-0.332328,0.923784,2.660000,-4.340000,-0.280000
44.297357,-0.033184,-0.257664,0.945256,-5.320000,4.200000,-3.640000
44.301423,-0.022936,-0.160552,0.989176,-0.980000,4.620000,-0.280000
44.305489,-0.058072,-0.325496,0.946232,1.260000,-2.940000,0.280000
44.309555,0.055632,-0.335256,1.016016,-1.400000,-8.960000,1.400000
44.313621,0.015128,-0.211304,0.935984,0.000000,1.120000,-1.400000
44.317687,0.001464,-0.251808,0.952576,-2.520000,7.700000,-2.940000
44.321753,-0.060024,-0.238144,1.045296,-3.220000,1.540000,-0.700000
44.325819,-0.088816,-0.245464,0.899384,1.960000,-6.300000,2.520000
44.329885,0.065880,-0.375760,0.995520,-0.980000,-5.320000,0.140000
44.333951,0.114680,-0.221064,1.098976,-3.640000,0.000000,-2.660000
44.338017,-0.028792,-0.206912,0.819352,0.000000,7.000000,-2.100000
44.342084,-0.197152,-0.290360,0.931104,-4.480000,5.180000,-1.820000
44.346150,0.047336,-0.347456,1.058960,-0.140000,-8.260000,3.500000
44.350216,0.115168,-0.312808,1.027728,4.340000,-8.680000,0.000000
44.354282,-0.036600,-0.234240,0.871568,-2.940000,4.480000,-4.620000
44.358348,-0.013664,-0.159088,0.941840,-2.660000,8.120000,-0.980000
44.362414,-0.077104,-0.310368,0.979416,0.140000,-0.560000,0.700000
44.366480,0.017568,-0.410896,1.049688,0.140000,-9.240000,1.820000
44.370546,0.064416,-0.188368,0.915488,1.960000,-1.820000,-1.120000
44.374612,-0.023424,-0.167872,0.932568,-1.960000,8.260000,-3.360000
44.378678,-0.028792,-0.283040,0.998936,-3.780000,1.120000,-0.140000
44.382744,-0.048800,-0.276208,0.980880,2.660000,-7.980000,2.100000
44.386810,0.002928,-0.398208,0.962336,-0.280000,-1.820000,0.000000
44.390876,0.099552,-0.200080,1.056520,-2.800000,1.960000,-2.240000
44.394942,-0.036600,-0.163968,0.855464,-0.140000,4.480000,-1.960000
44.399008,-0.179584,-0.320128,0.947696,-4.200000,2.660000,-0.140000
44.403074,0.084424,-0.305000,1.066280,0.140000,-8.820000,3.920000
44.407140,0.160552,-0.307440,1.005280,3.640000,-6.300000,-0.560000
44.411206,-0.088328,-0.232776,0.917928,-3.920000,8.120000,-4.900000
44.415272,-0.117120,-0.182512,0.908656,-2.660000,7.700000,-1.400000
44.419338,-0.011712,-0.324032,1.013576,1.680000,-5.460000,2.240000
44.423404,0.064416,-0.395768,1.007232,0.840000,-12.040000,1.820000
44.427470,0.086376,-0.165920,0.965264,1.120000,-0.420000,-2.660000
44.431536,-0.051728,-0.193248,0.877912,-3.220000,12.880000,-3.780000
44.435602,-0.079544,-0.246928,1.025288,-4.200000,5.040000,-0.560000
44.439668,-0.073200,-0.340624,0.958432,3.360000,-11.060000,3.920000
44.443734,0.080032,-0.375760,0.957944,1.820000,-7.840000,0.560000
44.447800,0.059048,-0.169824,1.063840,-2.800000,4.200000,-4.200000
44.451866,-0.011224,-0.183976,0.895480,-0.140000,8.400000,-2.660000
44.455932,-0.204472,-0.299144,0.932568,-1.960000,1.540000,-0.140000
44.459998,0.058072,-0.347944,1.052616,0.280000,-10.920000,3.220000
44.464064,0.188856,-0.317688,1.014552,3.080000,-5.880000,0.840000
44.468131,-0.032696,-0.208864,0.968192,-2.940000,6.020000,-4.760000
44.472197,-0.108824,-0.139568,0.844728,-2.660000,10.360000,-2.240000
44.476263,-0.150792,-0.322568,0.944280,-0.140000,-1.400000,1.400000
44.480329,0.121024,-0.456768,1.118984,-0.560000,-12.600000,2.100000
44.484395,0.089792,-0.216672,0.937448,3.780000,-5.740000,-1.960000
44.488461,-0.064416,-0.123952,0.865712,-1.960000,11.760000,-3.920000
44.492527,-0.025376,-0.252784,1.010160,-4.480000,6.860000,-0.980000
44.496593,-0.000976,-0.310368,1.033096,3.500000,-9.240000,3.360000
44.500659,-0.045384,-0.402600,0.895480,2.520000,-7.140000,0.700000
44.504725,0.084424,-0.220088,1.001376,-3.080000,2.940000,-2.520000
44.508791,0.020008,-0.139568,0.954040,-0.840000,8.960000,-2.660000
44.512857,-0.199592,-0.271816,0.966240,-1.260000,2.380000,-1.260000
44.516923,0.000976,-0.326960,0.985760,0.420000,-10.640000,2.940000
44.520989,0.171776,-0.311832,1.067744,3.080000,-7.000000,0.280000
44.525055,-0.002928,-0.284016,0.954528,-2.660000,5.040000,-4.060000
44.529121,-0.023424,-0.189832,0.903776,-3.220000,7.840000,-2.380000
44.533187,-0.187880,-0.244488,0.916464,0.420000,2.100000,0.560000
44.537253,0.040016,-0.416264,1.044320,0.420000,-8.960000,2.660000
44.541319,0.178608,-0.240096,1.024800,2.800000,-8.540000,0.560000
44.545385,-0.038064,-0.112240,0.915976,-1.260000,7.140000,-4.620000
44.549451,-0.081008,-0.231312,0.914512,-5.320000,12.320000,-2.800000
44.553517,-0.064904,-0.287432,1.007232,1.400000,-5.600000,3.220000
44.557583,0.002928,-0.453840,1.010160,2.660000,-11.340000,1.120000
44.561649,0.064416,-0.249368,0.946232,-1.540000,-2.240000,-2.520000
44.565715,0.045872,-0.124928,0.932080,-2.100000,9.520000,-2.520000
44.569781,-0.146888,-0.271328,0.964288,-2.240000,6.440000,-1.540000
44.573847,0.024888,-0.347456,1.004304,1.960000,-9.240000,2.380000
44.577913,0.012200,-0.355752,0.956480,3.780000,-4.900000,0.700000
44.581979,0.089304,-0.258640,1.011136,-1.960000,1.260000,-1.960000
44.586045,0.025376,-0.117120,0.907680,-0.560000,5.040000,-2.520000
44.590111,-0.217160,-0.209352,0.901336,0.140000,6.160000,-1.400000
44.594178,0.031720,-0.394304,1.141920,-1.960000,-6.720000,3.080000
44.598244,0.172264,-0.287432,1.067256,4.200000,-9.800000,1.120000
44.602310,-0.077104,-0.223992,0.796416,-0.840000,3.080000,-4.900000
44.606376,-0.057096,-0.195688,0.920856,-6.580000,11.480000,-3.360000
44.610442,-0.048312,-0.263520,1.050664,0.140000,-1.680000,2.520000
44.614508,0.004392,-0.440176,0.957456,3.500000,-12.180000,1.680000
44.618574,0.040504,-0.253760,0.968680,-0.280000,-1.260000,-1.960000
44.622640,0.069296,-0.104920,0.977952,-1.260000,7.420000,-1.820000
44.626706,-0.087352,-0.296216,0.910608,-1.540000,5.740000,-3.080000
44.630772,-0.129320,-0.288896,1.015040,0.280000,-3.920000,1.820000
44.634838,0.036112,-0.387472,0.947696,3.220000,-8.820000,2.520000
44.638904,0.179096,-0.259616,1.106784,-0.280000,-3.080000,-2.940000
44.642970,-0.004392,-0.128832,0.883768,-1.680000,7.140000,-2.380000
44.647036,-0.161528,-0.221552,0.879864,-1.960000,7.000000,-1.680000
44.651102,-0.002440,-0.348920,1.073600,-2.240000,-4.200000,2.800000
44.655168,0.132736,-0.300120,0.980880,4.900000,-9.660000,2.380000
44.659234,-0.097112,-0.246928,0.864736,0.280000,1.260000,-4.340000
44.663300,-0.033184,-0.220576,0.944280,-4.760000,8.400000,-2.660000
44.667366,-0.027328,-0.250344,1.019432,0.840000,0.000000,0.840000
44.671432,-0.020984,-0.436272,1.025776,2.520000,-7.840000,1.260000
44.675498,0.057584,-0.257664,1.001376,0.700000,-3.220000,-0.140000
44.679564,0.049776,-0.149328,0.926712,0.280000,5.880000,-2.240000
44.683630,-0.049776,-0.296216,0.967704,-3.220000,4.620000,-1.680000
44.687696,-0.091256,-0.279136,1.042368,0.280000,-4.620000,1.400000
44.691762,0.035136,-0.306464,0.919392,2.660000,-6.300000,2.100000
44.695828,0.082472,-0.252296,0.995520,-2.240000,0.560000,-2.240000
44.699894,0.025376,-0.148840,1.004792,-1.400000,5.180000,-2.100000
44.703960,-0.171776,-0.286944,0.832528,-0.560000,3.500000,-1.400000
44.708026,-0.028304,-0.316224,1.009184,-1.820000,-5.460000,1.960000
44.712092,0.185440,-0.252784,1.051640,3.500000,-8.680000,2.380000
44.716158,-0.065392,-0.275720,0.911096,-0.700000,3.080000,-3.780000
44.720225,-0.041968,-0.249856,0.887672,-4.760000,8.680000,-3.080000
44.724291,-0.094672,-0.204472,1.043832,0.140000,0.700000,0.840000
44.728357,0.008784,-0.410896,1.004792,1.820000,-8.540000,2.380000
44.732423,0.101504,-0.301584,0.991128,1.120000,-6.440000,-0.140000
44.736489,0.025376,-0.090280,0.951600,-0.560000,6.580000,-3.080000
44.740555,-0.035136,-0.306952,0.975024,-3.640000,9.100000,-2.800000
44.744621,-0.115168,-0.281088,1.002840,0.280000,-4.060000,1.680000
44.748687,-0.018056,-0.373808,0.880352,3.500000,-8.820000,1.960000
44.752753,0.098088,-0.235216,1.026752,-2.240000,-2.940000,-2.380000
44.756819,0.085400,-0.073200,1.040904,-2.940000,8.400000,-1.960000
44.760885,-0.206912,-0.268888,0.827648,-0.980000,6.300000,-2.380000
44.764951,-0.006344,-0.391376,0.997472,-2.520000,-8.540000,2.660000
44.769017,0.142008,-0.326960,1.042856,2.380000,-8.400000,1.540000
44.773083,-0.017080,-0.240584,0.948672,0.280000,3.780000,-2.660000
44.777149,-0.050264,-0.218624,0.904752,-3.080000,8.260000,-3.080000
44.781215,-0.089792,-0.230336,0.985760,0.000000,0.140000,1.260000
44.785281,0.011712,-0.396256,1.017480,1.260000,-7.840000,1.960000
44.789347,0.121024,-0.265960,0.996496,2.520000,-5.040000,-0.140000
44.793413,-0.059048,-0.161528,0.916952,-2.100000,6.720000,-3.500000
44.797479,-0.018056,-0.274744,0.916952,-3.500000,6.860000,-2.100000
44.801545,-0.058072,-0.269864,1.041392,1.960000,-4.480000,2.380000
44.805611,-0.008296,-0.340624,0.942816,3.640000,-8.540000,1.820000
44.809677,0.099552,-0.260104,1.013088,-2.240000,-1.540000,-2.800000
44.813743,0.075640,-0.114680,0.965752,-0.840000,7.840000,-1.820000
44.817809,-0.214232,-0.336720,0.885720,-1.820000,5.880000,-1.820000
44.821875,-0.021960,-0.287432,1.084336,-0.700000,-8.120000,2.800000
44.825941,0.117608,-0.276696,0.946232,4.060000,-7.140000,2.100000
44.830007,-0.001952,-0.294264,0.987712,-2.520000,2.660000,-3.640000
44.834073,-0.039040,-0.229360,0.916952,-3.080000,5.600000,-2.380000
44.838139,-0.046360,-0.254248,0.952576,0.700000,0.140000,0.280000
44.842205,-0.011224,-0.355264,1.053104,0.280000,-4.480000,1.960000
44.846272,0.099064,-0.218624,0.953552,2.800000,-3.360000,0.560000
44.850338,-0.048312,-0.179096,0.891576,-0.700000,2.380000,-3.360000
44.854404,-0.001952,-0.275232,0.996496,-3.500000,5.600000,-1.960000
44.858470,-0.106384,-0.272792,0.964288,1.260000,-2.380000,1.960000
44.862536,-0.028792,-0.387472,0.994544,0.840000,-7.840000,1.820000
44.866602,0.127856,-0.184464,0.985272,-0.980000,-1.400000,-1.960000
44.870668,-0.019520,-0.230336,0.970144,-1.260000,8.680000,-2.940000
44.874734,-0.122000,-0.307928,0.995032,-2.240000,1.960000,-0.840000
44.878800,0.055144,-0.252784,1.004792,0.840000,-9.100000,3.080000
44.882866,0.087840,-0.286944,0.926712,2.100000,-3.360000,0.700000
44.886932,-0.023424,-0.256200,1.033096,-3.220000,4.060000,-3.220000
44.890998,0.012688,-0.204472,0.859368,-0.280000,5.600000,-2.380000
44.895064,-0.212768,-0.272304,0.887184,-1.540000,3.080000,-0.280000
44.899130,0.058072,-0.370880,1.110688,-1.120000,-9.800000,4.060000
44.903196,0.155184,-0.194224,1.046760,5.040000,-8.540000,-0.560000
44.907262,-0.105896,-0.194224,0.784704,-3.080000,8.540000,-5.040000
44.911328,-0.009272,-0.204960,1.088728,-4.760000,8.260000,-1.400000
44.915394,-0.122488,-0.328424,1.000888,2.520000,-5.740000,1.680000
44.919460,0.045872,-0.464088,0.910120,1.260000,-8.540000,0.140000
44.923526,0.116144,-0.204472,0.998448,-1.960000,-0.140000,-1.540000
44.927592,0.003416,-0.170800,0.943792,-0.560000,7.840000,-2.100000
44.931658,-0.099552,-0.276696,0.910608,-1.120000,2.940000,-1.400000
44.935724,-0.037576,-0.305976,1.000888,1.820000,-5.180000,2.800000
44.939790,0.101992,-0.329400,1.057984,2.660000,-5.180000,1.120000
44.943856,-0.029768,-0.223016,0.955504,-0.840000,2.100000,-3.640000
44.947922,-0.030744,-0.149816,0.841312,-1.680000,5.040000,-1.400000
44.951988,-0.120536,-0.302072,0.981856,-2.520000,-0.280000,0.140000
44.956054,0.122488,-0.355752,1.126792,1.400000,-7.840000,3.500000
44.960120,0.069784,-0.228872,0.943304,3.080000,-4.620000,-0.560000
44.964186,-0.107360,-0.238632,0.883768,-4.760000,8.960000,-4.480000
44.968252,0.006344,-0.193736,1.022360,-2.660000,5.600000,-0.560000
44.972319,-0.102968,-0.347944,0.963312,3.080000,-7.000000,2.940000
44.976385,0.080032,-0.325496,1.027240,-0.700000,-8.540000,1.540000
44.980451,0.119560,-0.142984,0.943792,-0.980000,0.840000,-1.960000
44.984517,-0.078080,-0.205448,0.884256,-3.080000,9.800000,-3.640000
44.988583,-0.167384,-0.316712,1.034560,-4.340000,2.660000,-0.980000
44.992649,0.011224,-0.318664,0.954040,1.960000,-9.660000,3.220000
44.996715,0.113704,-0.366000,0.987224,0.980000,-6.020000,0.280000
45.000781,0.018056,-0.167384,1.023824,-1.960000,2.660000,-3.500000
45.004847,-0.002440,-0.173240,0.781288,-0.420000,7.140000,-1.680000
45.008913,-0.135664,-0.358680,1.037488,-4.200000,3.360000,-0.840000
45.012979,0.063440,-0.309880,1.132648,2.100000,-7.700000,3.920000
45.017045,0.046848,-0.295728,0.881816,3.780000,-6.580000,-0.420000
45.021111,-0.059048,-0.192272,0.924272,-3.360000,4.900000,-4.900000
45.025177,0.072224,-0.172264,0.973072,-0.980000,4.900000,-0.420000
45.029243,-0.136152,-0.366488,0.960872,0.560000,-2.520000,0.560000
45.033309,0.013176,-0.368928,1.050176,-0.560000,-5.320000,2.100000
45.037375,0.095160,-0.158112,0.938424,1.540000,-1.400000,0.000000
45.041441,-0.046360,-0.267424,0.955016,-2.240000,5.320000,-3.500000
45.045507,-0.047824,-0.227408,1.015040,-1.540000,2.660000,-0.420000
45.049573,-0.048312,-0.336720,0.898408,2.800000,-5.180000,1.960000
45.053639,0.097112,-0.324032,1.084336,-0.420000,-4.620000,0.280000
45.057705,0.049776,-0.131760,0.975512,-0.140000,1.680000,-1.540000
45.061771,-0.101504,-0.253272,0.753960,-1.960000,5.740000,-2.520000
45.065837,-0.082960,-0.268888,1.123864,-4.200000,0.840000,-0.280000
45.069903,0.067344,-0.294264,1.015528,2.660000,-6.720000,4.060000
45.073969,0.026840,-0.328424,0.909632,1.960000,-5.880000,-0.980000
45.078035,-0.002928,-0.143960,1.019432,-4.900000,5.880000,-3.920000
45.082101,0.010248,-0.249368,0.919392,-0.700000,5.180000,-0.700000
45.086167,-0.182024,-0.399184,0.960384,-0.420000,-2.800000,0.280000
45.090233,0.087840,-0.302072,1.043344,0.420000,-7.280000,2.380000
45.094299,0.084424,-0.227896,0.916952,1.820000,-1.680000,-0.980000
45.098366,-0.020496,-0.214232,0.970144,-2.660000,5.460000,-2.940000
45.102432,-0.029280,-0.228384,0.899872,-0.280000,2.660000,-0.280000
45.106498,-0.144936,-0.330376,0.971120,0.700000,-2.800000,1.260000
45.110564,0.158600,-0.330864,1.118496,-0.280000,-6.300000,1.820000
45.114630,0.019520,-0.144448,0.910120,1.960000,0.280000,-1.680000
45.118696,-0.087352,-0.276208,0.886696,-2.100000,7.840000,-3.500000
45.122762,-0.051240,-0.253272,1.066280,-2.800000,1.960000,-0.140000
45.126828,0.040016,-0.340624,0.973560,4.200000,-9.940000,3.780000
45.130894,0.033184,-0.305488,0.994056,-0.280000,-4.900000,-1.260000
45.134960,0.009760,-0.124440,0.916464,-2.100000,6.440000,-2.380000
45.139026,-0.038064,-0.238632,0.936960,-0.980000,6.860000,-1.960000
45.143092,-0.113704,-0.350384,1.084824,-2.240000,-2.800000,0.840000
45.147158,0.036600,-0.315248,0.903288,2.520000,-8.260000,3.780000
45.151224,0.093208,-0.228384,0.908656,0.420000,-5.040000,-1.820000
45.155290,0.036112,-0.192760,1.065304,-4.760000,8.540000,-3.780000
45.159356,-0.150792,-0.235704,0.873032,0.840000,6.160000,-0.840000
45.163422,-0.101016,-0.430416,0.968680,1.540000,-5.460000,1.540000
45.167488,0.192272,-0.329888,1.152656,1.680000,-8.960000,2.240000
45.171554,-0.011224,-0.171288,0.912560,3.920000,-0.980000,-2.660000
45.175620,0.020008,-0.146400,0.833016,-4.060000,9.240000,-2.660000
45.179686,-0.085888,-0.212280,1.024800,-1.400000,6.300000,-0.840000
45.183752,-0.101992,-0.416752,1.000400,4.060000,-6.720000,2.660000
45.187818,0.084424,-0.380152,0.955992,1.120000,-11.480000,1.260000
45.191884,0.039528,-0.086376,0.948184,-0.280000,4.060000,-3.640000
45.195950,-0.051240,-0.241560,0.907192,-2.100000,9.240000,-1.960000
45.200016,-0.035624,-0.316712,1.055544,-0.420000,-2.380000,0.420000
45.204082,-0.021472,-0.324520,0.986736,3.640000,-7.140000,2.940000
45.208148,0.101016,-0.270840,1.005768,-0.420000,-1.120000,-0.560000
45.212214,0.038552,-0.142984,0.985760,-1.260000,4.200000,-2.100000
45.216280,-0.094672,-0.245464,0.910120,0.140000,5.880000,-2.660000
45.220346,-0.151768,-0.341600,0.950624,-2.660000,-2.240000,0.420000
45.224413,0.155184,-0.260592,1.076040,2.380000,-11.060000,4.060000
45.228479,0.045384,-0.272304,0.948184,2.100000,-2.380000,-2.520000
45.232545,-0.021960,-0.188368,0.879376,-4.200000,9.240000,-3.360000
45.236611,-0.090280,-0.189344,0.981856,-1.540000,6.020000,-0.700000
45.240677,-0.104432,-0.432856,1.079456,-0.140000,-4.760000,1.680000
45.244743,0.064416,-0.308416,0.941352,1.120000,-10.360000,2.660000
45.248809,0.061488,-0.159088,0.855952,0.560000,-1.680000,-3.080000
45.252875,0.037088,-0.246928,1.058472,-5.040000,9.940000,-2.660000
45.256941,-0.067344,-0.232776,1.009672,0.000000,3.220000,-0.280000
45.261007,-0.103944,-0.378688,0.849120,2.660000,-6.160000,1.400000
45.265073,0.133712,-0.323056,1.112640,-1.120000,-5.460000,1.120000
45.269139,0.023912,-0.132736,0.959408,2.520000,0.420000,-2.100000
45.273205,-0.086864,-0.267912,0.777872,-0.420000,6.720000,-3.360000
45.277271,-0.060512,-0.241560,1.082872,-3.920000,1.260000,0.840000
45.281337,0.020496,-0.344528,1.072136,3.640000,-6.020000,2.800000
45.285403,0.034160,-0.334768,0.956480,1.400000,-3.360000,-0.980000
45.289469,0.001952,-0.122000,0.903776,-3.080000,3.780000,-2.800000
45.293535,-0.014152,-0.255224,0.965752,0.280000,2.800000,-0.700000
45.297601,-0.043920,-0.345992,1.034560,0.280000,-3.640000,0.140000
45.301667,0.058072,-0.292312,0.933056,1.960000,-4.200000,1.820000
45.305733,-0.009760,-0.203984,0.893528,-0.560000,2.660000,-0.980000
45.309799,0.055144,-0.198616,1.063352,-2.240000,2.660000,-2.100000
45.313865,-0.134688,-0.245464,0.893528,1.960000,1.260000,-0.700000
45.317931,-0.118584,-0.402600,0.954528,-1.120000,-2.660000,1.120000
45.321997,0.221064,-0.215208,1.150216,1.120000,-8.120000,1.960000
45.326063,-0.022936,-0.218136,0.903288,2.800000,2.520000,-2.800000
45.330129,-0.116144,-0.330864,0.865712,-4.340000,7.980000,-3.220000
45.334195,-0.007320,-0.180560,1.092144,-1.820000,-1.260000,1.260000
45.338261,0.019032,-0.325008,0.931592,4.060000,-6.300000,2.660000
45.342327,0.034160,-0.313784,1.002352,-0.700000,-4.480000,-0.840000
45.346393,0.040992,-0.133224,0.938912,-1.680000,4.060000,-1.960000
45.350460,-0.014152,-0.265960,0.936960,-0.280000,5.880000,-1.820000
45.354526,-0.154208,-0.325008,1.036024,-2.100000,-0.560000,-0.140000
45.358592,0.022936,-0.268400,0.938424,1.960000,-8.120000,4.060000
45.362658,0.106384,-0.269864,0.940864,0.840000,-3.220000,-2.240000
45.366724,0.011712,-0.156160,1.041880,-3.920000,7.700000,-3.220000
45.370790,-0.133224,-0.258640,0.880840,0.980000,4.060000,-0.140000
45.374856,-0.055632,-0.435296,0.988200,0.000000,-6.160000,0.420000
45.378922,0.121024,-0.266448,1.090680,0.560000,-5.740000,0.980000
45.382988,-0.006832,-0.187392,0.900848,2.380000,1.680000,-1.260000
45.387054,0.022448,-0.205936,0.896456,-3.220000,5.320000,-2.240000
45.391120,-0.065880,-0.227408,0.997960,-0.140000,1.960000,0.000000
45.395186,-0.066368,-0.405040,1.002352,1.960000,-5.320000,2.520000
45.399252,0.122488,-0.287432,1.053104,0.140000,-7.140000,0.280000
45.403318,-0.016592,-0.086376,0.860344,0.140000,5.180000,-2.800000
45.407384,-0.080520,-0.278160,0.929640,-2.800000,7.980000,-2.520000
45.411450,-0.069296,-0.332328,1.122888,-0.980000,-4.760000,1.540000
45.415516,0.028792,-0.330376,0.883280,4.620000,-7.840000,2.660000
45.419582,0.062952,-0.283040,0.973072,-0.700000,-0.560000,-2.100000
45.423648,0.079056,-0.151768,1.034560,-2.240000,4.620000,-1.400000
45.427714,-0.092720,-0.255712,0.877912,1.960000,4.340000,-1.680000
45.431780,-0.150792,-0.334280,0.970632,-2.100000,-0.140000,0.140000
45.435846,0.123464,-0.220576,1.046760,1.820000,-7.700000,4.480000
45.439912,0.050264,-0.258152,0.941840,2.520000,-4.480000,-2.520000
45.443978,-0.030256,-0.205448,0.923784,-4.200000,7.840000,-3.920000
45.448044,-0.069784,-0.182024,0.962336,-0.560000,6.440000,-0.560000
45.452110,-0.039528,-0.418704,0.987224,1.120000,-4.900000,1.540000
45.456176,0.017080,-0.327448,1.073112,0.280000,-7.980000,1.260000
45.460242,0.018056,-0.166896,0.895480,1.820000,0.140000,-2.380000
45.464308,0.039528,-0.260592,0.951600,-1.820000,5.880000,-2.240000
45.468374,-0.061976,-0.253272,1.023824,-0.140000,1.680000,-0.700000
45.472440,-0.055632,-0.388448,0.944280,3.780000,-4.760000,1.960000
45.476507,0.094672,-0.288408,1.005280,0.000000,-3.080000,0.000000
45.480573,0.055632,-0.067832,0.978440,1.680000,0.980000,-1.680000
45.484639,-0.113216,-0.229360,0.796416,-0.560000,5.740000,-1.960000
45.488705,-0.055144,-0.311832,1.060912,-3.640000,-0.140000,0.280000
45.492771,0.040016,-0.288896,1.055544,3.920000,-5.880000,2.520000
45.496837,0.001952,-0.345504,0.948184,1.820000,-2.520000,-1.540000
45.500903,-0.038064,-0.179096,0.955992,-2.380000,2.520000,-2.240000
45.504969,0.018056,-0.182512,0.936960,1.540000,4.060000,-0.700000
45.509035,-0.044408,-0.422120,1.051640,-1.120000,-1.120000,0.140000
45.513101,0.050264,-0.292312,1.024312,2.100000,-7.560000,2.520000
45.517167,0.063928,-0.187880,0.846680,2.660000,-1.260000,-1.400000
45.521233,-0.061976,-0.204472,1.004304,-4.480000,9.100000,-3.500000
45.525299,-0.007808,-0.203008,0.983808,0.280000,0.000000,1.260000
45.529365,-0.079056,-0.356728,0.906704,1.540000,-5.600000,1.120000
45.533431,0.040504,-0.273768,1.044808,-2.100000,-2.240000,0.000000
45.537497,0.069296,-0.179096,0.979416,0.280000,0.700000,-0.420000
45.541563,-0.050264,-0.291336,0.885720,0.560000,1.820000,-2.660000
45.545629,-0.093208,-0.219600,1.060424,-1.960000,3.220000,-1.120000
45.549695,-0.005368,-0.286944,0.976000,2.380000,-2.940000,2.940000
45.553761,0.078568,-0.387472,1.007720,0.560000,-6.860000,-0.280000
45.557827,0.016104,-0.162504,0.976000,-2.520000,2.240000,-2.940000
45.561893,-0.087352,-0.229360,0.815936,0.840000,8.540000,-1.540000
45.565959,-0.028304,-0.360632,1.104344,-1.260000,-3.080000,0.560000
45.570025,0.092232,-0.284504,1.038952,3.080000,-9.240000,2.380000
45.574091,-0.037576,-0.191296,0.861320,1.540000,1.120000,-1.540000
45.578157,0.039040,-0.188368,0.979416,-4.340000,6.020000,-2.380000
45.582223,-0.024400,-0.227408,0.978440,1.120000,1.120000,-0.280000
45.586289,-0.189344,-0.395768,0.887672,1.120000,-1.820000,0.280000
45.590355,0.133224,-0.234240,1.081896,-0.560000,-7.000000,2.520000
45.594421,0.066368,-0.194712,0.989664,2.520000,0.420000,-1.820000
45.598487,-0.088328,-0.302072,0.857904,-1.120000,6.020000,-3.080000
45.602554,-0.039528,-0.227896,1.038464,-2.940000,1.260000,-0.700000
45.606620,-0.047336,-0.300608,0.998936,2.520000,-3.780000,2.660000
45.610686,0.095648,-0.330864,1.043832,0.980000,-6.020000,0.840000
45.614752,0.077592,-0.140056,0.927688,-1.260000,0.560000,-2.800000
45.618818,-0.096624,-0.208864,0.873520,-0.560000,9.240000,-2.800000
45.622884,-0.113704,-0.361608,1.067744,-2.520000,1.960000,-0.980000
45.626950,0.075640,-0.316224,0.979904,2.800000,-12.040000,3.220000
45.631016,0.034648,-0.231800,0.929152,1.960000,-1.960000,-1.540000
45.635082,0.007320,-0.170800,0.967704,-3.500000,6.160000,-2.240000
45.639148,0.025864,-0.201056,0.949648,1.540000,2.520000,-0.420000
45.643214,-0.188856,-0.386008,0.934032,-0.420000,-0.280000,-0.840000
45.647280,0.047824,-0.330864,1.060424,-0.700000,-5.320000,2.800000
45.651346,0.100528,-0.162504,0.980392,2.800000,-2.800000,-1.120000
45.655412,-0.071736,-0.256200,0.917440,-2.100000,5.600000,-3.500000
45.659478,-0.027328,-0.226920,0.948672,-1.400000,1.820000,0.000000
45.663544,0.002928,-0.314760,1.058472,2.660000,-4.480000,1.960000
45.667610,0.055632,-0.354288,1.003816,0.280000,-4.340000,0.560000
45.671676,-0.006832,-0.134688,0.888648,-0.420000,2.100000,-2.100000
45.675742,-0.033184,-0.200568,0.909632,-0.840000,5.740000,-2.380000
45.679808,-0.060024,-0.315248,1.104832,-2.520000,0.980000,-0.420000
45.683874,-0.056608,-0.263520,0.933544,2.940000,-6.580000,2.800000
45.687940,0.085400,-0.297680,0.872544,1.260000,-5.740000,-0.280000
45.692006,0.049288,-0.170800,1.079944,-4.480000,4.200000,-3.360000
45.696072,-0.065392,-0.224480,0.903776,1.400000,5.740000,-0.980000
45.700138,-0.134200,-0.399184,0.927688,-1.400000,-1.960000,-0.420000
45.704204,0.073200,-0.262544,1.130696,-0.700000,-5.320000,2.520000
45.708270,0.090768,-0.219112,0.948672,3.360000,-3.080000,-0.280000
45.712336,-0.022448,-0.228872,0.950136,-2.940000,3.500000,-3.360000
45.716402,-0.006344,-0.206912,0.923296,-1.400000,4.760000,-1.400000
45.720468,-0.132736,-0.347456,0.992592,1.680000,-0.980000,1.400000
45.724535,0.107360,-0.373320,1.007232,1.260000,-8.400000,1.260000
45.728601,0.001952,-0.105896,0.884256,2.100000,-0.840000,-1.960000
45.732667,-0.046360,-0.197640,0.905728,-2.940000,8.680000,-2.240000
45.736733,-0.019520,-0.291336,1.138016,-2.660000,0.140000,0.140000
45.740799,-0.087840,-0.338672,0.958432,4.060000,-6.860000,2.800000
45.744865,0.083448,-0.335744,0.899872,0.840000,-4.200000,0.000000
45.748931,0.071248,-0.118584,1.072624,-2.940000,4.060000,-3.080000
45.752997,-0.021472,-0.229848,0.941352,0.560000,6.580000,-1.960000
45.757063,-0.196176,-0.342576,0.952088,-1.960000,0.140000,-0.980000
45.761129,0.084424,-0.258152,1.023336,1.820000,-9.240000,3.920000
45.765195,0.123952,-0.288408,0.945744,3.080000,-6.160000,-0.280000
45.769261,-0.014152,-0.198616,0.958432,-3.500000,6.720000,-4.340000
45.773327,-0.060024,-0.126392,0.825208,-1.120000,9.520000,-1.960000
45.777393,-0.189344,-0.376248,1.004792,-0.560000,-1.120000,1.540000
45.781459,0.115656,-0.391864,1.141432,1.680000,-12.740000,3.920000
45.785525,0.074176,-0.168360,0.955016,4.200000,-5.880000,-2.380000
45.789591,-0.071248,-0.177632,0.836432,-4.480000,13.160000,-4.200000
45.793657,0.016104,-0.227408,1.098976,-2.800000,5.460000,-0.560000
45.797723,-0.072224,-0.389424,0.946720,4.760000,-8.820000,2.660000
45.801789,0.008784,-0.399672,0.917440,0.560000,-5.600000,0.000000
45.805855,0.098576,-0.106384,1.056032,0.000000,1.960000,-2.380000
45.809921,0.058072,-0.156648,0.874984,1.540000,6.020000,-1.400000
45.813987,-0.188368,-0.305488,0.940864,-1.120000,2.660000,-1.260000
45.818053,-0.074664,-0.299632,1.045296,1.820000,-6.020000,3.500000
45.822119,0.161040,-0.348920,1.051152,3.640000,-7.000000,0.420000
45.826185,0.007808,-0.166408,0.942816,-0.840000,3.220000,-4.340000
45.830251,-0.113216,-0.174216,0.831552,0.280000,9.660000,-2.240000
45.834317,-0.080520,-0.379176,1.038464,-0.420000,-1.120000,1.820000
45.838383,0.178608,-0.357216,1.141920,3.920000,-12.600000,2.940000
45.842449,-0.005856,-0.196176,0.897920,3.920000,-0.560000,-1.680000
45.846515,-0.017568,-0.139080,0.913536,-4.900000,10.920000,-3.220000
45.850582,-0.020984,-0.163968,1.016504,-0.280000,4.620000,-0.700000
45.854648,-0.151280,-0.413336,0.951600,3.780000,-6.720000,2.380000
45.858714,0.078568,-0.345016,0.968680,0.840000,-10.360000,1.540000
45.862780,0.089792,-0.081496,0.999424,0.840000,2.100000,-3.780000
45.866846,-0.014152,-0.201056,0.888160,-2.240000,10.640000,-2.940000
45.870912,-0.155672,-0.296704,1.049200,-3.220000,-0.140000,0.280000
45.874978,-0.063440,-0.307440,0.946232,2.940000,-7.560000,3.500000
45.879044,0.137128,-0.322568,0.996984,1.540000,-6.300000,0.140000
45.883110,0.025376,-0.200568,1.025288,-3.080000,2.940000,-3.920000
45.887176,-0.039040,-0.170800,0.829600,0.420000,7.000000,-2.380000
45.891242,-0.121512,-0.360632,1.021384,-1.680000,2.100000,-0.700000
45.895308,0.095160,-0.314272,1.106784,2.240000,-8.540000,4.340000
45.899374,0.085888,-0.254248,0.903288,4.480000,-4.900000,-0.700000
45.903440,-0.088328,-0.104920,0.891576,-4.480000,9.380000,-4.620000
45.907506,-0.007320,-0.165432,0.945256,-0.140000,5.180000,-0.420000
45.911572,-0.131760,-0.414312,0.992592,2.100000,-6.020000,0.980000
45.915638,0.030744,-0.383080,1.004304,0.700000,-7.980000,1.120000
45.919704,0.068808,-0.133224,0.981368,1.680000,1.120000,-1.960000
45.923770,0.005856,-0.247416,0.926712,-1.540000,6.020000,-2.660000
45.927836,-0.041968,-0.242536,1.054080,-1.260000,0.700000,0.000000
45.931902,-0.082960,-0.292312,0.919392,3.220000,-4.200000,2.940000
45.935968,0.120536,-0.322568,1.067744,0.560000,-4.480000,0.140000
45.940034,0.041480,-0.182024,1.015040,-0.700000,2.940000,-2.520000
45.944100,-0.124928,-0.225456,0.821792,0.140000,6.580000,-2.800000
45.948166,-0.072712,-0.257664,0.970144,-3.360000,-0.560000,0.000000
45.952232,0.116144,-0.273280,1.096048,2.100000,-8.960000,3.220000
45.956298,-0.001952,-0.278160,0.935984,2.660000,-2.940000,-1.820000
45.960364,-0.006832,-0.173240,0.846680,-4.060000,5.460000,-3.080000
45.964430,-0.047824,-0.143472,1.003328,-1.120000,5.460000,-0.560000
45.968496,-0.097112,-0.380640,1.046272,-0.140000,-2.240000,0.000000
45.972562,0.071248,-0.390400,0.997960,-0.420000,-8.400000,1.680000
45.976629,0.024888,-0.158112,0.969656,0.560000,0.140000,-1.960000
45.980695,0.000976,-0.208864,0.970632,-2.520000,6.020000,-2.240000
45.984761,-0.019032,-0.261080,0.979904,-1.820000,-0.840000,0.000000
45.988827,-0.090768,-0.320616,0.929640,0.980000,-3.080000,1.120000
45.992893,0.081008,-0.303536,1.068720,-1.820000,-1.540000,0.140000
45.996959,0.094184,-0.143472,0.972584,-0.140000,-0.280000,-1.260000
46.001025,-0.127368,-0.260104,0.855952,-0.280000,4.900000,-2.240000
46.005091,-0.067832,-0.293776,1.030656,-3.920000,0.420000,0.140000
46.009157,0.078568,-0.242536,1.016016,1.960000,-6.580000,2.240000
46.013223,-0.020984,-0.274744,0.897432,1.260000,-1.120000,-1.680000
46.017289,-0.016592,-0.222040,0.994056,-4.620000,3.080000,-2.380000
46.021355,0.013664,-0.184464,0.972096,0.280000,2.100000,0.000000
46.025421,-0.078568,-0.362096,1.004792,0.560000,-1.120000,-0.420000
46.029487,0.009760,-0.315736,1.035048,-1.820000,-5.880000,1.960000
46.033553,0.061976,-0.135176,0.872056,1.400000,-2.940000,-0.560000
46.037619,-0.031720,-0.263520,1.003816,-3.640000,7.420000,-3.780000
46.041685,-0.028304,-0.227408,1.033096,-3.080000,1.540000,0.280000
46.045751,-0.099552,-0.315248,0.889136,2.660000,-6.160000,1.960000
46.049817,0.099552,-0.305488,1.046760,-2.100000,-3.220000,-0.420000
46.053883,0.059536,-0.177632,0.987224,-1.120000,0.420000,-1.400000
46.057949,-0.039528,-0.304512,0.859856,-0.280000,3.360000,-1.820000
46.062015,-0.046360,-0.212768,1.057496,-3.360000,1.960000,-1.120000
46.066081,-0.001952,-0.233264,0.972096,1.540000,-2.240000,3.080000
46.070147,0.024888,-0.331352,0.945256,1.820000,-5.180000,0.560000
46.074213,0.004880,-0.198616,1.011136,-4.060000,-0.280000,-3.780000
46.078279,-0.047824,-0.166408,0.890600,-1.260000,8.400000,-2.520000
46.082345,-0.131760,-0.326960,0.955504,-1.680000,-0.140000,0.700000
46.086411,0.101504,-0.341600,1.120936,-0.280000,-12.880000,3.080000
46.090477,0.024400,-0.189832,0.892064,0.980000,-0.420000,-2.100000
46.094543,-0.031232,-0.191296,0.958432,-5.320000,9.380000,-3.080000
46.098609,0.015128,-0.265472,1.055544,-3.220000,0.560000,-0.280000
46.102676,-0.128344,-0.349896,0.946232,2.240000,-5.320000,1.260000
46.106742,0.053192,-0.353312,0.969656,-1.400000,-4.760000,0.840000
46.110808,0.141520,-0.141520,1.046272,-0.840000,-0.560000,-1.680000
46.114874,-0.047336,-0.209840,0.850096,-1.680000,6.580000,-2.380000
46.118940,-0.172752,-0.257176,0.953552,-5.600000,4.340000,-1.540000
46.123006,0.021960,-0.255712,1.025776,0.560000,-6.160000,4.200000
46.127072,0.135664,-0.331840,0.999424,2.380000,-8.540000,0.420000
46.131138,-0.020008,-0.203496,0.960872,-3.640000,3.640000,-4.620000
46.135204,-0.077104,-0.184952,0.822768,-1.540000,8.820000,-2.380000
46.139270,-0.098576,-0.361608,1.057984,-1.260000,-1.400000,-0.140000
46.143336,0.049288,-0.332328,1.099464,-0.140000,-9.240000,2.800000
46.147402,0.068320,-0.214232,0.883280,2.520000,-3.640000,-0.280000
46.151468,-0.012688,-0.146400,0.984296,-5.040000,7.140000,-3.220000
46.155534,0.041968,-0.181048,1.028216,-2.380000,3.220000,-1.540000
46.159600,-0.200568,-0.360632,0.894016,0.980000,-1.400000,0.560000
46.163666,0.077592,-0.392840,0.982344,-2.380000,-6.720000,1.260000
46.167732,0.101016,-0.173240,1.052128,-0.560000,-2.520000,-1.540000
46.171798,-0.082960,-0.174216,0.869128,-0.980000,6.720000,-2.240000
46.175864,-0.030256,-0.276696,0.938912,-3.360000,1.820000,-0.980000
46.179930,-0.020008,-0.302560,1.043832,0.280000,-3.780000,2.660000
46.183996,0.055144,-0.354776,0.980880,0.980000,-5.320000,0.560000
46.188062,-0.004392,-0.152744,0.978928,-3.220000,1.680000,-3.360000
46.192128,-0.081984,-0.156648,0.876936,-0.700000,7.280000,-1.540000
46.196194,-0.059536,-0.378688,1.084336,-2.100000,-2.940000,-0.140000
46.200260,0.090768,-0.292800,1.057008,0.700000,-9.660000,2.940000
46.204326,0.028792,-0.251320,0.846192,0.840000,-0.560000,-1.540000
46.208392,-0.014152,-0.192760,1.004304,-5.880000,7.840000,-2.940000
46.212458,0.026352,-0.179584,0.981368,-0.700000,1.680000,0.000000
46.216524,-0.177632,-0.334768,0.887672,0.000000,-2.660000,0.420000
46.220590,0.059048,-0.321104,1.001864,-3.500000,-5.600000,1.960000
46.224657,0.124440,-0.166408,1.012600,0.420000,-3.220000,-0.840000
46.228723,-0.098088,-0.239608,0.886696,-1.680000,7.280000,-3.780000
46.232789,-0.088328,-0.253760,0.991616,-3.780000,2.940000,-1.120000
46.236855,-0.022936,-0.317688,1.013088,2.380000,-5.600000,2.240000
46.240921,0.122488,-0.357216,1.034560,1.120000,-5.320000,-0.280000
46.244987,-0.029768,-0.146400,0.971608,-2.660000,0.980000,-2.800000
46.249053,-0.012688,-0.198616,0.876936,-0.840000,6.440000,-0.980000
46.253119,-0.046848,-0.346480,1.080432,-3.220000,0.700000,-0.840000
46.257185,0.003416,-0.291336,0.984784,0.700000,-8.680000,2.940000
46.261251,0.040992,-0.251320,0.900360,1.120000,-2.100000,-0.280000
46.265317,0.019032,-0.157136,0.972584,-5.040000,5.460000,-3.500000
46.269383,-0.008296,-0.203984,0.942816,-1.680000,3.780000,-0.980000
46.273449,-0.159576,-0.339160,0.963800,0.000000,-2.520000,0.840000
46.277515,0.055632,-0.355264,1.012112,-1.540000,-7.000000,1.260000
46.281581,0.085888,-0.164456,1.003816,0.980000,-1.120000,-1.120000
46.285647,-0.076128,-0.262056,0.853512,-2.380000,6.160000,-2.940000
46.289713,-0.054168,-0.255712,1.016504,-4.340000,2.100000,-0.840000
46.293779,-0.050752,-0.264008,1.020896,2.380000,-2.660000,1.680000
46.297845,0.105896,-0.370392,1.009672,0.840000,-5.880000,0.280000
46.301911,0.023424,-0.185928,1.015040,-2.240000,-2.100000,-2.100000
46.305977,-0.028304,-0.149816,0.863272,-1.820000,5.740000,-1.540000
46.310043,-0.044408,-0.319152,1.003816,-4.340000,2.800000,-0.420000
46.314109,0.030256,-0.294752,1.093608,-0.840000,-6.720000,2.520000
46.318175,-0.004880,-0.280600,0.919392,0.980000,-1.680000,-0.700000
46.322241,-0.023912,-0.187392,0.907680,-4.340000,3.780000,-3.500000
46.326307,0.048800,-0.192760,0.981856,-1.260000,0.280000,0.140000
46.330373,-0.103456,-0.368928,0.932568,-0.420000,-3.920000,0.980000
46.334439,0.040992,-0.300608,1.022848,-2.240000,-3.500000,0.420000
46.338505,0.059048,-0.124440,0.965264,-0.840000,3.780000,-0.700000
46.342571,-0.083448,-0.304512,0.887184,-1.820000,4.340000,-2.800000
46.346637,-0.080520,-0.248392,1.087264,-3.920000,-2.100000,-0.140000
46.350704,-0.026840,-0.234240,0.954528,1.120000,-4.760000,2.380000
46.354770,0.113704,-0.376736,1.007720,-1.960000,-5.180000,-0.140000
46.358836,0.028304,-0.195200,1.040904,-3.640000,1.400000,-2.520000
46.362902,-0.062464,-0.194224,0.784216,-0.560000,7.980000,-2.800000
46.366968,-0.126392,-0.320128,1.057984,-4.480000,2.660000,-0.840000
46.371034,0.081984,-0.290360,1.062864,-0.840000,-9.240000,3.780000
46.375100,0.072224,-0.264496,0.913048,2.380000,-7.560000,-0.840000
46.379166,-0.046360,-0.180560,0.948672,-6.300000,7.700000,-4.340000
46.383232,0.061488,-0.194712,0.975024,-2.380000,6.160000,-0.560000
46.387298,-0.179096,-0.385032,0.938912,1.820000,-3.780000,0.000000
46.391364,0.011224,-0.381616,0.989664,-1.400000,-6.300000,0.000000
46.395430,0.091256,-0.149816,1.006744,-0.140000,-1.400000,-0.840000
46.399496,0.008296,-0.189832,0.927688,-1.120000,3.640000,-1.820000
46.403562,-0.022936,-0.255712,0.961360,-3.780000,1.960000,-1.260000
46.407628,-0.133224,-0.297680,0.948672,-0.280000,-0.980000,1.960000
46.411694,0.094672,-0.378688,1.053104,-0.280000,-5.460000,1.260000
46.415760,0.039528,-0.217160,1.011624,-1.820000,-1.120000,-3.080000
46.419826,-0.088328,-0.126392,0.826672,-1.400000,6.580000,-2.240000
46.423892,-0.034648,-0.321592,1.038464,-2.800000,0.700000,-0.560000
46.427958,0.127856,-0.284016,1.104344,0.840000,-8.540000,2.800000
46.432024,-0.027328,-0.295240,0.864248,1.540000,-0.560000,-1.120000
46.436090,-0.061000,-0.214232,0.923784,-6.440000,5.880000,-2.940000
46.440156,0.073200,-0.153232,1.048712,-1.540000,1.820000,-0.140000
46.444222,-0.172264,-0.330376,0.922320,1.400000,-1.820000,0.140000
46.448288,0.040992,-0.361120,0.943792,-1.820000,-5.880000,1.260000
46.452354,0.089304,-0.160552,1.005280,-0.140000,-1.680000,-1.260000
46.456420,-0.032208,-0.254248,0.936960,-2.100000,5.740000,-2.800000
46.460486,-0.063928,-0.246440,1.008696,-4.200000,0.700000,-0.840000
46.464552,-0.073688,-0.260592,0.937936,1.400000,-3.500000,2.940000
46.468618,0.113216,-0.367464,1.037000,-0.140000,-4.200000,0.280000
46.472684,0.029768,-0.199104,1.028704,-2.100000,-0.140000,-2.800000
46.476751,-0.074176,-0.207400,0.797880,-1.260000,6.440000,-1.820000
46.480817,-0.105408,-0.301584,1.059448,-4.620000,0.280000,-0.840000
46.484883,0.098576,-0.306952,1.061888,0.140000,-7.560000,3.500000
46.488949,0.055632,-0.285968,0.946232,2.940000,-4.060000,-0.420000
46.493015,-0.058072,-0.212280,0.876448,-4.900000,7.140000,-4.620000
46.497081,0.036600,-0.186416,0.973560,-1.400000,3.080000,0.140000
46.501147,-0.118096,-0.350384,1.003328,1.260000,-3.360000,0.700000
46.505213,0.028792,-0.342088,0.995032,-1.120000,-6.160000,1.400000
46.509279,0.035624,-0.136152,0.911096,0.700000,0.000000,-1.260000
46.513345,-0.005856,-0.243024,0.970144,-1.960000,5.320000,-3.080000
46.517411,-0.047824,-0.261080,1.047736,-3.220000,1.260000,-0.980000
46.521477,-0.077104,-0.298168,0.883768,1.680000,-4.340000,2.660000
46.525543,0.086376,-0.350384,1.021872,-0.280000,-6.160000,1.400000
46.529609,0.112728,-0.177632,1.075552,-2.380000,0.420000,-2.800000
46.533675,-0.104920,-0.165920,0.799832,0.000000,9.240000,-3.080000
46.537741,-0.182512,-0.321592,1.010160,-3.920000,3.080000,-1.400000
46.541807,0.100040,-0.328912,1.089216,0.280000,-9.240000,3.920000
46.545873,0.087352,-0.291336,0.951112,4.480000,-7.420000,-0.140000
46.549939,-0.016592,-0.209840,0.891088,-4.060000,4.200000,-4.760000
46.554005,0.033672,-0.184464,0.909144,-2.380000,7.700000,-0.560000
46.558071,-0.109312,-0.322080,1.050176,0.980000,0.280000,0.000000
46.562137,-0.066368,-0.354776,1.012112,0.420000,-5.880000,1.120000
46.566203,0.070272,-0.182512,0.848144,1.400000,-5.040000,-0.140000
46.570269,0.016592,-0.182512,1.063352,-3.080000,4.900000,-3.080000
46.574335,0.011712,-0.263520,0.955992,-1.680000,3.640000,-1.120000
46.578401,-0.146400,-0.305000,0.915000,2.380000,-3.920000,0.700000
46.582467,0.047336,-0.412848,1.010160,-0.840000,-3.640000,0.980000
46.586533,0.119072,-0.219112,1.133624,-0.280000,-0.980000,-1.400000
46.590599,-0.063440,-0.160552,0.801784,3.220000,3.920000,-2.100000
46.594665,-0.079544,-0.300608,0.954040,-3.080000,3.220000,-1.400000
46.598731,0.017568,-0.249856,1.076040,-0.420000,-3.920000,3.220000
46.602798,0.118096,-0.303048,1.003328,3.640000,-5.460000,0.000000
46.606864,-0.071736,-0.228384,0.887184,-2.940000,2.940000,-3.920000
46.610930,-0.042944,-0.168360,0.947208,-2.380000,5.040000,-0.980000
46.614996,-0.060512,-0.306464,1.067256,0.560000,-1.120000,0.980000
46.619062,0.060024,-0.345504,0.957456,-0.420000,-7.980000,1.960000
46.623128,0.063440,-0.186904,0.905240,0.280000,-2.800000,-0.980000
46.627194,-0.088328,-0.181048,0.979904,-2.240000,8.120000,-3.500000
46.631260,0.021960,-0.276696,0.990152,-3.640000,3.920000,-1.680000
46.635326,-0.108336,-0.293288,0.967704,2.520000,-7.000000,2.660000
46.639392,0.018056,-0.381128,0.929152,0.140000,-6.160000,0.840000
46.643458,0.118584,-0.174704,1.027240,-3.220000,0.700000,-2.660000
46.647524,-0.018056,-0.161528,0.948672,-0.560000,8.120000,-1.960000
46.651590,-0.218136,-0.293776,0.908656,-2.520000,2.660000,-1.680000
46.655656,0.041968,-0.329888,1.075552,-1.400000,-7.560000,3.220000
46.659722,0.183488,-0.311344,1.072136,2.520000,-7.140000,0.280000
46.663788,-0.072224,-0.251320,0.896944,-1.680000,3.920000,-4.340000
46.667854,0.017568,-0.167872,0.874984,-2.380000,7.000000,-2.380000
46.671920,-0.141032,-0.249368,0.954528,0.280000,2.100000,0.840000
46.675986,0.045384,-0.414312,1.060424,-0.140000,-8.540000,2.660000
46.680052,0.112240,-0.222528,0.990640,2.520000,-7.000000,-0.840000
46.684118,-0.066368,-0.153232,0.892552,-2.240000,8.960000,-3.640000
46.688184,-0.012200,-0.233752,0.974048,-4.200000,7.560000,-1.400000
46.692250,-0.113216,-0.306464,1.034560,3.780000,-6.720000,2.240000
46.696316,0.028792,-0.426024,0.909144,2.800000,-8.680000,0.700000
46.700382,0.048800,-0.186904,0.965264,-3.080000,-0.140000,-3.220000
46.704448,0.046360,-0.096624,0.998936,-1.960000,8.400000,-0.980000
46.708514,-0.143960,-0.295240,0.983808,-1.540000,4.340000,-2.240000
46.712580,-0.032208,-0.342088,0.977952,0.140000,-7.280000,3.220000
46.716646,0.138592,-0.325008,0.980392,2.800000,-7.560000,1.120000
46.720712,0.019032,-0.247904,1.052616,-2.940000,2.520000,-4.200000
46.724778,-0.040992,-0.154696,0.824232,-1.120000,6.440000,-1.960000
46.728845,-0.148840,-0.286456,0.873520,0.560000,1.960000,0.000000
46.732911,0.088816,-0.367952,1.172664,-0.840000,-6.160000,2.240000
46.736977,0.077592,-0.206424,0.981368,3.920000,-3.640000,-0.280000
46.741043,-0.129320,-0.206912,0.812520,-1.260000,4.620000,-3.080000
46.745109,0.035136,-0.204960,1.012600,-3.780000,2.940000,-0.420000
46.749175,-0.009272,-0.289384,1.070672,3.360000,-4.200000,1.120000
46.753241,-0.008784,-0.406992,0.902312,1.820000,-3.920000,0.000000
46.757307,0.039040,-0.209840,0.979416,-3.360000,1.540000,-1.960000
46.761373,-0.041968,-0.156648,0.995520,0.140000,5.040000,-0.980000
46.765439,-0.029280,-0.323056,1.001864,-0.140000,-1.960000,-0.420000
46.769505,0.030256,-0.328424,0.981856,0.560000,-7.000000,2.520000
46.773571,0.026840,-0.229848,0.971608,1.400000,0.560000,-0.420000
46.777637,0.015128,-0.219600,1.017480,-3.360000,6.160000,-3.640000
46.781703,-0.031720,-0.175680,0.948184,-0.980000,1.540000,-0.700000
46.785769,-0.157624,-0.344528,0.853512,0.980000,-1.820000,0.280000
46.789835,0.101504,-0.295240,1.084824,-1.680000,-7.840000,1.540000
46.793901,0.117608,-0.163480,0.979904,0.980000,-2.100000,-0.980000
46.797967,-0.112240,-0.248880,0.837896,-2.660000,8.120000,-3.080000
46.802033,-0.087840,-0.208376,1.039440,-4.060000,2.660000,-0.840000
46.806099,0.015616,-0.345016,1.026752,1.960000,-5.740000,2.800000
46.810165,0.020008,-0.360144,1.000400,1.260000,-5.320000,-0.420000
46.814231,0.007320,-0.180560,0.923296,-1.960000,0.140000,-3.500000
46.818297,-0.007808,-0.158112,0.867664,-0.560000,6.020000,-1.120000
46.822363,-0.078080,-0.384544,1.069208,-2.520000,0.420000,-0.280000
46.826429,0.044408,-0.320616,1.065792,0.840000,-8.820000,2.800000
46.830495,0.067832,-0.209352,0.937936,2.380000,-0.840000,-1.260000
46.834561,-0.008784,-0.252784,0.969656,-4.060000,7.420000,-3.080000
46.838627,-0.021472,-0.196176,0.942816,-0.560000,1.260000,-0.140000
46.842693,-0.123464,-0.344040,0.896944,1.820000,-5.040000,0.560000
46.846759,0.074176,-0.285968,1.038464,-1.960000,-3.640000,1.680000
46.850825,0.106872,-0.133712,1.009672,0.840000,0.840000,-0.840000
46.854891,-0.076128,-0.264984,0.856928,-0.840000,5.740000,-3.360000
46.858958,-0.132736,-0.276696,1.024800,-4.200000,1.820000,-1.120000
46.863024,-0.027328,-0.240096,0.967704,2.100000,-5.320000,3.360000
46.867090,0.124440,-0.344040,0.994544,1.540000,-7.000000,0.140000
46.871156,0.015128,-0.191784,1.006256,-4.200000,1.260000,-3.500000
46.875222,-0.062464,-0.203496,0.853512,-0.700000,7.700000,-1.820000
46.879288,-0.078080,-0.359168,1.030656,-2.660000,2.380000,-1.540000
46.883354,-0.000488,-0.329400,1.046760,0.140000,-7.420000,2.520000
46.887420,0.038552,-0.222528,0.912560,3.080000,-4.900000,0.000000
46.891486,0.003904,-0.189344,1.035536,-4.060000,3.640000,-3.360000
46.895552,0.110776,-0.209352,0.975024,-1.820000,2.520000,-0.280000
46.899618,-0.157136,-0.343064,0.916952,0.840000,-0.980000,-0.420000
46.903684,0.009272,-0.362096,0.980880,-0.980000,-1.820000,0.280000
46.907750,0.062952,-0.196176,0.971120,0.840000,-0.840000,-1.820000
46.911816,-0.072224,-0.219600,0.902800,0.140000,2.100000,-1.680000
46.915882,-0.011712,-0.248392,0.989664,-1.400000,-0.840000,0.280000
46.919948,0.025864,-0.228384,0.975512,2.100000,-3.640000,1.960000
46.924014,0.014640,-0.376736,0.995032,0.000000,-0.560000,-0.840000
46.928080,0.002440,-0.223992,1.007720,-2.100000,0.980000,-1.260000
46.932146,-0.076616,-0.159576,0.874496,0.840000,5.320000,-1.820000
46.936212,-0.086376,-0.337208,1.036024,-1.960000,-0.420000,0.420000
46.940278,0.120536,-0.312808,1.080432,0.700000,-10.080000,3.360000
46.944344,0.017568,-0.238632,0.843752,2.520000,-2.940000,-1.960000
46.948410,-0.057096,-0.223504,0.989664,-5.320000,11.200000,-4.060000
46.952476,0.044896,-0.151768,1.076040,-1.400000,1.260000,0.700000
46.956542,-0.076616,-0.379176,0.909144,3.080000,-6.020000,0.560000
46.960608,-0.004392,-0.311832,0.923296,-2.380000,-2.240000,-0.840000
46.964674,0.067832,-0.137128,1.037000,-1.540000,-0.280000,-1.120000
46.968740,0.015128,-0.293288,0.923784,0.560000,2.800000,-1.400000
46.972806,-0.082472,-0.243024,0.982344,-2.380000,1.960000,-1.820000
46.976872,-0.041968,-0.241560,0.958432,0.980000,-2.380000,2.100000
46.980938,0.059048,-0.325496,0.967216,0.980000,-2.940000,-0.280000
46.985005,0.010736,-0.235704,1.021872,-2.660000,-0.420000,-2.800000
46.989071,-0.073688,-0.174704,0.841312,0.140000,3.640000,-0.700000
46.993137,-0.060024,-0.355752,0.990640,-1.400000,0.420000,0.700000
46.997203,0.143960,-0.316712,1.158512,-0.560000,-7.700000,1.120000
47.001269,-0.033672,-0.191296,0.894016,1.960000,1.680000,-1.540000
47.005335,-0.122000,-0.279136,0.887184,-5.320000,6.300000,-2.800000
47.009401,0.082960,-0.200568,1.105320,-2.100000,-1.680000,0.280000
47.013467,-0.075640,-0.336232,0.895968,4.060000,-4.900000,1.120000
47.017533,0.003416,-0.356728,0.940376,-1.820000,-1.960000,-1.120000
47.021599,0.073688,-0.110776,1.045784,-2.240000,1.400000,-1.260000
47.025665,-0.021960,-0.231312,0.920856,0.280000,4.760000,-1.680000
47.029731,-0.130784,-0.331352,0.996984,-3.220000,-1.400000,-0.280000
47.033797,0.049776,-0.258152,0.981368,0.140000,-5.600000,2.800000
47.037863,0.073200,-0.236680,0.967216,0.840000,-1.400000,-0.980000
47.041929,-0.005368,-0.229848,0.983808,-4.060000,3.780000,-3.220000
47.045995,-0.078080,-0.218624,0.852048,-0.420000,2.660000,-0.840000
47.050061,-0.101504,-0.298168,0.992592,-0.840000,-1.400000,0.560000
47.054127,0.125416,-0.317688,1.100440,-0.980000,-7.140000,1.820000
47.058193,0.022448,-0.229360,0.922808,1.400000,-1.400000,-1.400000
47.062259,-0.084912,-0.270352,0.918904,-4.480000,8.540000,-4.480000
47.066325,-0.019032,-0.197640,1.067256,-1.540000,2.240000,0.280000
47.070391,-0.027328,-0.336720,0.945744,3.920000,-7.560000,1.960000
47.074457,0.065392,-0.385032,0.988200,-1.680000,-5.180000,-1.260000
47.078523,0.008296,-0.121024,0.974536,-2.800000,4.760000,-2.100000
47.082589,0.043432,-0.203496,0.936472,0.000000,5.040000,-1.960000
47.086655,-0.186416,-0.316712,0.968680,-2.520000,0.280000,-1.540000
47.090721,0.044408,-0.304024,0.976000,0.420000,-7.280000,3.080000
47.094787,0.117608,-0.258640,1.007720,0.840000,-4.200000,-1.260000
47.098853,-0.014640,-0.185928,0.996008,-3.920000,5.320000,-3.080000
47.102919,-0.048800,-0.186904,0.856440,-1.400000,2.940000,0.140000
47.106985,-0.103944,-0.359168,0.970144,-1.400000,-2.660000,0.420000
47.111052,0.073200,-0.362096,1.123864,-1.540000,-4.620000,1.400000
47.115118,0.016104,-0.158600,0.936472,2.800000,-0.980000,-0.700000
47.119184,-0.059048,-0.258640,0.824720,-2.800000,4.060000,-3.080000
47.123250,0.021472,-0.215208,1.110200,-3.640000,0.840000,0.140000
47.127316,-0.036112,-0.325496,0.966240,2.660000,-4.200000,1.680000
47.131382,-0.012688,-0.375272,0.953552,-1.680000,-2.660000,-1.400000
47.135448,0.047336,-0.133712,1.023336,-3.080000,2.100000,-1.260000
47.139514,0.012688,-0.229360,0.912072,1.120000,2.940000,-1.120000
47.143580,-0.099552,-0.311344,0.952576,-1.820000,-0.700000,-0.840000
47.147646,0.065392,-0.284504,1.003328,0.000000,-4.200000,1.680000
47.151712,0.023424,-0.276696,0.978928,0.560000,-0.840000,-1.120000
47.155778,0.017080,-0.194224,1.003816,-3.360000,4.200000,-2.380000
47.159844,-0.097112,-0.178120,0.875960,-0.420000,2.100000,-0.140000
47.163910,-0.097112,-0.330864,0.947696,-0.420000,-3.360000,0.420000
47.167976,0.140544,-0.306464,1.132648,-1.400000,-7.420000,0.560000
47.172042,0.007320,-0.211792,0.914512,0.840000,1.680000,-1.540000
47.176108,-0.090280,-0.309880,0.867176,-4.060000,5.880000,-3.080000
47.180174,-0.011224,-0.157136,1.101416,-2.800000,0.000000,0.560000
47.184240,-0.031232,-0.332816,0.942328,3.640000,-4.900000,2.380000
47.188306,0.034160,-0.388936,0.997960,-1.400000,-3.780000,-1.260000
47.192372,0.062464,-0.119072,0.981368,-3.080000,2.240000,-2.800000
47.196438,-0.064904,-0.224968,0.894992,0.420000,6.720000,-1.680000
47.200504,-0.069296,-0.349408,1.022360,-0.840000,-3.360000,0.700000
47.204570,0.069784,-0.296704,0.963800,1.260000,-7.980000,0.980000
47.208636,0.001464,-0.217648,0.977464,-0.560000,2.660000,-1.400000
47.212702,0.034160,-0.224968,0.976000,-4.340000,4.760000,-1.820000
47.216768,-0.013664,-0.190320,0.955016,0.140000,-1.120000,0.280000
47.220834,-0.162504,-0.368440,0.907680,0.420000,-0.280000,0.000000
47.224900,0.119072,-0.282552,1.083848,-1.540000,-4.340000,0.140000
47.228966,0.033672,-0.129808,0.939888,1.540000,-1.400000,-1.540000
47.233032,-0.101016,-0.282064,0.882304,-3.360000,6.020000,-2.380000
47.237098,-0.036112,-0.241072,1.057496,-3.780000,-0.560000,0.280000
47.241165,0.063440,-0.304512,0.988688,1.400000,-6.020000,2.520000
47.245231,-0.022448,-0.335744,0.996008,-1.820000,-1.540000,-1.820000
47.249297,0.003904,-0.170800,0.964288,-3.920000,1.960000,-2.660000
47.253363,0.004392,-0.178120,0.905240,-0.980000,4.200000,-1.400000
47.257429,-0.084912,-0.403576,1.007720,-3.220000,-0.140000,-0.560000
47.261495,0.013176,-0.292312,1.007232,-1.960000,-7.280000,2.100000
47.265561,0.065880,-0.218624,0.908656,0.980000,-2.520000,-0.840000
47.269627,0.006344,-0.251808,1.036024,-4.900000,7.280000,-3.780000
47.273693,-0.062952,-0.174216,0.924272,-0.700000,1.540000,-0.140000
47.277759,-0.054656,-0.348432,0.904752,0.420000,-3.780000,0.000000
47.281825,0.064416,-0.348432,1.061888,-3.640000,-2.240000,-0.560000
47.285891,-0.008296,-0.156648,0.958920,0.560000,-0.420000,-1.260000
47.289957,-0.036112,-0.235216,0.855464,-1.400000,1.820000,-2.100000
47.294023,-0.007320,-0.231312,1.061400,-3.920000,1.820000,-0.840000
47.298089,-0.025864,-0.304512,1.006744,1.540000,-3.220000,1.540000
47.302155,0.041968,-0.383568,0.973560,-1.540000,-5.040000,-0.980000
47.306221,0.007320,-0.189344,1.012112,-4.200000,3.220000,-2.940000
47.310287,-0.081984,-0.161040,0.901336,0.000000,6.020000,-0.980000
47.314353,-0.030256,-0.380640,0.977952,-1.960000,-4.200000,0.700000
47.318419,0.055144,-0.298656,1.042856,0.280000,-6.020000,0.700000
47.322485,0.026840,-0.272304,0.907192,0.700000,1.120000,-1.680000
47.326551,-0.009760,-0.224480,0.953552,-4.620000,3.360000,-2.380000
47.330617,-0.015128,-0.155184,1.016016,-0.980000,0.420000,0.420000
47.334683,-0.100528,-0.314760,0.888160,0.280000,-0.280000,0.560000
47.338749,0.066368,-0.327936,1.038464,-2.520000,-5.880000,1.400000
47.342815,0.079056,-0.188368,1.000400,0.000000,-2.100000,-0.980000
47.346881,-0.104432,-0.258640,0.841312,-3.360000,7.420000,-3.920000
47.350947,-0.055144,-0.214232,1.041880,-3.500000,1.260000,-0.560000
47.355013,0.020008,-0.302072,1.027728,2.240000,-6.860000,2.520000
47.359079,0.036112,-0.392352,0.998936,-1.400000,-4.480000,-1.680000
47.363145,0.033184,-0.160064,0.955016,-4.480000,3.360000,-2.940000
47.367212,-0.046360,-0.210816,0.902312,-1.260000,6.020000,-1.540000
47.371278,-0.082960,-0.357216,1.027240,-2.800000,-1.960000,0.700000
47.375344,0.056608,-0.287432,0.993568,-0.700000,-7.840000,1.260000
47.379410,-0.003904,-0.234240,0.936960,-0.280000,1.120000,-2.100000
47.383476,0.039040,-0.244976,0.991616,-4.760000,3.920000,-2.100000
47.387542,-0.027328,-0.174704,0.938912,-0.980000,0.140000,-0.420000
47.391608,-0.129320,-0.322080,0.895480,-0.420000,-0.140000,-0.140000
47.395674,0.123952,-0.360632,1.082872,-2.940000,-6.020000,0.700000
47.399740,0.041480,-0.180560,0.977464,1.400000,-2.240000,-1.400000
47.403806,-0.096136,-0.241072,0.848632,-2.100000,7.000000,-2.940000
47.407872,-0.033672,-0.253272,1.001864,-4.200000,1.820000,0.280000
47.411938,0.032696,-0.296704,1.049688,2.520000,-6.440000,1.820000
47.416004,-0.036112,-0.368928,0.958920,-1.400000,-1.260000,-2.660000
47.420070,-0.012688,-0.165920,0.933544,-2.940000,2.380000,-1.960000
47.424136,0.061976,-0.209352,0.999912,-0.560000,1.400000,-0.560000
47.428202,-0.040504,-0.339160,1.006256,-1.960000,-2.800000,0.140000
47.432268,0.018544,-0.302560,0.950624,-1.120000,-2.660000,0.560000
47.436334,0.002928,-0.232776,0.951112,-0.280000,2.100000,-0.980000
47.440400,0.012688,-0.293288,1.024800,-3.360000,3.360000,-2.240000
47.444466,-0.103944,-0.151768,0.878400,1.400000,-0.980000,0.280000
47.448532,-0.029768,-0.363560,0.920368,-0.280000,-3.780000,0.840000
47.452598,0.102968,-0.269376,1.126792,-2.100000,-3.500000,-0.560000
47.456664,0.015128,-0.190320,0.949648,1.540000,1.960000,-1.400000
47.460730,-0.110776,-0.300608,0.854976,-3.920000,4.480000,-2.660000
47.464796,-0.028792,-0.195688,1.097024,-2.660000,-0.420000,0.980000
47.468862,0.070272,-0.299144,0.949648,3.080000,-6.580000,1.960000
47.472928,-0.000976,-0.373320,0.960872,-3.360000,-2.660000,-2.380000
47.476994,0.003904,-0.169824,0.995520,-4.480000,5.040000,-2.240000
47.481060,-0.030744,-0.209352,0.929640,0.560000,3.780000,-0.840000
47.485126,-0.078568,-0.371856,0.988688,-1.540000,-4.620000,0.840000
47.489192,0.114192,-0.265960,1.011624,0.700000,-5.740000,0.560000
47.493258,-0.006832,-0.253272,0.903776,-0.560000,2.380000,-2.660000
47.497325,-0.022936,-0.230824,0.981368,-5.740000,4.480000,-2.240000
47.501391,-0.103456,-0.185928,0.919880,0.140000,-0.980000,0.140000
47.505457,-0.016592,-0.364536,0.938912,-0.140000,-3.500000,0.420000
47.509523,0.088328,-0.296704,1.123376,-2.940000,-1.820000,-1.120000
47.513589,0.012200,-0.161528,0.933056,1.400000,0.560000,-0.840000
47.517655,-0.072712,-0.305000,0.855952,-2.800000,3.080000,-2.660000
47.521721,-0.033184,-0.241560,1.077016,-2.380000,0.000000,0.280000
47.525787,0.063440,-0.343552,0.955016,2.660000,-5.320000,0.980000
47.529853,-0.015128,-0.323056,0.968192,-3.080000,-1.120000,-2.100000
47.533919,-0.004392,-0.153720,0.963800,-2.660000,4.900000,-2.100000
47.537985,-0.058072,-0.228872,0.926712,0.420000,1.820000,-0.560000
47.542051,0.009272,-0.383568,1.023824,-1.680000,-6.720000,1.680000
47.546117,0.055632,-0.272792,0.981368,-0.420000,-2.520000,-0.420000
47.550183,-0.066368,-0.191296,0.930616,-0.700000,5.320000,-2.240000
47.554249,0.042944,-0.251320,0.953064,-2.940000,1.400000,-0.700000
47.558315,-0.097600,-0.231312,0.975024,0.840000,-2.940000,0.560000
47.562381,-0.048800,-0.361120,0.961360,-0.700000,-1.120000,-0.280000
47.566447,0.114680,-0.247904,1.079456,-2.800000,-2.380000,-1.120000
47.570513,-0.008296,-0.195200,0.952088,0.980000,1.960000,-1.680000
47.574579,-0.085888,-0.307440,0.901336,-1.680000,1.960000,-1.820000
47.578645,0.016592,-0.281088,1.033584,-1.960000,-2.240000,0.980000
47.582711,0.081008,-0.302560,0.984296,1.400000,-3.780000,0.000000
47.586777,-0.077104,-0.313296,0.932080,-2.660000,1.120000,-2.240000
47.590843,0.007808,-0.134688,0.914512,-1.820000,3.080000,-0.840000
47.594909,-0.021960,-0.254736,1.028704,-0.420000,1.260000,-0.140000
47.598975,-0.003416,-0.353800,1.008208,-1.260000,-4.480000,0.840000
47.603041,0.064416,-0.243512,0.911096,0.840000,-5.460000,-0.420000
47.607107,-0.051728,-0.205936,0.955016,-3.360000,6.300000,-2.660000
47.611173,0.025376,-0.294264,1.020408,-4.200000,2.100000,-0.560000
47.615239,-0.057096,-0.212768,0.930128,1.680000,-4.200000,1.400000
47.619305,-0.054656,-0.393328,0.927200,-1.120000,-0.840000,-0.420000
47.623372,0.063928,-0.251808,1.085800,-2.520000,-1.960000,-0.840000
47.627438,0.019032,-0.157624,0.908168,1.960000,0.140000,-1.120000
47.631504,-0.092232,-0.323544,0.935496,-4.060000,4.620000,-2.520000
47.635570,-0.043920,-0.245952,1.076528,-3.080000,-0.280000,0.980000
47.639636,0.118584,-0.306952,0.954040,2.660000,-6.440000,1.680000
47.643702,-0.005856,-0.311344,0.965264,-3.360000,-1.680000,-2.660000
47.647768,-0.038552,-0.143960,0.952576,-3.080000,5.600000,-1.680000
47.651834,-0.043920,-0.242536,0.982344,0.000000,1.540000,-0.140000
47.655900,0.021960,-0.344528,0.980392,-1.820000,-5.600000,0.420000
47.659966,0.001464,-0.283040,0.937448,-1.120000,-3.080000,-0.840000
47.664032,-0.050752,-0.240096,0.939888,-2.940000,4.760000,-1.820000
47.668098,0.061000,-0.245464,0.993568,-3.080000,0.840000,-0.980000
47.672164,-0.104920,-0.213256,0.957456,0.420000,-2.380000,0.280000
47.676230,-0.021960,-0.374784,0.942328,-1.960000,-1.960000,0.700000
47.680296,0.162504,-0.280600,1.108736,-4.340000,-2.240000,-1.260000
47.684362,-0.047824,-0.155672,0.916952,0.840000,2.800000,-1.820000
47.688428,-0.117608,-0.305488,0.894992,-3.080000,2.940000,-1.540000
47.692494,0.059536,-0.245952,1.056032,-2.660000,-3.500000,1.260000
47.696560,0.044896,-0.323544,0.978440,2.520000,-4.340000,0.140000
47.700626,-0.056608,-0.354776,0.937448,-4.200000,1.260000,-3.640000
47.704692,-0.006832,-0.164456,0.942328,-1.680000,3.640000,-1.120000
47.708758,-0.009272,-0.235216,0.952088,0.280000,0.280000,-0.560000
47.712824,-0.062464,-0.345992,0.969656,-1.680000,-3.780000,0.840000
47.716890,0.051240,-0.251808,0.990152,0.840000,-3.500000,-0.140000
47.720956,0.027816,-0.271816,0.979904,-1.260000,3.500000,-2.520000
47.725022,-0.023912,-0.243024,0.986248,-3.780000,2.520000,-0.560000
47.729088,-0.096136,-0.206424,0.893040,0.700000,-2.660000,1.260000
47.733154,0.035624,-0.389912,0.990640,-1.120000,-3.080000,0.000000
47.737220,0.095160,-0.257664,1.099464,-2.800000,-1.540000,-1.260000
47.741286,-0.064904,-0.160552,0.878400,0.560000,3.920000,-1.540000
47.745352,-0.111752,-0.278648,0.937448,-4.340000,2.660000,-1.540000
47.749418,0.039528,-0.306952,1.061888,-1.820000,-5.460000,2.240000
47.753485,0.110288,-0.321592,0.974048,2.380000,-6.160000,0.560000
47.757551,-0.055144,-0.285480,0.913048,-4.900000,5.180000,-4.060000
47.761617,-0.041968,-0.144448,0.922808,-2.520000,5.460000,-0.700000
47.765683,-0.031232,-0.310856,0.975512,1.120000,-2.660000,0.140000
47.769749,-0.017080,-0.367464,1.023824,-1.680000,-6.020000,0.980000
47.773815,0.018544,-0.196176,0.962824,0.560000,-1.400000,-0.700000
47.777881,0.066856,-0.196664,0.992592,-1.680000,3.360000,-2.520000
47.781947,-0.020008,-0.294264,0.989176,-3.500000,2.240000,-1.260000
47.786013,-0.118096,-0.248880,0.895968,1.680000,-1.540000,0.420000
47.790079,0.007808,-0.386984,0.942816,-1.820000,-3.500000,0.840000
47.794145,0.112240,-0.268400,1.114104,-2.800000,-2.800000,-1.540000
47.798211,-0.057584,-0.129808,0.872056,1.260000,3.360000,-1.680000
47.802277,-0.088328,-0.281576,0.900360,-4.480000,4.060000,-1.820000
47.806343,0.061000,-0.262056,1.121912,-2.100000,-3.920000,2.100000
47.810409,0.048800,-0.354776,0.958432,2.800000,-5.460000,0.140000
47.814475,-0.032208,-0.325984,0.883280,-5.040000,1.960000,-3.500000
47.818541,-0.040504,-0.146888,0.992592,-2.940000,5.460000,-0.560000
47.822607,-0.007808,-0.235704,0.985760,0.420000,-1.400000,-0.420000
47.826673,-0.026840,-0.346480,0.961848,-2.100000,-5.180000,0.000000
47.830739,0.001464,-0.247416,0.939400,-1.540000,-0.280000,-0.560000
47.834805,0.075640,-0.271816,1.037488,-2.660000,1.400000,-2.380000
47.838871,-0.023912,-0.260104,0.984784,-3.920000,1.820000,-1.120000
47.842937,-0.097600,-0.210328,0.885720,-0.420000,-0.700000,0.980000
47.847003,0.021472,-0.405528,0.974536,-3.220000,-3.220000,1.400000
47.851069,0.114192,-0.253760,1.092632,-2.100000,-3.500000,-1.260000
47.855135,-0.106384,-0.189344,0.838384,-0.560000,4.340000,-2.380000
47.859201,-0.079056,-0.283040,0.925736,-5.040000,4.060000,-1.540000
47.863267,0.061000,-0.267912,1.098976,-0.840000,-4.620000,1.120000
47.867333,0.032208,-0.308416,0.939400,2.520000,-6.020000,0.140000
47.871399,-0.025864,-0.295728,0.940376,-4.900000,1.120000,-2.380000
47.875465,0.063928,-0.158112,1.042856,-3.080000,5.880000,-1.120000
47.879532,-0.080032,-0.268400,0.963800,-0.700000,0.140000,-0.700000
47.883598,-0.036600,-0.357704,0.906704,-3.220000,-5.180000,0.840000
47.887664,0.025376,-0.246440,0.975512,-0.280000,-1.820000,-0.280000
47.891730,0.005856,-0.286944,1.006744,-4.060000,1.680000,-2.380000
47.895796,-0.011224,-0.233752,0.945744,-3.220000,1.260000,-0.980000
47.899862,-0.104920,-0.206912,0.885720,-0.140000,0.420000,-0.140000
47.903928,0.064416,-0.429440,1.058472,-3.640000,-3.360000,0.700000
47.907994,0.086376,-0.231800,1.092144,-1.260000,-4.480000,0.000000
47.912060,-0.067832,-0.223504,0.811056,-0.700000,4.200000,-2.520000
47.916126,-0.040504,-0.263032,0.968192,-4.760000,3.640000,-1.260000
47.920192,0.000976,-0.268888,1.038952,0.980000,-4.340000,1.820000
47.924258,0.026840,-0.370880,0.906704,1.400000,-5.880000,0.280000
47.928324,0.005368,-0.260592,0.977952,-4.900000,1.960000,-2.240000
47.932390,0.006832,-0.162504,0.977952,-0.700000,4.900000,-0.840000
47.936456,-0.082960,-0.327448,0.958920,-1.120000,-0.560000,-0.560000
47.940522,-0.008784,-0.324520,1.010160,-0.980000,-4.480000,0.840000
47.944588,0.020008,-0.248392,0.918904,1.260000,-1.120000,-0.140000
47.948654,0.056120,-0.297680,1.030168,-3.080000,0.560000,-2.520000
47.952720,-0.063440,-0.196176,0.924272,-1.680000,1.820000,-0.840000
47.956786,-0.082960,-0.209352,0.868640,0.420000,1.680000,0.280000
47.960852,0.104920,-0.379176,1.098000,-3.360000,-4.340000,0.700000
47.964918,0.045384,-0.246928,1.034560,-0.280000,-2.940000,-0.700000
47.968984,-0.057584,-0.233752,0.840336,-0.840000,4.620000,-3.220000
47.973050,-0.057584,-0.242048,0.989176,-5.320000,2.800000,-1.400000
47.977116,0.001952,-0.265472,1.014064,1.120000,-5.320000,1.960000
47.981182,0.033672,-0.382104,0.903776,0.000000,-6.160000,-0.140000
47.985248,-0.011712,-0.269864,0.982344,-5.040000,3.920000,-2.520000
47.989314,0.018544,-0.139080,1.027240,-0.560000,5.460000,-0.980000
47.993380,-0.123952,-0.330376,0.929152,-1.680000,-0.280000,-0.840000
47.997446,0.003904,-0.321592,0.951600,-2.100000,-6.020000,1.820000
48.001512,0.080032,-0.264008,1.035048,1.120000,-3.360000,-0.280000
48.005578,0.043432,-0.293288,0.982344,-3.640000,2.380000,-2.800000
48.009645,-0.027328,-0.194224,0.934520,-2.660000,4.060000,-1.260000
48.013711,-0.137616,-0.271816,0.906216,-0.420000,0.840000,0.140000
48.017777,0.061976,-0.401136,1.059448,-2.800000,-5.880000,1.540000
48.021843,0.091256,-0.213744,0.991616,0.980000,-4.480000,-0.420000
48.025909,-0.123464,-0.206424,0.840824,-2.940000,7.280000,-3.500000
48.029975,0.011712,-0.228384,1.006256,-4.620000,2.800000,-0.980000
48.034041,0.003904,-0.299144,1.018456,1.540000,-5.740000,1.820000
48.038107,-0.003904,-0.410896,0.911584,0.840000,-3.920000,-1.120000
48.042173,-0.008296,-0.252296,0.994544,-4.060000,2.240000,-2.520000
48.046239,0.087840,-0.135664,0.970144,0.000000,1.820000,-0.420000
48.050305,-0.129320,-0.298656,0.942328,-1.680000,1.680000,-1.260000
48.054371,-0.036112,-0.314272,0.991616,-0.980000,-2.940000,1.120000
48.058437,0.058072,-0.294264,1.002352,0.980000,-3.640000,-0.140000
48.062503,0.027328,-0.305000,1.006256,-3.920000,1.120000,-2.660000
48.066569,-0.063928,-0.142984,0.903776,-1.540000,3.080000,-1.260000
48.070635,-0.037088,-0.272304,0.906216,-0.140000,0.560000,-0.420000
48.074701,0.045872,-0.419192,1.067744,-2.660000,-4.200000,0.560000
48.078767,0.050264,-0.224968,1.008696,0.840000,-2.660000,-0.560000
48.082833,-0.064416,-0.228384,0.842288,-1.540000,4.060000,-2.940000
48.086899,0.013664,-0.249856,0.984784,-3.920000,1.400000,-0.420000
48.090965,-0.023912,-0.264984,1.017968,1.680000,-3.080000,1.120000
48.095031,0.003904,-0.426512,0.902800,-0.840000,-2.240000,-0.700000
48.099097,0.005856,-0.240096,1.039928,-3.360000,2.240000,-2.100000
48.103163,-0.008296,-0.154696,0.956480,1.820000,2.800000,-0.700000
48.107229,-0.081496,-0.321104,0.928664,-1.680000,-2.660000,-0.280000
48.111295,0.049288,-0.267912,0.996008,-1.400000,-4.900000,0.560000
48.115361,0.040504,-0.316224,0.979904,0.140000,2.380000,-1.540000
48.119427,-0.022936,-0.287432,0.999424,-4.060000,3.500000,-1.960000
48.123493,-0.045872,-0.144936,0.907680,-0.700000,-0.700000,0.140000
48.127559,-0.029768,-0.321592,0.914512,-0.280000,-1.400000,0.560000
48.131625,0.093208,-0.357216,1.114104,-2.800000,-4.620000,-0.560000
48.135691,0.011224,-0.219600,0.958432,-0.280000,0.420000,-1.400000
48.139758,-0.131272,-0.248392,0.879376,-2.940000,5.320000,-2.800000
48.143824,0.006344,-0.222528,1.032608,-3.920000,0.420000,-0.560000
48.147890,0.014640,-0.277672,0.955992,1.960000,-5.880000,1.820000
48.151956,-0.021472,-0.399672,0.908168,-1.960000,-2.520000,-1.820000
48.156022,0.051728,-0.219112,1.046272,-5.040000,2.660000,-1.960000
48.160088,-0.006832,-0.198128,0.949648,0.420000,4.060000,-1.260000
48.164154,-0.109800,-0.313296,0.918416,-2.380000,-2.240000,-0.420000
48.168220,0.035136,-0.298168,0.994056,-1.540000,-4.200000,1.400000
48.172286,0.088328,-0.331840,1.002352,0.140000,-0.420000,-1.820000
48.176352,-0.067832,-0.262056,0.998936,-4.060000,3.220000,-2.660000
48.180418,-0.034160,-0.156160,0.869616,0.140000,1.260000,-0.840000
48.184484,-0.021472,-0.358192,0.940864,0.000000,-2.520000,-0.420000
48.188550,0.072224,-0.345992,1.078480,-1.960000,-3.780000,-0.280000
48.192616,0.007320,-0.213256,0.917440,0.840000,0.140000,-1.680000
48.196682,-0.083448,-0.237168,0.901336,-2.240000,7.000000,-2.380000
48.200748,-0.002928,-0.238632,1.053592,-2.100000,-1.400000,0.280000
48.204814,0.038552,-0.294264,0.965264,3.360000,-7.420000,0.700000
48.208880,-0.042456,-0.327936,0.918416,-2.380000,0.700000,-2.940000
48.212946,0.042456,-0.215696,1.057984,-3.640000,4.200000,-2.380000
48.217012,0.000976,-0.209840,0.954040,1.400000,1.680000,-0.700000
48.221078,-0.125904,-0.351848,0.929640,-2.800000,-2.240000,-1.120000
48.225144,0.041480,-0.291824,0.999424,-1.260000,-4.760000,0.280000
48.229210,0.077104,-0.244976,1.017480,-0.840000,0.420000,-2.240000
48.233276,-0.027328,-0.283040,0.970144,-4.060000,3.360000,-3.080000
48.237342,-0.091256,-0.191296,0.870592,-0.280000,0.560000,-0.700000
48.241408,0.018544,-0.366488,0.950624,-0.700000,-1.260000,-0.280000
48.245474,0.045384,-0.371856,1.114592,-3.780000,-2.520000,-1.540000
48.249540,-0.004392,-0.201544,0.869128,1.820000,-1.260000,-1.260000
48.253606,-0.052704,-0.242536,0.876936,-2.660000,3.360000,-1.960000
48.257672,0.051728,-0.280112,1.019432,-2.520000,-0.840000,0.000000
48.261738,-0.005368,-0.297680,0.990640,3.360000,-2.100000,0.000000
48.265805,-0.074664,-0.308416,0.915976,-1.260000,1.960000,-3.080000
48.269871,0.026352,-0.235704,1.057496,-2.380000,1.260000,-1.260000
48.273937,-0.048800,-0.227896,0.915000,2.800000,-1.680000,-0.140000
48.278003,0.011712,-0.406992,0.927688,-1.120000,-4.760000,-1.400000
48.282069,0.034648,-0.233752,1.043832,-1.260000,2.520000,-1.540000
48.286135,0.033184,-0.212768,0.979416,1.540000,2.380000,-2.100000
48.290201,-0.083936,-0.274744,0.934520,-2.240000,0.980000,-2.240000
48.294267,-0.095160,-0.220088,0.935496,0.700000,-1.120000,0.000000
48.298333,0.129320,-0.364536,1.104344,0.280000,-4.060000,-1.540000
48.302399,0.038064,-0.292312,0.978440,-1.960000,-1.960000,-2.380000
48.306465,-0.040992,-0.167384,0.841800,-0.280000,4.760000,-2.100000
48.310531,-0.082472,-0.278160,0.928664,-3.080000,3.360000,-1.680000
48.314597,0.055632,-0.375760,1.055544,-1.260000,-5.040000,-0.280000
48.318663,-0.002928,-0.256688,0.983320,2.660000,-2.660000,-1.820000
48.322729,-0.061000,-0.223992,0.905728,-2.520000,3.080000,-3.220000
48.326795,0.044896,-0.220576,1.001864,-2.660000,1.120000,-0.420000
48.330861,0.000000,-0.280600,1.012112,1.820000,-1.540000,-0.700000
48.334927,-0.041480,-0.413336,0.939400,-2.240000,-1.680000,-1.680000
48.338993,0.015128,-0.223016,0.994544,-2.520000,1.820000,-1.820000
48.343059,-0.021960,-0.226920,0.951600,0.420000,1.960000,-1.960000
48.347125,-0.030744,-0.293288,0.929152,-2.100000,-2.940000,-0.840000
48.351191,-0.005856,-0.307440,0.931104,1.680000,-3.640000,-0.700000
48.355257,0.076128,-0.334768,1.021384,0.000000,1.540000,-1.960000
48.359323,-0.001952,-0.269376,0.962824,-3.360000,2.660000,-1.540000
48.363389,-0.085400,-0.179096,0.882304,2.240000,1.120000,0.280000
48.367455,-0.020496,-0.368928,0.981368,0.000000,-1.400000,-0.420000
48.371521,0.091256,-0.340624,1.084336,-0.140000,-4.760000,0.140000
48.375587,0.014640,-0.194712,0.927200,3.220000,0.420000,-1.400000
48.379653,-0.079056,-0.240584,0.876448,-1.540000,4.340000,-1.820000
48.383719,0.005856,-0.284016,1.058472,-1.260000,0.000000,0.980000
48.387785,0.010248,-0.348920,1.003328,4.480000,-4.200000,0.840000
48.391851,-0.007808,-0.298656,0.949160,-0.420000,-1.260000,-2.800000
48.395918,-0.033672,-0.154696,0.962336,-0.560000,3.640000,-1.260000
48.399984,0.026840,-0.272792,0.926712,3.080000,-1.120000,0.140000
48.404050,-0.024400,-0.386008,0.963800,-0.560000,-4.060000,-1.120000
