Time [s],lsm6dsv16x_acc_x [g],lsm6dsv16x_acc_y [g],lsm6dsv16x_acc_z [g],lsm6dsv16x_gyro_x [dps],lsm6dsv16x_gyro_y [dps],lsm6dsv16x_gyro_z [dps]
49.319962,-0.219600,0.136152,0.797392,2.940000,12.460000,-3.080000
49.324028,-0.040992,-0.268400,1.017480,1.260000,-7.140000,-2.100000
49.328094,0.055144,-0.086864,1.033584,-5.880000,-3.780000,1.820000
49.332160,0.011224,0.284504,1.014552,-3.080000,6.300000,0.280000
49.336227,-0.065392,0.028792,1.330776,2.100000,3.500000,-1.820000
49.340293,-0.087840,-0.200568,0.691008,-0.980000,-7.560000,-0.280000
49.344359,-0.001952,-0.017080,0.725656,-2.100000,-3.500000,1.540000
49.348425,-0.056608,0.167872,1.462048,2.380000,4.340000,-1.540000
49.352491,0.129320,-0.022936,1.134600,-3.080000,-4.480000,-1.260000
49.356557,-0.142008,0.042944,0.542656,0.140000,1.820000,-1.680000
49.360623,-0.223016,-0.032208,0.919392,2.940000,8.680000,-3.220000
49.364689,0.146888,-0.029768,1.409344,-2.520000,-9.520000,-0.980000
49.368755,0.045872,0.123952,0.879864,-4.760000,-1.540000,0.980000
49.372822,-0.178120,0.082472,0.830088,2.100000,7.140000,-1.400000
49.376888,-0.002440,-0.121024,1.064328,2.380000,-4.340000,-1.820000
49.380954,0.047336,-0.092232,0.849120,-4.620000,-6.440000,1.260000
49.385020,0.040016,0.092232,1.048224,-0.140000,1.680000,0.140000
49.389086,-0.011712,0.204960,1.223416,1.400000,6.020000,-2.940000
49.393152,-0.089304,-0.147864,0.691008,-0.140000,-3.360000,-1.960000
49.397218,-0.110288,-0.200568,0.710040,0.700000,-4.620000,0.700000
49.401284,-0.001464,0.171776,1.321504,0.840000,5.040000,-0.140000
49.405351,0.131760,0.056608,1.333704,-1.260000,-5.460000,-0.560000
49.409417,-0.123464,-0.090280,0.768600,1.120000,-1.400000,0.140000
49.413483,-0.204472,0.007808,0.667584,1.820000,6.300000,0.280000
49.417549,0.126880,-0.086864,1.410320,0.420000,-6.300000,0.000000
49.421615,0.072712,0.029768,1.322968,-0.700000,-2.520000,-0.140000
49.425681,-0.153232,0.215208,0.639280,5.600000,5.320000,-1.680000
49.429747,-0.017568,-0.080032,1.091168,4.200000,-1.540000,-1.820000
49.433813,-0.104432,-0.164456,0.861320,-0.420000,-5.180000,0.140000
49.437879,-0.004392,0.151768,0.862784,4.060000,-0.140000,0.000000
49.441946,0.103944,0.152256,1.539640,2.520000,3.640000,-1.680000
49.446012,-0.072224,-0.007320,0.824232,1.540000,-1.540000,-1.400000
49.450078,-0.196664,-0.106384,0.477264,3.640000,-2.800000,0.280000
49.454144,0.043432,-0.010736,1.207800,2.800000,1.260000,0.280000
49.458210,0.140544,0.122488,1.311744,1.680000,-2.800000,-1.820000
49.462276,-0.089792,-0.012200,0.845216,4.200000,-2.660000,-2.380000
49.466342,-0.084912,0.021472,0.846680,3.220000,3.780000,-1.400000
49.470408,-0.010248,-0.115168,0.923296,-2.100000,-4.620000,1.260000
49.474474,-0.052216,-0.016592,1.056520,2.660000,-1.960000,0.980000
49.478541,0.063440,0.134688,1.091168,4.200000,8.680000,-0.560000
49.482607,0.022448,-0.020984,1.224880,1.120000,-5.180000,-0.840000
49.486673,-0.115656,-0.153720,0.727608,1.820000,-8.680000,1.260000
49.490739,-0.032696,0.049776,0.750544,0.840000,6.860000,1.960000
49.494805,0.035136,0.064416,1.424960,3.220000,2.660000,-0.840000
49.498871,0.013176,0.015616,1.104832,4.340000,-6.720000,-1.820000
49.502937,-0.111752,0.000976,0.712480,0.000000,6.300000,-0.980000
49.507003,-0.025864,-0.078080,1.076528,-3.080000,-2.240000,0.980000
49.511069,0.003904,0.086376,1.077992,3.640000,-4.060000,-0.560000
49.515136,-0.134688,0.055632,0.872544,2.940000,8.680000,-1.680000
49.519202,0.002928,-0.045384,1.233176,3.780000,-2.520000,-1.260000
49.523268,-0.071248,-0.007320,1.040416,3.360000,-9.660000,1.540000
49.527334,-0.020984,-0.005368,0.574376,3.780000,0.140000,2.660000
49.531400,0.035624,0.061488,1.130208,7.560000,6.580000,0.140000
49.535466,0.043920,0.060512,1.219024,7.280000,-0.980000,-2.800000
49.539532,-0.065392,-0.123952,0.792024,4.480000,-2.100000,0.140000
49.543598,-0.085400,0.019032,0.810080,3.500000,4.480000,1.540000
49.547664,0.063928,0.066856,1.240496,3.640000,-2.940000,0.700000
49.551731,-0.117608,-0.014640,0.905240,7.840000,4.620000,-0.700000
49.555797,-0.040992,-0.059536,0.984784,6.860000,-1.400000,0.280000
49.559863,0.064416,-0.031232,1.312232,1.540000,-6.860000,1.120000
49.563929,-0.092720,-0.010736,0.759816,1.680000,-0.980000,1.820000
49.567995,-0.064904,0.089304,1.008208,8.540000,7.280000,-0.280000
49.572061,0.025376,0.050264,1.279048,4.480000,2.800000,-2.100000
49.576127,-0.023424,-0.027816,0.865712,3.920000,-6.580000,0.000000
49.580193,-0.126392,-0.013664,0.679296,2.940000,0.980000,2.100000
49.584259,0.047824,0.113216,1.125816,3.500000,2.520000,0.840000
49.588326,0.072224,0.000000,0.945744,7.700000,0.140000,-0.560000
49.592392,-0.094184,-0.032696,0.875472,6.020000,4.200000,-0.420000
49.596458,-0.024888,-0.031232,1.155584,6.580000,-2.800000,-0.420000
49.600524,0.034160,-0.095648,0.782752,0.000000,-6.020000,1.820000
49.604590,-0.098576,0.062952,0.965264,7.000000,3.360000,-0.280000
49.608656,-0.034160,0.169824,1.439112,7.000000,8.680000,-3.080000
49.612722,0.014152,-0.095648,0.917928,5.040000,-7.700000,-1.260000
49.616788,-0.122488,-0.035624,0.718336,0.700000,-0.840000,1.820000
49.620854,-0.074664,-0.008296,0.974048,5.600000,3.920000,0.420000
49.624921,0.093208,0.116632,1.170712,6.580000,-1.260000,0.000000
49.628987,0.029768,0.064416,0.859368,6.020000,-0.420000,1.680000
49.633053,-0.150304,-0.052216,0.982832,5.180000,6.160000,0.140000
49.637119,-0.014152,-0.234240,1.004304,5.180000,-10.080000,0.420000
49.641185,0.063440,0.089304,0.834968,0.000000,1.680000,1.540000
49.645251,-0.041968,0.184952,1.369816,6.720000,9.520000,-1.120000
49.649317,-0.074664,-0.025376,1.210240,6.580000,0.000000,-3.640000
49.653383,-0.072224,-0.160552,0.509472,3.220000,-4.900000,-0.840000
49.657449,-0.054168,0.114192,0.859856,3.080000,1.120000,0.840000
49.661516,0.021472,0.007320,1.331264,4.480000,-3.640000,0.140000
49.665582,0.034648,0.070272,0.950624,4.760000,-0.280000,0.560000
49.669648,-0.023424,0.118584,0.683688,2.380000,6.160000,-0.420000
49.673714,-0.101016,-0.233264,1.142408,0.700000,-1.960000,-1.540000
49.677780,-0.056608,-0.167872,1.045784,-0.420000,-7.420000,0.140000
49.681846,0.091744,0.356240,1.088240,-1.400000,7.140000,0.840000
49.685912,-0.078080,0.171288,1.182912,1.960000,5.460000,-1.120000
49.689978,-0.156648,-0.277672,0.732000,5.460000,-5.040000,-1.260000
49.694044,0.107360,-0.064904,0.772504,-3.080000,-3.780000,0.840000
49.698111,0.017568,0.217648,1.173152,-3.640000,-1.400000,0.280000
49.702177,-0.067832,-0.045872,1.080432,-3.500000,0.840000,1.260000
49.706243,-0.119560,0.049288,0.866200,-2.240000,5.880000,0.560000
49.710309,0.093208,0.007808,1.081896,-3.500000,-2.660000,-1.120000
49.714375,-0.062464,-0.071736,1.043344,-3.920000,-5.320000,-1.260000
49.718441,-0.140056,0.002928,0.800320,-1.960000,1.960000,0.560000
49.722507,0.108824,0.098576,1.158024,-0.840000,0.840000,-0.420000
49.726573,0.030744,0.034160,0.905728,-1.260000,0.280000,-0.700000
49.730639,-0.155672,-0.020496,0.845704,0.560000,3.220000,0.280000
49.734706,0.011224,-0.121024,1.296128,-3.780000,-3.360000,-0.840000
49.738772,-0.034648,-0.033184,0.924760,-4.760000,-7.000000,0.140000
49.742838,-0.063440,0.248880,0.770064,0.140000,6.020000,0.000000
49.746904,0.008296,0.044896,1.253184,0.840000,4.760000,-1.400000
49.750970,-0.020008,-0.139568,1.002840,-1.820000,-7.560000,-1.400000
49.755036,-0.021960,-0.061488,0.682224,-2.100000,-2.940000,0.280000
49.759102,-0.082960,0.042456,1.050664,-0.840000,3.220000,-0.140000
49.763168,-0.029280,-0.002440,1.419104,1.400000,-2.800000,-1.120000
49.767234,-0.021960,0.113704,0.865224,-2.380000,3.080000,0.980000
49.771300,-0.075640,0.126880,0.801296,0.560000,2.940000,0.000000
49.775367,-0.005856,-0.247904,0.956968,-0.560000,-9.240000,0.000000
49.779433,0.007808,-0.099552,0.926712,-2.800000,-3.360000,1.120000
49.783499,0.054168,0.349408,1.297592,-2.940000,6.020000,-0.280000
49.787565,-0.065392,0.088816,1.133136,0.420000,2.660000,-2.800000
49.791631,-0.184952,-0.307928,0.535336,0.140000,-1.820000,-2.100000
49.795697,0.058072,-0.008784,1.117032,-3.360000,-3.500000,-0.280000
49.799763,0.035136,0.184952,1.181936,-2.940000,-2.520000,-0.140000
49.803829,-0.070272,0.058072,0.798856,0.560000,1.120000,0.560000
49.807895,-0.071248,-0.054168,1.033584,0.560000,5.320000,-1.400000
49.811962,-0.011224,-0.101504,1.258552,-1.540000,-5.040000,-1.960000
49.816028,-0.065880,0.087352,0.759816,-2.660000,-5.180000,0.980000
49.820094,0.042944,0.082472,0.825696,-2.940000,7.140000,0.560000
49.824160,-0.006344,-0.048800,1.257576,-0.420000,-0.420000,-1.680000
49.828226,-0.039528,0.006344,1.033584,1.820000,1.260000,-2.240000
49.832292,-0.051240,0.067344,0.836432,-2.660000,3.640000,-0.700000
49.836358,-0.107360,-0.100040,1.140944,-2.520000,-6.020000,-0.420000
49.840424,0.019032,-0.066856,0.938912,-2.240000,-5.320000,0.280000
49.844490,-0.021472,0.309392,0.963800,-0.700000,10.080000,0.420000
49.848557,0.010248,0.051728,1.151192,2.380000,-1.820000,-1.260000
49.852623,-0.003904,-0.365024,0.922320,-3.360000,-7.420000,-0.560000
49.856689,-0.142008,0.065392,0.946232,-2.520000,3.360000,-0.140000
49.860755,0.057584,0.254736,1.154608,0.980000,2.380000,-1.120000
49.864821,0.030256,-0.012200,0.911096,-0.980000,0.140000,-0.980000
49.868887,-0.107848,-0.027816,0.899872,-1.960000,4.900000,-1.120000
49.872953,-0.017568,-0.026840,1.135088,-1.540000,-1.540000,-2.100000
49.877019,-0.064416,-0.139568,0.817888,-2.660000,-8.260000,-0.420000
49.881085,-0.032696,0.072712,1.098000,-2.100000,2.380000,0.140000
49.885152,0.014640,0.245464,1.383480,-1.260000,5.180000,-1.400000
49.889218,-0.039040,0.007320,0.742736,0.000000,-0.980000,-1.540000
49.893284,-0.077592,-0.177144,0.553392,0.280000,0.560000,-0.280000
49.897350,-0.025864,-0.118096,1.411784,-3.360000,-4.480000,-0.840000
49.901416,0.017080,0.125416,1.232688,-3.640000,-4.760000,0.980000
49.905482,-0.086864,0.305976,0.697840,0.980000,6.860000,0.280000
49.909548,-0.033672,-0.153232,0.965264,0.280000,3.920000,-2.380000
49.913614,0.023424,-0.233752,1.190232,-0.420000,-10.780000,-1.260000
49.917680,-0.026352,0.162016,0.799832,-4.340000,3.220000,1.820000
49.921747,-0.022448,0.152256,1.119472,-2.520000,7.000000,1.120000
49.925813,-0.125416,-0.129808,1.117032,1.400000,1.120000,-1.540000
49.929879,0.009272,0.043432,0.832528,-2.100000,2.520000,-1.680000
49.933945,0.058072,0.147376,1.005768,-3.220000,0.560000,-1.820000
49.938011,-0.091256,-0.153720,0.847168,-1.680000,-7.000000,-1.820000
49.942077,-0.092720,-0.091256,0.935496,-0.140000,1.260000,-0.420000
49.946143,0.041480,0.215696,1.389336,-1.260000,5.040000,-0.980000
49.950209,-0.083448,0.086864,0.937936,-1.120000,-1.960000,-0.560000
49.954275,-0.082960,-0.162504,0.572424,-1.540000,0.700000,0.420000
49.958342,0.023424,-0.065880,1.207312,-2.660000,-0.140000,0.140000
49.962408,-0.017080,0.155184,1.156072,-0.840000,1.120000,-0.420000
49.966474,0.008784,0.134200,0.802760,0.280000,3.500000,0.140000
49.970540,-0.087840,-0.103944,1.082384,0.420000,3.920000,-2.100000
49.974606,-0.082472,-0.198616,1.138504,-1.540000,-7.000000,-1.540000
49.978672,0.011224,0.140056,0.760792,-1.400000,0.980000,0.420000
49.982738,0.046848,0.226920,1.000400,-2.240000,8.540000,-0.840000
49.986804,-0.056120,-0.077592,1.199992,0.420000,0.700000,-1.680000
49.990870,-0.173728,-0.134688,0.805200,0.700000,1.400000,-0.140000
49.994937,0.025864,0.020496,1.051152,-3.780000,0.280000,0.560000
49.999003,-0.005856,0.084912,1.052616,-0.980000,-3.920000,0.000000
50.003069,0.034160,0.061976,1.004792,0.000000,3.780000,0.420000
50.007135,-0.056120,0.087840,1.047248,0.280000,10.360000,-1.960000
50.011201,-0.042944,-0.102968,0.978440,2.100000,-3.500000,-3.640000
50.015267,-0.078080,-0.128344,0.778360,-2.240000,-4.200000,0.000000
50.019333,0.003904,0.104432,1.298080,-3.080000,5.040000,0.980000
50.023399,-0.102968,0.188368,1.197064,0.420000,2.940000,-0.420000
50.027465,-0.026352,-0.038552,0.573400,2.520000,3.080000,-0.280000
50.031532,0.067344,-0.121024,1.033096,-1.400000,1.400000,-0.140000
50.035598,-0.038552,-0.010736,1.448872,-2.380000,-4.480000,-0.840000
50.039664,-0.060512,0.032696,0.729072,-0.560000,0.840000,-0.560000
50.043730,-0.054656,0.143472,0.880840,0.840000,9.940000,-2.520000
50.047796,0.053192,-0.000488,1.465952,0.140000,2.520000,-3.360000
50.051862,-0.079056,-0.033672,0.834480,-0.280000,-0.840000,-0.560000
50.055928,-0.063928,0.018544,0.636352,-1.540000,5.180000,0.980000
50.059994,-0.040016,-0.124440,1.214144,-0.140000,-0.140000,-0.140000
50.064060,-0.013176,0.076616,1.321992,-0.560000,1.400000,1.400000
50.068127,-0.019032,0.283040,0.921832,-0.280000,10.220000,0.280000
50.072193,-0.019032,-0.073688,0.905240,-0.140000,1.680000,-2.240000
50.076259,-0.048800,-0.280112,0.817400,-1.120000,-6.860000,-1.260000
50.080325,0.061000,0.119560,1.026264,-3.220000,5.880000,-0.420000
50.084391,-0.051240,0.278648,1.303936,0.420000,4.760000,-2.100000
50.088457,-0.079056,-0.091744,1.002840,0.980000,0.560000,-2.660000
50.092523,-0.085400,-0.121512,0.744200,-1.820000,1.820000,-1.400000
50.096589,0.039528,0.084424,1.127768,-2.520000,0.140000,-1.260000
50.100655,-0.030256,0.023424,0.858880,-2.240000,-4.900000,0.280000
50.104722,-0.081008,0.040504,1.039440,0.840000,1.960000,0.840000
50.108788,-0.037088,0.082472,1.301496,2.520000,1.960000,-1.820000
50.112854,0.000488,-0.070272,0.995032,-0.280000,-8.260000,-2.800000
50.116920,-0.036112,-0.046360,0.613416,-3.080000,-2.240000,-0.560000
50.120986,0.028792,0.086376,1.268312,-1.260000,5.740000,-0.840000
50.125052,-0.066856,0.077104,1.171688,-0.700000,1.680000,-0.560000
50.129118,-0.122000,0.023424,0.734928,1.820000,3.640000,-0.700000
50.133184,-0.023912,-0.108824,1.133136,-1.680000,0.140000,-1.540000
50.137250,0.028304,-0.003904,1.270752,-4.760000,-11.620000,-0.560000
50.141317,0.003416,0.093696,0.567544,-1.400000,1.820000,0.560000
50.145383,-0.087840,0.106384,1.033584,1.540000,8.820000,-0.840000
50.149449,-0.020984,-0.096624,1.463024,2.240000,-3.780000,-1.820000
50.153515,0.012688,-0.040992,0.825696,-3.500000,-3.360000,0.000000
50.157581,-0.054168,0.149328,0.816424,-3.780000,4.200000,0.280000
50.161647,-0.064904,-0.099552,1.071160,1.400000,-0.420000,-1.960000
50.165713,0.014152,-0.004392,1.142408,0.280000,-3.220000,-0.280000
50.169779,0.036600,0.253272,1.036512,-2.240000,6.580000,0.280000
50.173845,-0.112240,-0.052704,1.081896,-0.840000,-1.820000,-1.260000
50.177912,-0.097112,-0.286944,0.839360,-1.260000,-9.520000,-0.280000
50.181978,0.104432,0.143960,0.843752,-3.500000,3.920000,0.140000
50.186044,0.083936,0.341112,1.321016,-0.840000,5.740000,-2.240000
50.190110,-0.091744,-0.118584,1.013088,0.980000,0.840000,-3.220000
50.194176,-0.181536,-0.200568,0.782264,-0.420000,0.700000,-1.820000
50.198242,0.006344,0.069784,1.070672,-3.220000,-1.960000,-0.840000
50.202308,0.091256,0.112240,1.007232,-3.080000,-4.900000,1.120000
50.206374,-0.125416,0.080032,0.976976,-0.420000,5.600000,1.260000
50.210440,-0.051728,0.008296,1.128744,0.840000,4.900000,-0.980000
50.214507,0.066856,-0.130296,0.983320,-2.240000,-6.720000,-1.960000
50.218573,-0.128832,0.019520,0.849120,-2.660000,-2.240000,0.280000
50.222639,0.009760,0.116144,1.198528,-1.120000,6.720000,-0.560000
50.226705,0.002928,0.092720,1.122400,0.000000,-2.800000,-1.960000
50.230771,-0.016104,-0.011712,0.695888,-1.260000,-0.420000,-1.680000
50.234837,-0.101504,-0.081496,1.112640,-1.820000,1.820000,-1.400000
50.238903,-0.050752,-0.064904,1.353224,-2.240000,-7.280000,-1.260000
50.242969,0.058560,0.129320,0.724680,-3.360000,-0.700000,0.000000
50.247035,-0.000488,0.174216,0.943304,0.840000,11.060000,-1.260000
50.251102,-0.120048,-0.060512,1.441552,2.380000,0.000000,-2.520000
50.255168,0.016104,-0.205448,0.837896,-2.380000,-9.240000,-1.540000
50.259234,-0.028792,0.137128,0.605608,-4.900000,1.820000,0.420000
50.263300,-0.029768,0.174704,1.333704,1.400000,4.200000,-1.820000
50.267366,0.020984,-0.086864,1.211216,0.140000,0.000000,-2.100000
50.271432,-0.073200,0.041480,0.617808,-2.520000,2.660000,-0.420000
50.275498,-0.035624,0.048800,1.050664,-2.100000,2.520000,-0.280000
50.279564,-0.087840,-0.184952,1.187792,-0.420000,-7.560000,0.000000
50.283630,-0.040504,0.108336,1.003816,-1.540000,0.140000,0.140000
50.287697,0.102480,0.315248,0.937936,1.820000,5.600000,-2.240000
50.291763,-0.006344,-0.090768,1.158512,-0.840000,-1.680000,-2.940000
50.295829,-0.218624,-0.318664,0.835944,-1.680000,-4.200000,-0.700000
50.299895,0.058560,0.117120,0.968680,-1.540000,3.780000,-0.560000
50.303961,0.064904,0.295728,1.318088,-2.520000,2.100000,-1.540000
50.308027,-0.053192,-0.063928,1.093120,0.280000,2.380000,-1.400000
50.312093,-0.156648,-0.114680,0.632448,1.120000,2.100000,-1.260000
50.316159,0.039040,0.020008,0.934520,-0.420000,-4.060000,-1.820000
50.320225,0.105896,0.013664,1.313208,-3.920000,-7.000000,0.000000
50.324292,-0.181536,0.135664,0.996496,-1.400000,6.720000,0.000000
50.328358,-0.084912,0.123952,0.952576,3.360000,4.060000,-2.800000
50.332424,0.113216,-0.170800,0.864248,-2.100000,-7.420000,-3.080000
50.336490,-0.040504,-0.144448,1.030656,-4.480000,-1.680000,-0.560000
50.340556,-0.082960,0.292312,1.265872,0.700000,7.840000,-1.400000
50.344622,-0.027816,0.083936,1.059448,1.120000,2.800000,-2.660000
50.348688,-0.072712,-0.208864,0.732976,-1.960000,-3.640000,-0.840000
50.352754,-0.103456,0.031720,1.138016,-1.820000,-1.120000,0.840000
50.356820,0.043920,0.168848,1.080432,-0.560000,-1.260000,0.000000
50.360887,0.122488,-0.028304,0.792512,-2.380000,-4.060000,0.420000
50.364953,-0.085888,-0.004392,1.025288,0.420000,8.260000,-1.260000
50.369019,-0.109800,0.063928,1.173152,4.060000,4.060000,-3.780000
50.373085,0.013176,-0.065392,0.919880,-1.820000,-9.520000,-1.820000
50.377151,-0.016592,-0.073200,0.883280,-6.300000,-1.680000,1.260000
50.381217,-0.157136,0.241560,1.235128,3.500000,6.440000,-1.260000
50.385283,0.081984,0.066368,1.012112,3.920000,-2.520000,-3.360000
50.389349,0.045384,-0.209352,0.749568,-4.620000,-5.320000,-0.140000
50.393415,-0.145424,0.020496,1.169736,-0.980000,1.820000,0.980000
50.397482,0.029280,0.202032,1.240496,-0.280000,2.240000,-0.700000
50.401548,-0.034648,-0.065880,0.748104,1.400000,-0.140000,-1.960000
50.405614,-0.030256,-0.037576,1.077504,-0.420000,1.260000,-1.120000
50.409680,-0.007808,0.182512,1.177056,-0.700000,-0.280000,-1.680000
50.413746,-0.026352,-0.059536,0.614880,-0.140000,-3.920000,0.280000
50.417812,-0.068320,-0.106872,0.979904,-1.680000,1.680000,1.120000
50.421878,-0.007808,0.255712,1.339560,1.960000,7.280000,-1.540000
50.425944,0.002440,0.028792,1.042856,1.540000,-5.460000,-2.240000
50.430010,-0.111752,-0.304512,0.854000,-4.900000,-5.320000,0.420000
50.434077,-0.037088,0.114680,0.986248,-1.260000,4.060000,-0.140000
50.438143,0.056608,0.330376,1.193160,2.520000,3.080000,-2.520000
50.442209,-0.029768,-0.176656,0.971608,-0.980000,-2.940000,-1.260000
50.446275,-0.063928,-0.037088,0.836432,-2.660000,0.980000,0.000000
50.450341,-0.026352,0.079544,0.959896,-2.240000,-1.120000,0.700000
50.454407,-0.032208,-0.033672,1.074088,-0.280000,-4.900000,0.980000
50.458473,-0.006832,0.008784,1.133136,-0.140000,3.360000,-0.420000
50.462539,-0.034648,0.246440,1.025288,-0.140000,3.220000,-1.820000
50.466605,-0.029280,-0.107360,0.992592,-2.240000,-7.000000,-0.840000
50.470672,-0.123464,-0.240584,0.698816,-1.960000,-2.940000,1.680000
50.474738,0.055144,0.306952,1.146312,0.000000,5.880000,0.140000
50.478804,0.124928,0.104432,1.395680,-1.260000,0.840000,-1.960000
50.482870,-0.112240,-0.201056,0.881328,-1.820000,-1.400000,-0.420000
50.486936,-0.181048,-0.021472,0.686128,1.120000,1.260000,-0.560000
50.491002,0.145912,0.124440,1.185352,-0.980000,-0.840000,-1.960000
50.495068,0.005856,0.078568,1.271240,-2.240000,0.420000,-1.820000
50.499134,-0.165920,0.037576,0.684176,0.140000,3.500000,-0.560000
50.503200,-0.012688,0.007320,0.880352,0.560000,-1.400000,-0.420000
50.507267,0.013176,-0.211792,1.046760,-3.220000,-9.520000,1.400000
50.511333,-0.074176,0.116632,1.208776,-0.700000,0.280000,1.400000
50.515399,0.055632,0.290848,1.066280,1.260000,8.680000,-1.120000
50.519465,-0.076128,-0.092720,1.008208,0.980000,-2.520000,-1.400000
50.523531,-0.135176,-0.211304,0.784216,-0.700000,-4.620000,0.700000
50.527597,0.059048,0.147376,0.924760,-1.540000,3.220000,0.420000
50.531663,0.087840,0.224968,1.340048,-0.140000,-0.140000,-1.260000
50.535729,-0.043920,-0.130296,1.046272,-2.800000,0.000000,-1.120000
50.539795,-0.162016,-0.039040,0.688080,1.820000,2.100000,-1.680000
50.543862,-0.015128,0.022448,1.081408,-0.420000,-2.380000,-1.820000
50.547928,0.082472,-0.081984,1.276120,-6.580000,-5.880000,1.400000
50.551994,-0.081984,0.296704,0.982344,-0.140000,8.120000,0.420000
50.556060,-0.071736,0.115168,0.746640,3.360000,6.580000,-2.100000
50.560126,0.035624,-0.288896,0.945256,-0.700000,-5.740000,-1.680000
50.564192,-0.046360,-0.122000,1.085800,-3.640000,-3.360000,1.260000
50.568258,-0.065880,0.405040,1.140944,0.560000,7.420000,-0.140000
50.572324,0.056120,0.031720,1.159488,0.980000,1.260000,-2.240000
50.576390,-0.153720,-0.281576,0.823744,-1.540000,-4.760000,-0.280000
50.580457,-0.061976,0.102480,1.065792,-1.960000,0.560000,0.420000
50.584523,0.059536,0.143960,0.959408,-2.100000,-1.540000,0.000000
50.588589,0.072712,-0.009272,1.023824,-2.240000,-2.940000,0.700000
50.592655,-0.120048,0.043432,1.000400,0.000000,9.380000,-0.560000
50.596721,-0.026840,0.003416,1.003816,2.240000,1.400000,-2.660000
50.600787,0.026840,-0.090768,1.005768,-3.360000,-10.220000,-0.280000
50.604853,-0.049288,-0.000976,0.986736,-4.620000,2.240000,1.540000
50.608919,-0.111752,0.251320,1.292224,1.260000,7.140000,-1.400000
50.612985,-0.002440,0.063928,0.803736,1.680000,-2.380000,-3.500000
50.617052,0.057584,-0.217648,0.750056,-3.080000,-6.860000,0.280000
50.621118,-0.122976,0.051728,1.205360,-3.640000,0.560000,1.680000
50.625184,0.026840,0.094184,1.234640,0.280000,0.560000,-0.700000
50.629250,0.030256,-0.004880,0.822768,-0.980000,1.400000,-1.400000
50.633316,-0.129320,0.021472,1.099464,-1.120000,5.600000,-1.260000
50.637382,-0.032208,0.039528,1.288808,-0.420000,-1.680000,-1.680000
50.641448,0.024400,-0.044408,0.526064,-1.960000,-4.200000,-0.700000
50.645514,-0.044896,0.125416,0.781288,-1.680000,4.620000,0.560000
50.649580,0.010248,0.120536,1.599664,3.780000,5.880000,-1.260000
50.653647,-0.070760,-0.112240,0.929640,-2.800000,-4.900000,-0.280000
50.657713,-0.094672,-0.106872,0.495320,-3.640000,-5.320000,1.680000
50.661779,0.008784,0.087352,1.346880,-0.140000,5.320000,-0.140000
50.665845,-0.032696,0.123952,1.452776,-0.840000,0.000000,-1.260000
50.669911,0.049288,0.103944,0.678320,-1.820000,-0.420000,-0.840000
50.673977,-0.071248,-0.012200,0.588040,-0.560000,4.060000,-0.980000
50.678043,-0.045384,-0.202520,1.435208,-1.260000,-5.740000,-0.980000
50.682109,0.082960,0.037576,1.101416,-3.360000,-6.300000,-0.280000
50.686175,-0.034160,0.277184,0.812520,-0.420000,7.980000,-1.260000
50.690242,-0.107360,0.063440,1.236592,1.260000,3.500000,-2.940000
50.694308,-0.058072,-0.286456,0.923296,-1.400000,-7.140000,-1.260000
50.698374,-0.046360,0.061488,0.610976,-3.780000,-2.240000,1.400000
50.702440,0.127368,0.310856,1.120448,-1.820000,6.020000,-0.140000
50.706506,-0.018544,-0.095648,1.419104,-0.420000,0.840000,-1.120000
50.710572,-0.183000,-0.148840,0.743224,0.560000,-0.700000,-1.260000
50.714638,-0.038064,0.085888,0.859856,-0.140000,1.820000,-1.120000
50.718704,0.044408,0.022448,1.341512,-3.500000,-4.620000,-0.140000
50.722770,-0.002440,0.087352,1.171688,-4.060000,-1.540000,0.980000
50.726837,-0.112240,0.168360,0.627568,1.680000,10.080000,-1.260000
50.730903,0.047336,-0.066856,0.909632,-0.700000,-2.100000,-2.100000
50.734969,0.026840,-0.216184,1.200480,-5.180000,-11.340000,0.140000
50.739035,-0.087352,0.070760,0.975024,-1.540000,3.220000,1.260000
50.743101,-0.052704,0.304512,1.125816,1.960000,7.840000,-1.540000
50.747167,-0.011224,-0.109312,0.974536,-0.140000,-2.660000,-2.100000
50.751233,-0.036600,-0.137616,0.895480,-2.240000,-3.500000,-0.280000
50.755299,-0.074176,0.152744,1.033584,-1.680000,1.540000,0.280000
50.759365,0.094672,0.094672,1.052616,-0.280000,-1.820000,-1.120000
50.763432,0.027328,-0.093208,0.916952,-2.520000,0.980000,-0.840000
50.767498,-0.225456,0.035624,1.127280,1.260000,4.340000,-1.820000
50.771564,-0.017568,0.047824,1.225856,-1.260000,-4.060000,-0.840000
50.775630,0.099064,-0.087352,0.599264,-7.000000,-7.700000,1.680000
50.779696,-0.074176,0.141520,1.064328,-0.560000,8.120000,0.140000
50.783762,0.007320,0.179584,1.293200,4.900000,8.120000,-4.200000
50.787828,0.015128,-0.135176,0.825208,-1.260000,-6.300000,-2.660000
50.791894,-0.128344,-0.105896,0.684176,-5.600000,-3.780000,0.980000
50.795960,-0.089304,0.054656,1.292224,0.700000,3.360000,0.700000
50.800027,-0.016592,0.118584,1.339072,1.260000,-3.920000,-0.700000
50.804093,0.076128,0.104920,0.713944,-2.660000,-1.960000,0.420000
50.808159,-0.062464,-0.022448,0.866688,-2.240000,4.060000,-0.280000
50.812225,-0.126880,-0.088328,1.184376,0.980000,-3.360000,-1.820000
50.816291,0.139080,-0.023912,0.885232,-3.500000,-4.620000,-0.420000
50.820357,-0.010736,0.221064,1.023336,-1.400000,5.040000,-0.280000
50.824423,-0.136152,0.077592,1.353712,2.660000,1.120000,-3.220000
50.828489,-0.081008,-0.242048,0.738832,-2.100000,-9.660000,-1.680000
50.832555,0.065880,0.003904,0.616344,-3.360000,-3.360000,0.560000
50.836622,0.049776,0.283040,1.403000,-0.840000,8.400000,-1.400000
50.840688,-0.079544,0.010736,1.241472,2.660000,1.400000,-3.360000
50.844754,-0.115656,-0.183000,0.515328,-0.280000,-3.500000,-0.700000
50.848820,-0.026840,0.002928,1.026752,-3.080000,-0.420000,0.700000
50.852886,-0.020984,0.131272,1.472784,-0.980000,-1.680000,-0.280000
50.856952,0.091256,0.054656,0.908168,-0.560000,-1.960000,-0.420000
50.861018,-0.126880,0.114680,0.590968,0.280000,6.440000,-1.120000
50.865084,-0.043432,-0.122000,1.191208,1.960000,-1.820000,-1.260000
50.869150,0.031720,-0.148352,1.073600,-3.780000,-10.080000,1.120000
50.873217,-0.006344,0.214232,0.848144,-2.800000,3.920000,0.980000
50.877283,-0.022448,0.217160,1.250744,1.400000,7.700000,-1.540000
50.881349,-0.120048,-0.196664,0.989664,1.540000,-3.080000,-2.660000
50.885415,-0.070272,-0.107360,0.639768,-2.100000,-4.620000,0.280000
50.889481,0.109312,0.224480,1.066768,-1.400000,2.940000,0.280000
50.893547,0.009272,0.101504,1.459608,0.280000,-1.120000,-0.560000
50.897613,-0.117120,-0.143472,0.739808,1.400000,-1.120000,-1.120000
50.901679,-0.042944,-0.009272,0.785680,1.680000,1.820000,-1.960000
50.905745,0.000976,0.018544,1.314672,-1.960000,-2.940000,-1.120000
50.909812,0.015128,0.122000,1.128256,-4.620000,-0.980000,1.400000
50.913878,-0.081496,0.149328,0.629520,1.680000,9.520000,-0.140000
50.917944,-0.006832,-0.074176,0.970632,3.640000,0.560000,-2.240000
50.922010,0.004880,-0.169824,1.263920,-2.940000,-9.100000,-0.420000
50.926076,-0.055632,0.032696,0.779336,-3.920000,-0.420000,1.400000
50.930142,-0.075152,0.311344,1.172176,1.540000,6.860000,-1.260000
50.934208,0.012688,-0.116144,1.133136,1.260000,-2.800000,-2.380000
50.938274,-0.096624,-0.058072,0.757864,-1.540000,-0.700000,0.140000
50.942340,-0.005856,0.123952,0.891576,-2.240000,1.820000,0.700000
50.946407,0.065392,0.001952,1.199504,-2.100000,-3.920000,0.840000
50.950473,-0.012688,-0.057096,0.973072,-0.840000,-0.280000,0.280000
50.954539,-0.129320,0.099064,0.941840,1.260000,7.000000,-1.680000
50.958605,-0.019520,0.045872,1.168272,0.980000,-4.340000,-1.680000
50.962671,0.009760,-0.157624,0.948184,-5.040000,-9.940000,1.120000
50.966737,-0.043432,0.174704,0.830088,-2.520000,5.600000,0.840000
50.970803,0.040016,0.214720,1.089704,5.180000,8.260000,-3.640000
50.974869,-0.028792,-0.189832,0.976976,-0.560000,-3.080000,-2.660000
50.978936,-0.066856,-0.102968,0.970144,-4.620000,-3.220000,0.840000
50.983002,-0.083936,0.154696,0.961360,-2.100000,3.220000,0.140000
50.987068,-0.033672,0.038552,1.090680,1.260000,-0.840000,-1.960000
50.991134,0.040504,-0.015128,1.113616,-1.540000,-0.560000,-0.560000
50.995200,-0.058072,0.168360,0.964776,-1.120000,4.200000,-0.560000
50.999266,-0.048800,-0.065392,0.843264,-0.700000,-3.920000,-1.400000
51.003332,0.025376,-0.225944,0.839848,-2.240000,-6.160000,0.560000
51.007398,-0.045384,0.225456,1.278072,-0.560000,7.280000,0.140000
51.011464,-0.019520,0.218624,1.271728,1.680000,2.940000,-1.820000
51.015531,-0.086376,-0.190320,0.691008,-1.820000,-5.880000,-0.420000
51.019597,-0.087840,-0.135664,0.739808,-3.360000,-0.420000,1.260000
51.023663,0.058072,0.304512,1.301984,-1.260000,2.660000,0.000000
51.027729,0.087840,0.117608,1.014552,-0.140000,-0.280000,-1.400000
51.031795,-0.090768,-0.218624,0.710040,-1.400000,1.260000,-1.120000
51.035861,-0.154696,-0.015128,1.191208,0.980000,0.420000,-1.820000
51.039927,0.016592,0.052704,1.206824,-0.980000,-5.740000,-0.980000
51.043993,0.039040,0.094672,0.817400,-5.460000,-1.680000,0.840000
51.048059,-0.101504,0.163968,1.035536,-0.140000,9.660000,-0.700000
51.052126,-0.039528,-0.040016,1.137040,0.980000,-1.120000,-2.100000
51.056192,0.000976,-0.192760,0.663680,-3.360000,-8.960000,0.420000
51.060258,0.019520,0.048312,0.973560,-3.080000,1.260000,0.840000
51.064324,-0.026840,0.250832,1.603080,-0.560000,6.160000,-1.680000
51.068390,-0.065392,-0.029768,0.859856,-0.420000,-3.500000,-2.380000
51.072456,-0.076128,-0.082472,0.426024,-0.560000,0.140000,-1.400000
51.076522,-0.031232,0.009272,1.259528,-1.540000,-0.420000,-1.260000
51.080588,0.026840,0.139568,1.341512,-2.660000,-3.780000,0.000000
51.084654,-0.010736,0.064904,0.631960,-2.380000,2.800000,0.700000
51.088721,-0.173240,-0.065880,1.012112,0.140000,5.880000,-1.400000
51.092787,-0.013176,-0.100040,1.448384,0.140000,-7.140000,-1.680000
51.096853,0.044408,0.078080,0.795440,-4.760000,-5.460000,1.960000
51.100919,-0.056120,0.215208,0.683688,-0.980000,5.880000,0.280000
51.104985,-0.022448,0.021472,1.298568,4.200000,2.240000,-3.640000
51.109051,0.058560,-0.169824,1.030168,-1.680000,-8.120000,-2.660000
51.113117,-0.131272,0.096624,0.667096,-4.620000,0.000000,0.980000
51.117183,0.005856,0.066368,1.210728,-2.100000,3.780000,0.000000
51.121249,-0.045872,-0.069784,1.251720,-1.120000,-1.960000,-1.260000
51.125316,-0.081984,0.131760,0.776408,0.980000,1.540000,-1.120000
51.129382,0.002928,0.129808,0.839360,0.700000,4.200000,-1.540000
51.133448,-0.012688,-0.191296,1.196088,-3.500000,-7.140000,-0.420000
51.137514,-0.024400,-0.006344,1.077016,-2.240000,-2.940000,0.420000
51.141580,-0.047824,0.241560,0.936960,1.260000,8.960000,-1.820000
51.145646,-0.078568,-0.004880,1.297592,1.960000,-1.260000,-2.800000
51.149712,-0.026352,-0.205936,0.864248,-5.040000,-10.080000,1.120000
51.153778,-0.000976,0.147376,0.711992,-3.920000,3.080000,2.100000
51.157844,-0.046848,0.241072,1.114104,5.040000,7.420000,-1.960000
51.161911,0.025376,-0.175680,1.237568,-0.280000,-6.300000,-1.680000
51.165977,-0.068808,-0.060512,0.819352,-3.920000,-2.520000,1.400000
51.170043,-0.123952,0.186904,0.924760,0.000000,4.200000,0.420000
51.174109,-0.001952,-0.082960,1.207312,0.560000,-2.800000,-1.820000
51.178175,0.067344,0.056608,1.093608,-0.700000,-1.820000,-1.960000
51.182241,-0.013664,0.214232,0.857904,-1.960000,6.440000,-1.820000
51.186307,-0.127368,-0.071736,0.922320,1.820000,-2.240000,-2.520000
51.190373,-0.011712,-0.283528,0.949648,-2.940000,-8.120000,0.700000
51.194439,0.000488,0.223992,1.122888,-3.500000,3.220000,0.980000
51.198506,-0.037088,0.305000,1.262456,1.540000,4.060000,-1.400000
51.202572,-0.063928,-0.204472,0.872544,-0.560000,-5.740000,-1.260000
51.206638,-0.080520,-0.169824,0.548512,-3.080000,-1.820000,0.840000
51.210704,0.056608,0.329400,1.260016,0.980000,4.200000,-0.280000
51.214770,0.047824,0.067832,1.293200,1.120000,-0.140000,-2.100000
51.218836,-0.117120,-0.231312,0.834968,-1.260000,-1.960000,-1.120000
51.222902,-0.158600,0.102968,0.915488,1.260000,2.240000,-0.840000
51.226968,0.034648,0.080520,1.207312,0.280000,-2.240000,-0.280000
51.231034,0.062952,-0.073688,1.068720,-3.640000,-4.340000,0.700000
51.235101,-0.041968,0.215696,0.824720,-0.700000,6.300000,-0.420000
51.239167,-0.052704,0.045384,0.986736,2.100000,1.540000,-1.540000
51.243233,-0.056120,-0.291824,0.944280,-0.700000,-9.660000,-0.280000
51.247299,0.003904,0.052216,1.069208,-3.920000,-2.520000,0.140000
51.251365,0.009272,0.421632,1.185840,0.700000,10.080000,-2.100000
51.255431,-0.073200,-0.061976,1.079944,0.140000,-1.680000,-1.820000
51.259497,-0.174704,-0.272792,0.605608,-1.960000,-2.940000,0.420000
51.263563,0.090768,0.122000,1.025776,-2.380000,2.940000,0.700000
51.267629,0.105408,0.193248,1.463512,-2.800000,-0.980000,-0.420000
51.271696,-0.078568,-0.078568,1.050176,-0.420000,0.140000,-1.260000
51.275762,-0.158600,-0.044408,0.635376,2.380000,1.260000,-2.100000
51.279828,-0.007320,0.094184,1.055544,-0.840000,-2.100000,-1.820000
51.283894,0.081496,-0.005368,1.297104,-4.480000,-6.720000,0.700000
51.287960,-0.057584,0.124928,0.785680,-1.680000,5.180000,0.280000
51.292026,-0.138104,0.082472,0.878400,4.060000,7.840000,-2.240000
51.296092,0.006832,-0.178608,1.218536,-0.140000,-8.260000,-0.700000
51.300158,-0.036600,-0.054656,1.071160,-4.900000,-6.160000,2.380000
51.304224,-0.076616,0.288408,0.940376,-0.840000,4.900000,1.120000
51.308291,0.085888,0.124440,1.177544,1.680000,0.700000,-1.820000
51.312357,-0.026352,-0.266936,0.874496,-0.140000,-4.060000,-0.700000
51.316423,-0.101992,0.033184,0.822280,-0.280000,1.540000,-0.280000
51.320489,0.092720,0.202520,1.254160,-2.100000,0.840000,-1.400000
51.324555,-0.010248,-0.027816,1.159488,-2.660000,-0.840000,-0.840000
51.328621,-0.222528,-0.022936,0.728096,0.000000,3.220000,-1.120000
51.332687,-0.047824,0.096624,0.946232,-0.140000,1.400000,-1.400000
51.336753,0.095648,-0.038064,1.163392,-2.660000,-9.520000,0.560000
51.340819,-0.003904,0.012688,1.041392,-5.180000,0.140000,2.240000
51.344886,-0.129808,0.184464,0.958432,3.500000,7.700000,-1.120000
51.348952,0.001464,-0.106384,1.095072,4.620000,-3.220000,-3.640000
51.353018,0.021472,-0.179584,1.112640,-5.740000,-9.380000,-0.280000
51.357084,-0.039528,0.249856,0.932080,-2.380000,5.180000,0.560000
51.361150,-0.035624,0.231312,1.051640,2.940000,6.440000,-1.960000
51.365216,-0.021472,-0.236192,0.851560,0.560000,-3.080000,-1.680000
51.369282,-0.046848,-0.067344,0.958432,-1.960000,-2.520000,0.980000
51.373348,-0.045872,0.239120,1.141920,-0.840000,0.980000,0.000000
51.377414,0.006832,-0.004880,1.187792,-1.540000,-2.240000,-0.980000
51.381481,-0.039040,-0.124440,0.875960,-1.400000,0.420000,-0.420000
51.385547,-0.068808,0.251808,0.973560,1.820000,9.520000,-2.100000
51.389613,-0.015128,-0.051240,1.095560,1.400000,-3.780000,-1.960000
51.393679,0.046848,-0.177632,0.892064,-3.640000,-6.020000,1.120000
51.397745,-0.013664,0.155672,1.023824,-0.840000,6.720000,0.140000
51.401811,-0.114680,0.200080,1.211704,4.200000,5.740000,-3.640000
51.405877,0.019520,-0.230336,0.981856,0.000000,-7.280000,-2.100000
51.409943,-0.093696,-0.026352,0.808128,-6.440000,-1.820000,1.960000
51.414009,-0.008784,0.328912,1.104344,0.700000,7.140000,-0.700000
51.418076,0.014152,-0.059536,1.079456,2.380000,1.120000,-3.080000
51.422142,-0.047336,-0.130784,0.914024,-0.280000,-2.100000,-1.960000
51.426208,-0.009272,0.146400,1.057984,-1.820000,4.200000,-0.840000
51.430274,-0.076616,-0.042944,1.058472,-0.980000,-3.360000,-0.560000
51.434340,-0.081984,-0.094184,0.917928,-0.420000,-1.960000,0.000000
51.438406,0.044896,0.165432,1.103856,0.280000,5.880000,-0.420000
51.442472,-0.033672,0.209840,1.213656,0.140000,2.100000,-2.240000
51.446538,-0.096136,-0.222040,0.780312,-1.540000,-6.860000,-0.700000
51.450604,0.057096,-0.044408,0.678320,-3.640000,0.280000,0.980000
51.454671,-0.026352,0.302560,1.197552,0.840000,8.820000,-1.820000
51.458737,-0.017568,-0.012200,1.257088,2.940000,-2.100000,-3.220000
51.462803,-0.059536,-0.229848,0.715896,-2.100000,-4.200000,-1.260000
51.466869,-0.107848,0.077592,0.911096,-2.660000,2.240000,0.280000
51.470935,0.004880,0.082472,1.363472,1.260000,-1.120000,-1.540000
51.475001,0.005368,-0.028304,1.125328,-0.700000,-1.260000,-1.820000
51.479067,-0.052216,0.205448,0.786168,-0.840000,6.020000,-1.820000
51.483133,-0.047824,-0.051728,0.996008,-0.700000,-3.780000,-0.560000
51.487199,-0.063440,-0.173728,0.817400,-1.540000,-4.620000,-0.140000
51.491266,0.049776,0.144936,0.917928,-0.980000,3.080000,0.280000
51.495332,0.050752,0.266936,1.391776,3.080000,2.940000,-1.540000
51.499398,-0.115656,-0.255712,0.932080,0.140000,-4.200000,-1.120000
51.503464,-0.180072,-0.117120,0.539728,-1.820000,-3.220000,1.120000
51.507530,0.106872,0.150792,1.288320,-0.420000,1.400000,0.280000
51.511596,-0.015616,0.188368,1.514264,-0.980000,1.820000,-0.560000
51.515662,-0.122976,-0.045872,0.558760,0.140000,0.840000,-0.140000
51.519728,-0.048312,0.005368,0.778848,-0.560000,0.700000,0.280000
51.523794,0.038064,-0.104920,1.164368,-0.560000,-5.180000,-0.140000
51.527861,0.049776,0.109312,1.059936,-1.820000,-2.100000,-0.840000
51.531927,-0.028304,0.178120,0.886208,1.680000,6.580000,-2.380000
51.535993,-0.063440,-0.088328,1.122400,-0.280000,-2.100000,-1.680000
51.540059,-0.141032,-0.254248,0.733952,-1.400000,-9.800000,1.680000
51.544125,0.017568,0.139568,0.975512,-1.960000,3.220000,2.380000
51.548191,0.089304,0.173240,1.571848,-0.420000,1.540000,-0.280000
51.552257,-0.074664,0.068808,0.892552,-0.280000,-0.700000,-0.420000
51.556323,-0.142008,-0.118096,0.446520,1.540000,0.700000,0.280000
51.560389,-0.015128,-0.019520,1.051152,-0.560000,-0.560000,0.700000
51.564456,0.126880,0.081008,1.385920,-0.280000,-4.760000,-0.280000
51.568522,-0.016104,0.133224,0.790072,0.420000,2.520000,-0.700000
51.572588,-0.150792,-0.053192,0.923296,3.500000,4.340000,-2.240000
51.576654,-0.043920,-0.215696,1.035536,-2.100000,-8.120000,-0.420000
51.580720,-0.003904,0.058072,0.918416,-2.800000,-3.220000,1.680000
51.584786,-0.022448,0.223992,1.247816,1.260000,6.580000,-0.420000
51.588852,-0.021472,0.066368,1.145336,0.700000,-0.840000,-1.680000
51.592918,-0.081984,-0.156160,0.522648,-0.560000,-3.780000,0.840000
51.596984,-0.109312,-0.040016,0.813008,1.120000,0.560000,1.680000
51.601051,0.160064,0.086864,1.469368,0.280000,-5.040000,-0.140000
51.605117,0.106384,0.130784,0.966728,-1.680000,1.400000,-0.560000
51.609183,-0.239120,0.022936,0.792024,1.820000,6.580000,-1.120000
51.613249,-0.098088,-0.177144,1.027728,1.680000,-4.480000,-1.540000
51.617315,0.083936,-0.122000,0.959896,-5.180000,-10.360000,1.400000
51.621381,-0.037576,0.356728,1.146800,-1.540000,5.880000,0.980000
51.625447,-0.012688,0.146888,1.099464,2.660000,5.040000,-1.400000
51.629513,-0.019520,-0.230336,0.661240,0.840000,-7.280000,-1.400000
51.633579,-0.051728,-0.104432,0.804224,-2.940000,-1.960000,0.560000
51.637646,0.038552,0.114192,1.414224,-0.420000,0.420000,-1.120000
51.641712,-0.019520,0.100528,1.094584,-1.540000,0.420000,-1.540000
51.645778,-0.122976,0.053680,0.748104,-0.140000,4.200000,-0.420000
51.649844,-0.076128,-0.055144,0.954040,0.000000,3.360000,-0.560000
51.653910,-0.000976,-0.125416,1.068232,-0.420000,-9.520000,0.560000
51.657976,0.058560,0.049288,0.822280,-2.940000,0.280000,3.080000
51.662042,0.007320,0.248880,1.301496,-0.140000,8.680000,1.260000
51.666108,-0.133224,-0.038552,0.976976,2.660000,0.840000,-1.540000
51.670174,-0.071736,-0.276208,0.610000,-1.120000,-5.040000,-0.420000
51.674241,0.018544,0.107360,1.162416,-4.900000,-0.560000,0.420000
51.678307,0.053192,0.265960,1.306864,-0.980000,-0.280000,-1.260000
51.682373,-0.021960,-0.035624,0.784704,-0.420000,1.820000,-0.980000
51.686439,-0.155672,-0.129808,0.761280,-0.280000,3.640000,-1.260000
51.690505,0.017568,-0.039528,1.446432,-0.980000,-6.020000,-0.980000
51.694571,0.018056,0.027816,0.829600,-4.620000,-4.900000,1.680000
51.698637,-0.096624,0.212768,0.868640,-1.120000,8.680000,1.120000
51.702703,0.054656,0.014152,1.192184,3.220000,3.360000,-2.240000
51.706769,0.032208,-0.135664,0.872056,-1.260000,-4.340000,-2.800000
51.710836,-0.135664,-0.027328,0.853512,-1.960000,1.120000,-0.420000
51.714902,-0.028304,0.055144,1.334680,-2.100000,-0.420000,-0.140000
51.718968,-0.024888,0.115656,0.988200,-2.240000,-1.120000,0.420000
51.723034,-0.019032,0.079544,0.713944,0.420000,6.440000,0.140000
51.727100,-0.011712,-0.070760,1.240984,0.280000,1.680000,-1.820000
51.731166,-0.013664,-0.118584,1.025288,-4.060000,-8.260000,-0.420000
51.735232,-0.010248,0.052704,0.699792,-2.940000,1.680000,2.100000
51.739298,-0.149816,0.168848,1.263432,1.260000,8.400000,0.140000
51.743364,0.013664,0.002928,1.259528,2.800000,-3.080000,-2.100000
51.747431,0.063928,-0.073200,0.604632,-5.180000,-4.060000,0.280000
51.751497,-0.051728,0.051240,0.950624,-4.200000,3.080000,0.980000
51.755563,-0.099064,-0.065392,1.244888,1.540000,-1.260000,-1.260000
51.759629,-0.014152,0.041480,0.990152,0.700000,-1.820000,-0.420000
51.763695,0.008784,0.245464,0.961360,-2.660000,4.620000,0.140000
51.767761,-0.037088,-0.086376,1.204384,-1.540000,-4.340000,-0.980000
51.771827,-0.122488,-0.226432,0.695400,-2.240000,-7.140000,0.560000
51.775893,0.137128,0.151280,0.759328,-2.240000,5.880000,0.000000
51.779959,0.046848,0.213744,1.637728,-0.420000,5.460000,-1.960000
51.784026,-0.196176,-0.115168,0.979416,-0.700000,1.680000,-2.240000
51.788092,-0.076128,-0.115168,0.593896,-0.280000,-3.080000,-1.120000
51.792158,-0.018056,0.137616,0.993080,-2.240000,-1.260000,-0.140000
51.796224,0.112728,0.002440,1.285392,-2.940000,-3.780000,0.980000
51.800290,-0.083936,0.115656,0.919880,-0.980000,4.480000,0.980000
51.804356,-0.116144,0.077592,0.905728,1.260000,5.460000,-1.960000
51.808422,0.039040,-0.241560,1.069696,-2.800000,-7.840000,-0.560000
51.812488,-0.097600,-0.004392,0.970144,-3.920000,-2.380000,1.820000
51.816554,0.016592,0.310856,1.124840,-1.960000,7.000000,0.280000
51.820621,0.024400,0.061976,1.008696,2.100000,0.420000,-1.960000
51.824687,-0.038064,-0.228872,0.768112,0.140000,-2.800000,-1.260000
51.828753,-0.095160,-0.033184,1.162416,-1.540000,0.140000,-1.260000
51.832819,-0.009272,0.138592,1.149240,-1.120000,-4.760000,-1.820000
51.836885,0.021472,0.066368,0.877424,-3.360000,-0.420000,-0.420000
51.840951,-0.056608,0.076616,1.014552,0.140000,8.540000,-1.540000
51.845017,-0.054168,-0.025864,1.105320,1.120000,-0.420000,-3.080000
51.849083,0.038064,-0.105896,0.777872,-1.820000,-7.700000,-0.420000
51.853149,-0.013176,0.021960,0.977952,-3.640000,3.780000,1.120000
51.857216,-0.123952,0.144936,1.397632,1.820000,4.340000,-2.100000
51.861282,-0.000488,0.013664,0.820328,3.220000,-2.660000,-3.500000
51.865348,0.009272,-0.047824,0.726144,-1.820000,-2.660000,-0.980000
51.869414,-0.054656,0.065880,1.266360,-2.940000,0.000000,-1.120000
51.873480,-0.043432,-0.066856,0.836920,-0.980000,-4.340000,-0.840000
51.877546,-0.062952,0.050752,0.811056,0.000000,3.640000,0.140000
51.881612,0.047336,0.135664,1.545984,-0.280000,4.060000,-1.260000
51.885678,-0.095648,-0.003904,1.046272,-0.840000,-4.620000,-1.540000
51.889744,-0.100040,-0.154208,0.437248,-3.500000,-4.200000,1.400000
51.893811,0.011712,0.054168,1.140944,-1.960000,3.920000,0.000000
51.897877,0.038552,0.175192,1.459120,2.100000,-1.400000,-1.680000
51.901943,0.008784,0.030256,0.764208,-0.140000,-1.820000,-0.840000
51.906009,-0.106384,-0.130296,0.804224,0.140000,1.540000,-1.540000
51.910075,-0.076128,-0.045872,1.283440,-1.120000,-4.060000,-1.820000
51.914141,0.046848,0.093696,0.960384,-2.800000,-3.920000,-0.140000
51.918207,-0.012688,0.151768,0.984296,0.420000,6.860000,-0.280000
51.922273,-0.043920,0.060512,1.246352,-0.420000,3.500000,-1.960000
51.926339,-0.053192,-0.154696,0.679296,-1.260000,-6.300000,-0.420000
51.930406,-0.035624,-0.068320,0.711504,-0.840000,1.400000,0.700000
51.934472,-0.016104,0.171776,1.589904,-0.560000,2.380000,-1.540000
51.938538,0.057584,0.142008,1.148752,-0.280000,-0.560000,-2.380000
51.942604,-0.122488,-0.067832,0.528992,-0.560000,-0.140000,-1.120000
51.946670,-0.174216,-0.103944,0.978440,0.840000,2.800000,-1.540000
51.950736,0.163968,0.026352,1.332240,-2.240000,-5.040000,-0.420000
51.954802,0.027328,0.183488,0.970632,-4.340000,2.520000,1.120000
51.958868,-0.187880,0.082960,0.976488,3.920000,7.840000,-0.560000
51.962934,-0.013176,-0.167872,1.144848,1.960000,-4.760000,-1.820000
51.967001,0.018544,-0.107848,0.800808,-3.500000,-8.820000,0.700000
51.971067,-0.004880,0.175192,1.107760,-1.120000,2.800000,0.840000
51.975133,-0.015128,0.201544,1.298080,1.680000,7.140000,-2.520000
51.979199,-0.012200,-0.056120,0.727120,0.000000,-0.980000,-2.520000
51.983265,-0.084912,-0.109800,0.735904,-1.960000,1.120000,-1.120000
51.987331,-0.083936,0.018544,1.261968,0.980000,-0.700000,-1.540000
51.991397,0.094184,0.137616,1.141920,-2.240000,-3.780000,-1.120000
51.995463,-0.056120,-0.005368,0.895480,-2.940000,2.800000,0.560000
51.999529,-0.223504,0.025864,1.042368,3.360000,5.740000,-1.260000
52.003596,0.071736,-0.105896,1.174128,0.700000,-9.800000,-1.680000
52.007662,0.122976,0.020496,0.805200,-5.740000,-7.140000,1.120000
52.011728,-0.077592,0.250832,1.180472,-1.960000,10.780000,-0.840000
52.015794,-0.085400,0.076128,1.060912,4.480000,4.760000,-3.920000
52.019860,0.004392,-0.269864,0.688568,0.700000,-6.020000,-1.960000
52.023926,-0.086376,-0.058560,1.144360,-3.780000,-3.360000,1.260000
52.027992,-0.016104,0.301584,1.328824,0.700000,2.800000,0.140000
52.032058,-0.002440,-0.002440,0.855464,-0.560000,-3.780000,0.280000
52.036125,-0.060512,-0.032208,0.831064,-1.260000,1.120000,-0.420000
52.040191,0.026840,0.084912,1.067744,-0.840000,5.460000,-3.080000
52.044257,-0.049288,-0.026840,0.999424,-2.940000,-5.320000,-2.100000
52.048323,0.015128,-0.059536,0.915000,-4.200000,-1.680000,0.560000
52.052389,-0.029768,0.154208,1.170712,-0.420000,8.540000,-0.980000
52.056455,-0.100528,0.032696,1.077992,3.920000,-1.820000,-4.340000
52.060521,-0.006344,-0.207888,0.955016,-1.400000,-10.080000,-0.420000
52.064587,0.007808,0.118584,0.967216,-6.720000,2.940000,1.260000
52.068653,-0.086376,0.267912,1.155584,-0.280000,4.200000,-1.260000
52.072720,-0.010736,-0.127368,0.854000,0.980000,-1.540000,-1.960000
52.076786,0.015616,-0.071736,0.890600,-2.940000,2.520000,-0.420000
52.080852,0.000976,0.188368,1.131672,-3.780000,0.280000,0.000000
52.084918,-0.041968,-0.047824,1.020896,-2.240000,-3.080000,-0.140000
52.088984,-0.075152,-0.097600,0.881328,0.140000,3.360000,-0.840000
52.093050,-0.021472,0.194712,1.181936,0.000000,4.480000,-2.520000
52.097116,-0.056120,0.039040,1.166320,-0.420000,-5.040000,-1.960000
52.101182,-0.046848,-0.200080,0.701744,-7.000000,-5.320000,1.960000
52.105248,-0.046848,0.193248,0.891088,-2.800000,6.020000,1.120000
52.109315,0.097600,0.178120,1.268800,1.960000,4.200000,-2.100000
52.113381,-0.056120,-0.235216,0.965752,-0.280000,-2.660000,-1.400000
52.117447,-0.074664,-0.012200,0.823256,-3.080000,-1.260000,0.420000
52.121513,0.013664,0.187880,1.149240,-3.360000,4.480000,-0.700000
52.125579,-0.043432,-0.077592,1.151192,-0.700000,-2.380000,-1.820000
52.129645,-0.134688,0.007808,0.930616,-1.260000,-0.280000,-1.960000
52.133711,0.029768,0.181048,0.972584,-2.660000,-0.280000,-0.700000
52.137777,0.019032,-0.045872,0.922320,-4.760000,-5.180000,-0.420000
52.141843,-0.052704,-0.143960,0.894992,-2.520000,-0.560000,-0.560000
52.145910,0.023424,0.231312,1.088240,0.980000,8.820000,-2.800000
52.149976,0.007320,0.054656,1.247816,0.000000,-2.380000,-2.660000
52.154042,-0.169824,-0.258640,0.817888,-4.620000,-6.160000,0.980000
52.158108,-0.085400,0.024400,0.847656,-1.540000,1.260000,0.840000
52.162174,0.090280,0.313784,1.284416,2.520000,2.240000,-1.960000
52.166240,0.012688,-0.059536,1.106784,-1.400000,-5.320000,-2.100000
52.170306,-0.145912,-0.063440,0.621224,-3.920000,-0.980000,0.420000
52.174372,-0.034648,0.105896,0.813984,-1.540000,3.640000,0.700000
52.178438,0.090768,-0.101016,1.322480,-0.980000,-4.620000,0.420000
52.182505,-0.125904,0.088328,1.086288,-2.100000,0.700000,-0.140000
52.186571,-0.052216,0.116632,0.852536,-0.980000,4.620000,-0.700000
52.190637,-0.020984,-0.074176,1.177056,-3.080000,-6.020000,-0.840000
52.194703,-0.029768,-0.083936,0.937936,-5.320000,-3.360000,-1.400000
52.198769,-0.046360,0.227408,0.874008,0.700000,7.000000,-3.360000
52.202835,0.018544,0.113216,1.167296,1.680000,-2.940000,-3.360000
52.206901,-0.061488,-0.262544,0.958920,-5.600000,-9.660000,0.560000
52.210967,-0.065880,0.021960,0.697840,-4.340000,-0.560000,1.680000
52.215033,-0.036112,0.173728,1.317600,2.100000,6.580000,-2.100000
52.219100,0.025376,-0.069784,1.415200,0.980000,-5.600000,-2.800000
52.223166,-0.106872,0.064416,0.651480,-2.660000,-1.400000,0.420000
52.227232,-0.117120,0.098576,0.715896,0.980000,4.900000,0.000000
52.231298,0.082472,-0.101992,1.369328,0.840000,-5.180000,-1.680000
52.235364,0.035136,0.005368,0.960872,-3.080000,-4.900000,-1.120000
52.239430,-0.126392,0.182512,0.725168,0.980000,5.180000,-0.420000
52.243496,-0.018056,-0.111752,1.361520,-0.140000,0.420000,-1.400000
52.247562,0.013176,-0.080520,0.985272,-3.640000,-4.620000,-0.980000
52.251628,-0.124440,0.163480,0.767136,1.680000,3.360000,-1.820000
52.255695,-0.117608,0.077104,1.312720,3.640000,3.080000,-3.080000
52.259761,0.006832,-0.051728,1.119472,-2.940000,-10.220000,-0.840000
52.263827,0.040016,0.041968,0.432368,-4.900000,-3.780000,1.960000
52.267893,-0.142496,0.086864,1.177056,3.500000,10.080000,-2.520000
52.271959,0.057096,-0.042456,1.291736,3.220000,-4.340000,-3.360000
52.276025,0.056120,-0.055632,0.798856,-4.480000,-5.740000,0.420000
52.280091,-0.171776,0.029280,0.926224,-3.640000,6.020000,1.260000
52.284157,-0.083448,0.140056,1.330288,3.640000,3.360000,-2.660000
52.288223,0.084424,-0.140544,0.951600,0.140000,-7.140000,-2.100000
52.292290,-0.152744,0.034648,0.976488,-2.240000,-0.140000,-0.980000
52.296356,-0.053192,0.244976,1.036024,0.560000,2.100000,-1.260000
52.300422,0.091256,0.017568,1.094096,-1.680000,-3.500000,-1.960000
52.304488,-0.083936,-0.207888,0.704184,-2.660000,-1.540000,-0.140000
52.308554,-0.152256,0.203984,0.888160,3.500000,6.860000,-1.540000
52.312620,0.088328,-0.039040,1.407392,0.140000,-3.500000,-0.140000
52.316686,0.063440,-0.086376,1.082872,-5.740000,-3.220000,0.840000
52.320752,-0.182024,0.124928,0.635376,2.240000,6.720000,-0.280000
52.324818,-0.182024,0.026352,1.260504,5.740000,5.320000,-2.940000
52.328885,0.136640,-0.167872,1.233664,-3.080000,-12.880000,0.140000
52.332951,-0.015616,0.205936,0.865712,-6.300000,1.820000,0.840000
52.337017,-0.177144,0.219600,1.083848,3.640000,9.240000,-2.800000
52.341083,-0.037088,-0.123464,1.040904,2.800000,-2.940000,-3.220000
52.345149,0.023424,-0.111752,0.595848,-4.480000,-6.160000,0.280000
52.349215,-0.073688,0.149328,1.239520,-0.420000,5.040000,-0.140000
52.353281,0.032208,0.148352,1.297592,1.820000,0.840000,-1.960000
52.357347,0.060024,-0.191784,0.767624,-0.140000,-5.460000,-0.280000
52.361413,-0.283528,-0.009272,0.728096,2.100000,4.900000,0.140000
52.365480,0.043920,0.093696,1.449848,2.800000,0.280000,-1.400000
52.369546,0.153720,-0.015616,1.183400,-5.880000,-4.760000,-0.700000
52.373612,-0.221552,0.040504,0.813008,1.260000,3.640000,-0.560000
52.377678,-0.247416,0.132248,0.856928,2.660000,8.680000,-0.700000
52.381744,0.124440,-0.196664,1.281976,-1.400000,-9.240000,1.120000
52.385810,0.009760,0.104920,1.126792,-5.180000,1.540000,0.980000
52.389876,-0.052704,0.291824,0.875960,2.240000,6.580000,-2.240000
52.393942,-0.058072,-0.077104,1.118984,2.100000,2.660000,-3.780000
52.398008,-0.072712,-0.229360,0.644648,-3.920000,-9.240000,0.280000
52.402075,-0.035624,0.224968,0.925736,-0.420000,3.500000,0.700000
52.406141,0.037576,0.153232,1.464488,0.980000,3.360000,-1.260000
52.410207,0.046848,-0.105896,0.994544,-2.380000,-6.300000,-0.420000
52.414273,-0.228384,-0.066856,0.459208,-2.100000,4.340000,1.260000
52.418339,-0.075152,0.023912,1.309792,3.080000,3.500000,-0.700000
52.422405,0.167872,0.017568,1.566968,-2.240000,-4.200000,-1.540000
52.426471,-0.122976,0.081008,0.778360,-2.240000,-0.980000,-0.280000
52.430537,-0.242536,0.008784,0.853024,3.080000,5.040000,0.280000
52.434603,0.033184,0.002440,1.206336,-0.840000,-4.900000,0.700000
52.438670,0.121512,-0.022448,0.950624,-5.180000,-3.360000,0.840000
52.442736,-0.141520,0.224480,1.097512,0.700000,9.660000,-2.100000
52.446802,0.010736,0.071736,0.983320,2.100000,1.540000,-1.820000
52.450868,-0.062952,-0.110776,0.728096,-4.620000,-5.740000,0.560000
52.454934,-0.094672,-0.089304,0.768600,-2.520000,-0.280000,1.540000
52.459000,0.061976,0.231800,1.373232,1.960000,8.120000,-2.380000
52.463066,0.054656,0.040016,1.137528,-0.700000,-4.900000,-2.660000
52.467132,-0.169824,-0.174704,0.827648,-1.400000,-1.400000,-0.700000
52.471198,-0.181536,0.032696,0.791048,-0.980000,5.460000,0.560000
52.475265,0.141520,0.043432,1.473760,-0.560000,-4.060000,-0.700000
52.479331,-0.023424,0.025864,1.232688,-3.220000,-1.260000,-1.680000
52.483397,-0.140544,0.093696,0.678320,-0.140000,4.480000,-0.980000
52.487463,-0.110288,0.035136,0.977952,0.840000,0.980000,-0.560000
52.491529,0.074176,-0.129808,1.116544,-1.120000,-8.820000,-0.140000
52.495595,-0.054168,0.149328,0.917928,2.240000,4.200000,-1.680000
52.499661,-0.054656,0.180560,0.911584,6.160000,4.760000,-1.540000
52.503727,-0.059536,-0.123952,1.207312,3.360000,-6.860000,-0.280000
52.507793,-0.005368,-0.163480,0.684664,-2.380000,-4.760000,1.960000
52.511860,-0.022448,0.178120,1.002352,3.920000,9.660000,-1.540000
52.515926,0.032208,0.084424,1.560136,3.220000,0.560000,-3.640000
52.519992,-0.086376,-0.048312,0.867664,-1.540000,-4.900000,-1.400000
52.524058,-0.151768,-0.049288,0.497760,-1.540000,1.120000,1.400000
52.528124,0.002928,0.072712,1.343464,0.980000,1.960000,-0.840000
52.532190,0.020008,0.137616,1.290272,0.840000,-2.240000,-3.220000
52.536256,-0.044408,-0.015128,0.623664,3.640000,-2.660000,-2.520000
52.540322,-0.140056,0.043920,0.869616,0.700000,5.040000,-0.700000
52.544388,0.043920,-0.053680,1.169736,0.140000,-5.040000,0.140000
52.548455,0.000000,-0.013664,0.894504,0.280000,-1.540000,-0.840000
52.552521,-0.065880,0.029280,1.047248,5.460000,2.520000,-1.120000
52.556587,0.013664,0.131760,1.257576,0.980000,0.140000,-1.960000
52.560653,-0.062952,-0.138592,0.859368,-0.560000,-7.280000,-0.140000
52.564719,-0.121024,-0.011224,0.856440,2.380000,3.220000,-0.980000
52.568785,-0.016592,0.162992,1.223904,5.320000,2.940000,-2.800000
52.572851,-0.069296,0.037576,1.280024,2.520000,-4.760000,-2.240000
52.576917,-0.019520,-0.090768,0.648064,-0.420000,-8.680000,2.240000
52.580983,-0.005368,0.161040,0.825696,-0.420000,9.800000,0.700000
52.585050,-0.011224,0.021472,1.271240,4.900000,-0.420000,-2.800000
52.589116,-0.003904,-0.054656,0.974536,3.920000,-3.080000,-2.800000
52.593182,-0.027816,-0.000976,0.625616,-1.540000,0.280000,0.420000
52.597248,0.001952,0.122488,1.374208,0.280000,0.000000,-0.560000
52.601314,-0.101016,-0.030256,0.938912,2.520000,-3.080000,-2.100000
52.605380,-0.069296,-0.166408,0.728096,4.480000,-1.820000,-1.540000
52.609446,-0.072712,0.137616,1.322968,1.540000,2.940000,-0.700000
52.613512,0.068808,0.110288,1.339072,1.120000,-5.880000,-1.260000
52.617578,-0.089304,-0.070760,0.810080,-0.840000,0.560000,-0.560000
52.621645,-0.093208,0.063440,0.784704,5.040000,3.220000,-1.540000
52.625711,-0.056120,0.117120,1.198528,4.200000,2.940000,-2.660000
52.629777,0.100040,-0.124928,1.080920,0.140000,-10.780000,-0.980000
52.633843,0.056120,0.136152,0.765672,-0.560000,3.920000,-0.840000
52.637909,-0.174216,0.163968,0.942816,3.360000,8.540000,-2.800000
52.641975,-0.135176,-0.166408,1.063840,8.540000,-6.300000,-2.660000
52.646041,0.090280,-0.182512,0.747616,-3.500000,-5.880000,1.260000
52.650107,0.099552,0.223016,1.373720,1.400000,0.560000,0.560000
52.654173,-0.136640,0.208864,1.189256,5.180000,6.440000,-3.360000
52.658240,-0.068320,-0.234728,0.575840,-1.120000,-5.600000,-0.700000
52.662306,-0.052216,-0.061488,0.902800,-2.940000,1.120000,1.260000
52.666372,0.005368,0.208376,1.371768,-2.380000,4.760000,-1.680000
52.670438,0.025376,-0.028792,1.253184,-1.960000,-6.440000,-2.800000
52.674504,-0.088328,-0.020984,0.679784,-2.800000,-1.400000,-0.140000
52.678570,-0.224968,0.164944,0.888160,0.000000,7.420000,-0.280000
52.682636,0.059048,-0.126880,1.378600,1.400000,-8.540000,-2.660000
52.686702,0.123464,-0.001952,1.056520,-6.020000,-5.600000,-1.540000
52.690768,-0.186904,0.199104,0.782264,-1.680000,7.000000,-1.400000
52.694835,-0.062464,0.121512,1.179496,3.360000,-0.840000,-0.980000
52.698901,0.100040,-0.145912,0.727608,-6.720000,-5.320000,0.000000
52.702967,-0.071248,-0.050264,0.899384,-4.620000,1.120000,0.280000
52.707033,-0.122000,0.220576,1.149240,6.580000,7.560000,-3.780000
52.711099,0.091744,-0.035624,1.218536,0.980000,-8.540000,-1.960000
52.715165,0.038064,-0.172264,0.821792,-7.000000,-4.200000,1.540000
52.719231,-0.214232,0.198128,0.703208,0.980000,7.980000,0.000000
52.723297,-0.036600,0.001464,1.387384,5.460000,2.240000,-2.380000
52.727363,0.098088,-0.165920,1.082872,-5.320000,-6.440000,0.000000
52.731430,-0.045384,0.077104,0.804712,-4.060000,-0.140000,0.560000
52.735496,-0.121024,0.174216,1.238056,1.960000,8.960000,-1.680000
52.739562,-0.091256,-0.023912,1.016504,0.280000,-2.660000,-1.540000
52.743628,-0.019520,-0.248880,0.783728,-1.120000,-8.540000,0.700000
52.747694,-0.075640,0.196664,1.202432,-0.560000,5.740000,0.420000
52.751760,0.104432,0.165432,1.379576,-0.560000,-0.560000,-1.820000
52.755826,-0.073688,-0.072224,0.957456,-2.380000,-3.780000,-1.120000
52.759892,-0.258152,-0.023424,0.444080,1.120000,7.560000,0.140000
52.763958,-0.027328,0.065392,1.254160,1.260000,0.700000,0.700000
52.768025,0.167384,0.035136,1.607960,-2.100000,-7.420000,-0.280000
52.772091,-0.115168,0.053680,0.510936,-3.080000,2.520000,-0.420000
52.776157,-0.166896,0.036112,0.829600,1.820000,3.640000,0.280000
52.780223,0.045872,0.041480,1.284904,2.100000,-0.840000,-0.140000
52.784289,0.031720,-0.072712,0.972096,2.380000,-3.360000,-1.680000
52.788355,-0.003416,-0.053192,0.884256,2.940000,-1.960000,-0.420000
52.792421,-0.104920,0.308904,1.066280,7.420000,3.640000,-0.980000
52.796487,-0.046360,-0.083936,0.946720,2.660000,-1.960000,0.000000
52.800553,-0.006344,-0.207888,0.768112,0.560000,-2.520000,1.540000
52.804620,-0.017568,0.159576,1.048712,4.340000,7.700000,-0.560000
52.808686,-0.081496,0.095160,1.461560,6.160000,-1.820000,-2.660000
52.812752,0.033672,-0.157624,0.796904,-0.700000,-2.380000,0.560000
52.816818,-0.036600,0.056608,0.741272,-0.560000,2.940000,2.100000
52.820884,-0.172264,0.111264,1.404464,8.260000,3.780000,-3.360000
52.824950,0.030256,-0.110288,1.129720,3.500000,-7.280000,-2.380000
52.829016,-0.022936,-0.026352,0.774944,-2.520000,-3.220000,1.120000
52.833082,-0.099552,0.241072,1.283440,1.120000,4.480000,0.280000
52.837148,-0.110288,0.016104,1.013576,4.900000,1.680000,-1.400000
52.841215,-0.065392,-0.191296,0.808616,-0.140000,-5.880000,0.280000
52.845281,-0.023912,0.155672,1.150216,2.100000,4.480000,0.700000
52.849347,-0.019520,0.193736,1.218048,4.480000,2.100000,-0.980000
52.853413,0.089792,-0.153720,1.008696,1.400000,-7.420000,0.280000
52.857479,-0.160552,0.103456,0.531432,3.080000,6.720000,0.420000
52.861545,-0.125416,0.086376,1.040904,8.400000,2.520000,-1.120000
52.865611,0.137128,-0.160064,1.360056,-0.980000,-8.820000,1.540000
52.869677,0.075152,0.153232,0.698816,-3.080000,1.820000,1.680000
52.873743,-0.212280,0.136152,1.007720,7.420000,10.920000,-0.980000
52.877810,-0.159088,-0.196664,1.054080,6.020000,-0.420000,-1.120000
52.881876,0.148352,-0.127856,0.927200,-3.220000,-11.340000,2.380000
52.885942,-0.061000,0.219600,1.254648,1.960000,6.720000,0.000000
52.890008,-0.149328,0.122488,1.256112,5.880000,3.500000,-2.660000
52.894074,0.044408,-0.138104,0.695888,-0.280000,-11.340000,0.280000
52.898140,-0.237168,-0.009272,0.886208,-1.680000,5.600000,1.260000
52.902206,0.030256,0.211792,1.279536,2.240000,0.980000,-0.700000
52.906272,0.138592,0.051240,1.136552,-2.240000,-4.340000,-0.700000
52.910338,-0.204960,-0.025864,0.691496,-3.920000,0.980000,1.680000
52.914404,-0.181048,0.096136,0.762744,5.460000,5.600000,0.420000
52.918471,0.127368,-0.100528,1.257576,-2.660000,-6.440000,0.840000
52.922537,0.128832,-0.054168,1.302472,-4.060000,-6.580000,0.280000
52.926603,-0.157136,0.254736,0.728096,2.100000,9.100000,-1.540000
52.930669,-0.112240,-0.060512,0.993080,3.220000,-0.140000,-2.100000
52.934735,-0.027328,-0.210816,1.092632,-4.620000,-7.420000,-0.280000
52.938801,-0.007320,0.205448,0.926224,-2.940000,1.960000,0.980000
52.942867,-0.110776,0.191296,1.275632,2.240000,6.860000,-2.100000
52.946933,-0.035624,-0.143472,0.944768,-2.380000,-10.500000,0.700000
52.950999,-0.074664,0.031720,0.553880,-6.160000,0.280000,3.220000
52.955066,-0.032696,0.071736,0.995520,-0.980000,6.440000,1.120000
52.959132,0.089304,0.061000,1.514264,0.980000,-1.820000,-2.240000
52.963198,0.038064,-0.008296,0.668072,-4.760000,-3.640000,-0.280000
52.967264,-0.196176,0.008784,0.762256,-0.420000,5.180000,0.140000
52.971330,-0.040992,-0.016104,1.264408,0.420000,-0.700000,-1.680000
52.975396,0.143472,-0.040504,1.138504,-4.200000,-7.140000,-1.540000
52.979462,-0.201544,0.088328,0.854976,-1.960000,2.940000,-0.980000
52.983528,-0.136152,0.088816,1.130208,1.260000,0.840000,-0.840000
52.987594,0.047336,0.002440,0.861808,-6.720000,-5.460000,0.980000
52.991661,-0.040016,-0.036600,0.839848,-3.360000,-1.120000,0.980000
52.995727,-0.056120,0.192272,1.156560,2.240000,7.280000,-1.680000
52.999793,0.041480,0.033184,1.023824,1.120000,-5.320000,-1.540000
53.003859,0.010248,-0.177144,0.917928,-5.600000,-5.740000,1.540000
53.007925,-0.146888,0.047824,0.810080,-0.700000,6.580000,0.000000
53.011991,-0.038552,0.187392,1.341024,3.500000,3.360000,-2.800000
53.016057,0.023424,-0.183488,1.154120,-3.500000,-7.420000,-0.700000
53.020123,-0.126880,0.081496,0.740784,-5.320000,1.120000,1.820000
53.024189,-0.094184,0.232288,0.770552,0.560000,5.880000,-0.280000
53.028256,0.094672,-0.140056,1.252696,0.140000,-5.180000,-2.380000
53.032322,-0.045872,0.001952,0.889136,-1.120000,-0.140000,-1.820000
53.036388,-0.087352,0.203496,0.733464,1.400000,2.240000,-1.120000
53.040454,-0.049288,-0.070272,1.285392,-1.820000,-2.380000,-0.280000
53.044520,0.048800,-0.125416,0.983808,-3.500000,-4.480000,0.420000
53.048586,-0.115168,0.150304,0.805688,0.840000,7.280000,-1.260000
53.052652,-0.119560,-0.008296,1.365424,3.780000,-0.980000,-2.380000
53.056718,0.051728,-0.021472,1.021872,-5.880000,-6.860000,1.120000
53.060784,-0.071248,0.128344,0.459208,-3.640000,4.760000,1.820000
53.064851,-0.164456,0.146400,1.334680,4.900000,7.980000,-3.220000
53.068917,0.076616,-0.120048,1.104832,0.420000,-7.700000,-2.940000
53.072983,0.060024,0.056608,0.637328,-6.020000,-4.900000,0.280000
53.077049,-0.193248,0.016104,0.988200,-1.120000,4.480000,-0.560000
53.081115,-0.003904,0.074664,1.320528,2.940000,0.140000,-3.220000
53.085181,0.051240,-0.123464,0.704184,-2.240000,-5.460000,-0.700000
53.089247,-0.226432,0.035624,1.044320,-0.840000,4.200000,0.700000
53.093313,-0.032696,0.100528,1.256112,0.000000,-1.400000,0.840000
53.097379,0.105896,0.053192,0.815936,-3.640000,-2.660000,1.400000
53.101446,-0.162992,-0.067344,0.866200,1.120000,3.080000,0.140000
53.105512,-0.116632,0.185440,1.037488,3.920000,7.140000,-2.940000
53.109578,0.164944,-0.022448,0.999424,-2.240000,-10.920000,-0.420000
53.113644,-0.030256,-0.037088,0.952576,-6.580000,1.120000,0.420000
53.117710,-0.174704,0.163480,0.772504,2.100000,8.540000,-1.960000
53.121776,-0.053680,-0.043920,1.098976,3.920000,-2.800000,-3.220000
53.125842,0.079544,-0.279136,1.141920,-4.340000,-11.200000,0.840000
53.129908,-0.109312,0.305976,0.944280,-3.920000,7.000000,0.840000
53.133974,-0.071736,0.107848,1.213168,2.800000,3.220000,-1.820000
53.138041,-0.083448,-0.239120,1.012112,2.100000,-4.760000,-1.400000
53.142107,-0.064904,0.106872,0.548512,-2.240000,-1.820000,0.980000
53.146173,-0.024888,0.200568,1.239032,2.380000,0.980000,-1.120000
53.150239,0.073688,-0.040016,1.176568,-2.660000,-2.380000,-0.560000
53.154305,-0.098088,0.044408,0.467016,1.120000,0.420000,0.140000
53.158371,-0.199104,-0.019032,0.955016,3.640000,6.580000,-1.120000
53.162437,0.076128,-0.107848,1.355664,-0.560000,-7.700000,0.140000
53.166503,0.136152,0.058560,0.794464,-6.160000,-4.480000,1.540000
53.170569,-0.189344,0.150304,1.179984,1.680000,9.660000,-1.260000
53.174636,-0.187392,-0.016104,0.960384,5.180000,0.560000,-3.640000
53.178702,0.089792,-0.222040,0.818864,-1.260000,-12.180000,0.000000
53.182768,-0.166408,0.168848,1.190232,-5.880000,4.200000,0.840000
53.186834,0.052216,0.259128,1.215608,3.220000,1.680000,-2.100000
53.190900,-0.020984,-0.090280,0.690032,-2.100000,-2.800000,-1.120000
53.194966,-0.154208,-0.097600,0.702232,-0.420000,0.000000,0.560000
53.199032,-0.031720,0.215696,1.155096,1.820000,2.660000,-0.560000
53.203098,0.196176,-0.092232,1.116544,-3.640000,-7.700000,0.140000
53.207164,-0.100528,0.038552,0.824232,-1.400000,3.500000,-0.140000
53.211231,-0.228872,0.154208,0.721264,5.180000,8.400000,-2.520000
53.215297,0.050264,-0.253272,1.117032,2.100000,-6.860000,-1.540000
53.219363,0.026840,-0.015128,1.153144,-6.860000,-4.200000,0.980000
53.223429,-0.038552,0.368928,1.019432,1.400000,6.020000,-1.960000
53.227495,-0.183000,-0.105408,1.057496,3.500000,1.960000,-2.800000
53.231561,-0.049288,-0.264008,0.722240,-2.660000,-9.940000,1.960000
53.235627,-0.076616,0.220576,1.053104,-2.380000,7.140000,2.380000
53.239693,0.014152,0.111752,1.455216,1.400000,-1.400000,-1.120000
53.243759,0.096136,-0.080520,0.868640,-0.980000,-4.900000,-0.980000
53.247826,-0.251320,0.149816,0.455304,-2.240000,10.920000,-0.140000
53.251892,-0.070272,-0.036600,1.287832,2.800000,-1.680000,-1.400000
53.255958,0.208376,-0.023424,1.149240,-3.500000,-7.700000,-0.980000
53.260024,-0.062464,0.225944,0.661728,-4.900000,5.740000,-1.260000
53.264090,-0.191296,0.016592,1.115568,3.780000,3.220000,-2.380000
53.268156,-0.024400,-0.212768,0.718336,-1.680000,-7.700000,0.700000
53.272222,0.052216,0.034160,0.867664,-3.640000,-0.700000,1.960000
53.276288,-0.091256,0.240096,1.564528,1.960000,9.940000,-1.820000
53.280354,-0.025864,-0.065392,1.021872,1.540000,-4.760000,-2.380000
53.284421,-0.126880,-0.187392,0.636840,-3.780000,-4.480000,1.120000
53.288487,-0.137128,0.134200,1.118008,-1.260000,5.460000,0.840000
53.292553,0.051728,0.145424,1.380552,3.640000,-1.680000,-1.820000
53.296619,0.040992,-0.081008,0.992592,-3.780000,-4.480000,-1.120000
53.300685,-0.160064,0.157624,0.805688,-1.540000,3.360000,0.000000
53.304751,-0.088328,0.041968,0.869128,-0.560000,2.520000,-0.840000
53.308817,0.058560,-0.193248,0.979904,-3.220000,-6.860000,0.700000
53.312883,0.018056,0.238144,1.035048,-2.100000,7.140000,-0.560000
53.316949,-0.044896,0.109312,1.066280,2.660000,0.700000,-2.380000
53.321016,-0.121512,-0.226432,0.952088,-2.380000,-6.860000,-0.560000
53.325082,-0.004880,-0.023912,0.644160,-5.740000,-2.520000,2.100000
53.329148,-0.051240,0.241072,1.444968,0.560000,8.540000,-1.680000
53.333214,-0.097600,-0.039040,1.249768,1.400000,-3.080000,-3.780000
53.337280,-0.004392,-0.034648,0.751520,-3.640000,-5.880000,0.980000
53.341346,-0.174704,0.122976,0.840824,-4.760000,6.300000,1.680000
53.345412,-0.024888,0.010736,1.296616,0.980000,-2.100000,-0.280000
53.349478,0.118584,0.043432,0.857416,-3.640000,-2.100000,-0.560000
53.353544,-0.040992,0.039528,0.970144,-1.820000,4.340000,-0.980000
53.357611,-0.122000,0.090280,1.157536,0.280000,-1.400000,-1.960000
53.361677,0.072224,-0.174216,0.752008,-2.380000,-8.260000,-0.280000
53.365743,-0.065392,0.033184,0.996008,-4.060000,5.460000,-0.420000
53.369809,-0.140056,0.181048,1.386408,4.340000,3.080000,-3.220000
53.373875,-0.080032,-0.021472,0.927200,-0.700000,-7.280000,-0.980000
53.377941,-0.040504,-0.134200,0.801784,-7.280000,-4.900000,3.360000
53.382007,-0.061976,0.292312,1.102392,-2.100000,7.560000,0.700000
53.386073,0.001464,-0.011712,1.100440,4.620000,0.140000,-3.220000
53.390139,-0.040016,-0.119560,0.890112,-2.380000,-3.220000,-0.560000
53.394206,0.052704,0.162016,0.931592,-1.400000,0.840000,0.560000
53.398272,-0.054168,0.071248,1.125816,-1.960000,1.820000,-1.680000
53.402338,-0.068808,-0.220576,0.948184,1.540000,-3.640000,-2.100000
53.406404,-0.063440,0.142496,0.929152,0.140000,3.920000,-1.680000
53.410470,-0.031232,0.046848,1.351272,0.140000,-2.660000,-0.840000
53.414536,-0.090280,-0.035136,1.076040,-4.340000,-2.240000,0.700000
53.418602,-0.012688,0.105896,0.721264,-1.680000,1.680000,1.120000
53.422668,-0.125416,0.124440,1.155584,2.240000,7.560000,-1.540000
53.426734,-0.061000,-0.111264,1.079944,2.240000,-7.840000,-1.540000
53.430801,0.122000,0.048800,0.693936,-5.880000,-3.080000,1.820000
53.434867,-0.026840,0.209840,1.161440,-0.280000,5.180000,-0.560000
53.438933,-0.122488,-0.008784,1.178032,3.500000,2.800000,-4.200000
53.442999,-0.058560,-0.250832,0.634888,-1.680000,-4.620000,-1.260000
53.447065,-0.015128,0.038064,1.242448,-1.680000,0.980000,0.700000
53.451131,-0.002440,0.207888,1.455216,-0.980000,0.700000,-1.120000
53.455197,-0.107848,0.030256,0.744200,-0.840000,1.820000,-1.120000
53.459263,-0.143472,-0.138104,0.790560,0.420000,1.120000,-0.140000
53.463329,-0.068808,0.177144,1.252208,0.700000,0.840000,0.000000
53.467396,0.094672,0.036112,0.989176,-2.940000,-6.440000,0.420000
53.471462,-0.006344,0.060024,0.969168,-2.940000,2.660000,0.000000
53.475528,-0.129808,0.157136,0.801296,1.400000,10.920000,-2.240000
53.479594,-0.068320,-0.175680,1.003328,3.780000,-7.700000,-2.100000
53.483660,0.038552,-0.124440,1.091656,-4.340000,-5.460000,1.540000
53.487726,0.044896,0.298168,1.101904,-1.540000,5.600000,0.560000
53.491792,-0.177632,0.094184,1.190720,3.080000,3.780000,-2.100000
53.495858,-0.128832,-0.289384,0.852536,2.660000,-9.800000,-0.140000
53.499924,0.020008,0.058560,0.841312,-3.080000,1.120000,1.120000
53.503991,-0.023424,0.200080,1.555256,-0.700000,-1.680000,-1.120000
53.508057,0.011712,0.062952,1.030656,-0.700000,1.680000,-2.100000
53.512123,-0.112240,0.020496,0.398696,-0.560000,3.500000,-0.700000
53.516189,-0.145424,-0.052216,1.218536,2.520000,2.100000,-0.980000
53.520255,0.064904,0.015128,1.114592,-1.260000,-9.800000,1.120000
53.524321,0.063440,0.068320,0.800808,-3.500000,2.660000,2.100000
53.528387,-0.146888,0.168848,1.251232,1.120000,4.620000,0.000000
53.532453,-0.090768,-0.099064,0.867176,2.520000,-3.780000,-0.980000
53.536519,-0.062952,-0.196176,0.712968,-3.080000,-3.500000,0.700000
53.540586,0.020008,0.195200,1.506944,-0.980000,1.820000,-0.280000
53.544652,0.010248,0.248880,1.210240,-1.260000,1.540000,-2.380000
53.548718,-0.179584,-0.150792,0.581696,2.380000,-2.940000,-1.260000
53.552784,-0.126880,-0.025376,0.919880,-0.420000,2.240000,0.140000
53.556850,0.091256,0.119560,1.220000,-3.500000,-3.500000,0.980000
53.560916,0.012688,0.018056,1.036512,-0.420000,-0.560000,0.980000
53.564982,-0.082960,0.066856,0.909632,1.680000,5.740000,-0.140000
53.569048,-0.079056,0.013664,1.034072,-0.280000,2.100000,-0.560000
53.573114,-0.075152,-0.231800,0.987712,1.960000,-8.540000,-0.420000
53.577180,0.004392,0.168360,1.153632,-2.240000,3.080000,-0.140000
53.581247,0.049776,0.293776,1.253672,-1.260000,4.760000,-3.080000
53.585313,-0.136152,-0.090768,0.992592,0.420000,-2.240000,-2.520000
53.589379,-0.172264,-0.110288,0.460184,-1.120000,0.280000,-0.280000
53.593445,0.053192,0.152744,1.095072,-0.280000,0.980000,-0.420000
53.597511,0.087352,0.008296,1.425936,-1.820000,-1.960000,-0.980000
53.601577,-0.149816,0.110776,0.701256,-2.100000,4.200000,-0.280000
53.605643,-0.141520,0.000488,0.784704,2.520000,3.920000,-0.700000
53.609709,0.016592,-0.219600,1.293688,-2.660000,-7.980000,0.000000
53.613775,-0.034160,0.095160,1.136552,-3.360000,-1.540000,0.140000
53.617842,-0.003904,0.286456,1.033584,0.420000,8.820000,-1.960000
53.621908,-0.118096,-0.051240,1.270264,0.560000,-0.420000,-3.080000
53.625974,-0.134200,-0.143960,0.637816,-4.060000,-6.440000,-0.560000
53.630040,-0.037088,0.091256,0.789096,-1.260000,2.520000,0.700000
53.634106,0.048312,0.150792,1.580632,-1.120000,0.420000,-0.840000
53.638172,0.116632,0.036600,0.916952,-1.680000,-4.340000,-0.980000
53.642238,-0.181536,0.000488,0.525088,-0.700000,6.020000,-1.260000
53.646304,-0.188368,-0.146400,1.191208,4.340000,1.680000,-1.960000
53.650370,0.162504,0.040504,1.319064,-4.340000,-7.140000,-0.140000
53.654437,-0.086376,0.182512,0.971120,-1.400000,5.600000,-0.420000
53.658503,-0.182024,0.100040,1.135088,2.940000,8.120000,-1.960000
53.662569,-0.082960,-0.122000,0.813984,0.000000,-6.300000,-0.700000
53.666635,-0.010248,-0.126392,0.780312,-4.200000,-5.180000,2.380000
53.670701,-0.069784,0.306464,1.269288,0.560000,6.300000,0.280000
53.674767,0.139080,0.144936,1.144848,0.840000,0.280000,-0.980000
53.678833,-0.069296,-0.213744,0.788608,-2.380000,-4.480000,-0.280000
53.682899,-0.217648,0.011224,0.768112,1.960000,4.340000,-1.260000
53.686965,0.084424,-0.002440,1.349808,1.540000,-0.980000,-2.380000
53.691032,0.069784,-0.027816,1.332728,-3.080000,-5.180000,-0.840000
53.695098,-0.221552,0.194224,0.994056,2.660000,7.280000,-1.680000
53.699164,-0.162504,0.041480,0.807640,5.880000,1.820000,-1.680000
53.703230,0.009760,-0.244000,0.951112,1.400000,-12.180000,0.560000
53.707296,0.041968,0.183488,0.987224,-1.260000,-1.400000,2.240000
53.711362,0.024400,0.344528,1.079456,4.620000,9.240000,-2.100000
53.715428,-0.063928,-0.168360,1.077016,2.100000,-2.940000,-3.080000
53.719494,-0.106872,-0.164456,0.646112,-1.400000,-2.660000,-0.420000
53.723560,-0.103944,0.063440,1.089704,1.820000,3.640000,-0.420000
53.727627,-0.024400,0.037088,1.626504,3.780000,-1.260000,-1.960000
53.731693,0.085888,0.061000,0.922320,-1.120000,-4.340000,-0.140000
53.735759,-0.253272,0.154208,0.778848,4.060000,7.980000,-1.120000
53.739825,-0.128832,-0.119072,1.100928,5.880000,-2.240000,-1.960000
53.743891,0.171776,-0.021472,0.908656,-2.800000,-9.940000,1.120000
53.747957,0.014152,0.203008,1.090680,1.120000,5.180000,0.560000
53.752023,-0.120536,0.192760,1.245376,4.200000,5.740000,-2.380000
53.756089,-0.061488,-0.296216,0.625616,1.820000,-6.300000,-0.560000
53.760155,-0.091744,-0.106872,0.955992,-0.700000,-3.360000,1.540000
53.764222,-0.042456,0.293776,1.421544,3.080000,3.220000,-0.980000
53.768288,0.042456,0.062464,1.196576,2.100000,-1.540000,-2.240000
53.772354,-0.163480,-0.106384,0.720776,0.280000,-4.200000,0.280000
53.776420,-0.146888,0.212280,0.798856,3.220000,3.360000,0.000000
53.780486,0.087840,-0.169336,1.156560,2.800000,-5.880000,-1.400000
53.784552,0.109800,0.053680,1.170224,-0.560000,-2.800000,-1.680000
53.788618,-0.057096,0.202520,0.967216,2.520000,8.960000,-2.800000
53.792684,-0.208376,-0.084424,1.221464,4.620000,-0.280000,-2.660000
53.796750,-0.123952,-0.235704,0.684664,3.220000,-7.700000,0.140000
53.800817,0.023912,0.181048,1.155096,-0.700000,3.080000,2.240000
53.804883,-0.064904,0.222528,1.599176,4.760000,2.240000,-1.540000
53.808949,0.017080,-0.035624,0.677344,2.800000,-6.160000,-0.840000
53.813015,-0.122976,-0.061000,0.647576,0.560000,-0.700000,1.260000
53.817081,-0.044408,0.122976,1.134600,1.820000,2.800000,0.560000
53.821147,0.089792,0.013176,1.125816,4.480000,-4.200000,-1.400000
53.825213,-0.050264,0.000488,0.912560,1.400000,1.960000,-0.980000
53.829279,-0.031720,0.110288,1.062864,4.340000,1.540000,-2.100000
53.833345,-0.113216,-0.126392,0.918416,0.420000,-4.900000,-0.560000
53.837411,-0.157136,-0.085400,0.960872,1.260000,-2.100000,0.140000
53.841478,0.094672,0.222528,1.313208,1.960000,4.620000,-0.980000
53.845544,-0.111264,0.064904,1.409832,5.180000,-2.660000,-3.220000
53.849610,-0.106384,-0.111264,0.614880,1.400000,-4.480000,0.280000
53.853676,0.014640,0.094672,0.743224,1.260000,0.700000,1.680000
53.857742,0.001464,0.056608,1.350784,1.120000,3.220000,-0.980000
53.861808,0.002440,-0.005856,0.965752,4.340000,-1.960000,-2.380000
53.865874,-0.036112,-0.020008,0.873032,3.080000,1.540000,-1.120000
53.869940,-0.068320,0.060512,1.270264,-0.700000,0.560000,-0.980000
53.874006,-0.112728,-0.025864,0.835944,0.000000,-4.200000,1.260000
53.878073,-0.087840,0.020496,0.992592,4.340000,2.940000,-0.280000
53.882139,0.055144,0.129320,1.329312,1.960000,1.260000,-2.520000
53.886205,-0.079544,-0.022936,1.071648,0.420000,-8.120000,-1.960000
53.890271,-0.067344,0.047336,0.658312,-2.940000,0.420000,0.420000
53.894337,-0.003904,0.189832,1.019920,-4.200000,8.680000,-0.700000
53.898403,-0.096624,-0.055144,1.088728,-1.960000,-0.140000,-2.100000
53.902469,-0.060512,-0.050752,0.861320,0.000000,-2.940000,-0.840000
53.906535,-0.017080,0.060024,0.984296,-4.620000,0.980000,0.840000
53.910601,0.034160,0.013664,1.309304,-1.960000,-8.120000,0.420000
53.914668,-0.054656,0.027328,0.799344,-1.260000,2.940000,-0.420000
53.918734,-0.160064,-0.066368,0.924760,1.820000,6.440000,-1.960000
53.922800,-0.010248,0.007808,1.525488,-1.260000,-3.360000,-1.540000
53.926866,0.015128,0.031232,0.896456,-4.480000,-8.680000,1.120000
53.930932,-0.083936,0.146400,0.921832,-3.080000,9.940000,0.560000
53.934998,-0.074176,0.089792,1.066280,2.380000,2.800000,-2.100000
53.939064,-0.011224,-0.081496,0.873032,1.120000,-4.480000,-1.400000
53.943130,-0.068808,-0.098576,0.844240,-2.100000,-3.500000,1.120000
53.947196,0.061000,0.278160,1.233664,-1.820000,3.220000,0.280000
53.951263,0.018544,-0.026840,1.073600,-2.660000,-3.640000,0.560000
53.955329,-0.270352,-0.065392,0.689544,1.260000,6.300000,-0.140000
53.959395,0.004392,-0.057584,1.083848,1.540000,-2.240000,-0.420000
53.963461,0.039528,-0.009272,1.504016,-3.080000,-6.580000,-0.700000
53.967527,-0.010248,0.166408,0.901824,-3.640000,1.260000,0.000000
53.971593,-0.246928,0.187392,0.899384,3.780000,8.960000,-2.240000
53.975659,-0.040016,-0.191296,1.049200,-0.140000,-8.540000,-1.260000
53.979725,0.055144,-0.030744,0.893040,-3.360000,-8.260000,0.980000
53.983791,-0.030256,0.186416,1.094584,-3.640000,6.300000,0.420000
53.987858,0.058072,0.115168,1.274168,1.260000,1.120000,-2.660000
53.991924,-0.017080,-0.102968,0.630984,-0.280000,0.420000,-1.680000
53.995990,-0.267912,-0.073200,0.930616,2.100000,5.180000,-2.380000
54.000056,0.020984,0.016104,1.431304,-0.560000,-4.900000,-1.260000
54.004122,0.121512,0.062464,1.117520,-2.520000,-7.700000,0.000000
54.008188,-0.247416,0.172752,0.959896,0.000000,9.380000,0.700000
54.012254,-0.122976,-0.001464,0.893040,4.480000,0.420000,-1.120000
54.016320,0.038552,-0.236680,0.946720,-5.040000,-9.800000,1.120000
54.020386,0.015616,0.228384,1.114104,-2.940000,3.220000,1.120000
54.024453,-0.021960,0.288408,1.129232,1.540000,7.280000,-1.820000
54.028519,-0.018544,-0.179096,0.918416,3.360000,-7.700000,-1.960000
54.032585,-0.132248,-0.060024,0.490440,-3.220000,1.680000,0.420000
54.036651,-0.043920,0.104432,1.186328,1.960000,0.280000,-0.700000
54.040717,0.086376,-0.033672,1.436184,-0.840000,-1.400000,-1.680000
54.044783,0.000000,0.089792,0.819840,-3.780000,0.140000,0.140000
54.048849,-0.282064,0.074176,0.985760,2.660000,9.240000,-1.820000
54.052915,-0.071736,-0.201544,1.092632,2.660000,-8.260000,-1.120000
54.056981,0.076128,0.018056,0.941352,-3.220000,-2.380000,0.980000
54.061048,-0.062952,0.284016,1.383480,0.280000,6.720000,-0.560000
54.065114,-0.093696,0.135664,1.103856,4.760000,1.540000,-3.220000
54.069180,-0.026352,-0.299632,0.432856,-2.100000,-8.120000,0.000000
54.073246,-0.073200,0.072712,1.029192,-1.260000,3.500000,1.400000
54.077312,0.011712,0.239120,1.262456,3.500000,3.080000,-1.120000
54.081378,0.074176,-0.137616,1.144848,-0.280000,-4.060000,-0.840000
54.085444,-0.148840,0.090768,0.741272,-0.420000,4.620000,0.560000
54.089510,-0.125416,0.005856,1.016992,2.800000,0.280000,-0.140000
54.093576,-0.076128,-0.171288,1.108248,-2.240000,-5.880000,0.980000
54.097642,0.130784,0.191296,1.102392,-0.560000,-0.420000,0.000000
54.101709,-0.093696,0.252296,1.294664,0.280000,8.260000,-3.920000
54.105775,-0.140056,-0.162992,0.894504,0.840000,-7.700000,-3.080000
54.109841,-0.012688,-0.071736,0.507032,-4.760000,-1.400000,0.560000
54.113907,-0.088328,0.169824,1.266848,0.000000,4.620000,0.140000
54.117973,0.035624,0.090280,1.365912,3.640000,0.840000,-2.100000
54.122039,0.023424,-0.084424,0.587064,-1.540000,-4.620000,0.140000
54.126105,-0.161040,0.042456,1.016504,-0.560000,3.920000,0.560000
54.130171,-0.062952,0.011712,1.159488,1.120000,-2.380000,-0.420000
54.134237,0.068320,-0.074664,1.025288,-1.540000,-1.540000,-0.980000
54.138304,-0.088328,0.158600,1.248792,-0.140000,6.160000,-1.400000
54.142370,-0.055632,0.154208,1.160464,2.100000,0.000000,-2.520000
54.146436,-0.110776,-0.206912,0.597800,-2.240000,-6.580000,0.420000
54.150502,-0.077104,0.042944,0.912560,-3.080000,2.380000,2.100000
54.154568,0.094184,0.333792,1.246840,1.540000,5.320000,-0.700000
54.158634,-0.096136,-0.101016,1.172176,1.820000,-2.800000,-1.680000
54.162700,-0.031720,-0.093208,0.521672,-3.780000,-4.480000,0.560000
54.166766,-0.049776,0.128832,0.976976,-1.120000,4.760000,0.700000
54.170832,-0.082960,-0.029768,1.334192,1.400000,-0.700000,-1.680000
54.174899,0.030744,-0.018056,1.032120,0.140000,-2.800000,-2.100000
54.178965,-0.100040,0.226920,0.986736,-0.700000,5.040000,-1.680000
54.183031,-0.103944,-0.139568,1.168272,-1.120000,-5.600000,-0.140000
54.187097,-0.097112,0.053680,0.709552,-3.640000,-1.820000,1.540000
54.191163,0.055144,0.054656,0.967216,-0.700000,5.320000,0.840000
54.195229,-0.009272,0.206912,1.544032,1.540000,0.840000,-2.240000
54.199295,0.001952,-0.089792,0.639768,0.000000,-6.720000,-0.980000
54.203361,-0.078080,-0.091744,0.644160,-4.200000,0.980000,1.400000
54.207427,-0.059048,0.140056,1.301984,0.840000,3.220000,-1.260000
54.211494,-0.002928,0.075640,1.234152,0.560000,1.680000,-3.220000
54.215560,-0.160552,-0.149816,0.864248,0.140000,-1.540000,-0.980000
54.219626,-0.064416,0.143472,1.084336,-3.080000,0.980000,0.980000
54.223692,-0.075640,0.064416,0.987224,-2.660000,-3.360000,2.240000
54.227758,-0.070272,-0.074664,0.951600,0.560000,-2.240000,2.100000
54.231824,0.079056,0.184952,0.986736,0.980000,3.360000,-0.700000
54.235890,0.025376,0.059536,1.254648,-1.960000,-1.680000,-2.800000
54.239956,-0.045872,-0.201544,0.787632,-3.220000,-7.420000,-0.700000
54.244022,-0.087352,0.170312,0.716384,-3.500000,7.980000,0.280000
54.248089,-0.038552,0.050752,1.459608,0.980000,4.900000,-2.800000
54.252155,-0.087352,-0.028304,1.207800,0.560000,-4.900000,-2.240000
54.256221,-0.075640,0.046360,0.609024,-4.340000,-1.540000,0.560000
54.260287,-0.022936,0.106384,1.096536,-2.940000,0.840000,0.980000
54.264353,-0.049288,0.035136,1.111664,-1.540000,-0.560000,-0.700000
54.268419,-0.038552,0.040504,0.648552,0.980000,1.680000,-1.120000
54.272485,-0.011712,0.020984,1.181936,0.420000,1.680000,-1.120000
54.276551,-0.015128,-0.039040,1.229760,-4.340000,-5.880000,-0.280000
54.280617,-0.078568,0.006832,0.650992,-3.640000,-1.400000,0.700000
54.284684,-0.123464,0.039040,1.161928,3.080000,7.140000,-1.120000
54.288750,0.006344,0.137128,1.453752,0.000000,-1.120000,-2.800000
54.292816,-0.058072,-0.041968,0.766648,-3.360000,-8.540000,0.560000
54.296882,-0.083936,0.036112,0.768600,-1.820000,0.560000,2.380000
54.300948,0.004392,0.164456,1.079456,-0.560000,4.200000,0.280000
54.305014,0.070760,-0.025864,1.054080,0.980000,-3.360000,-0.980000
54.309080,-0.117608,-0.053680,0.982832,-1.120000,1.680000,-1.540000
54.313146,-0.035624,0.106872,1.010648,-2.380000,0.420000,-1.960000
54.317212,-0.036600,-0.014640,1.136552,-4.200000,-3.220000,-0.420000
54.321279,-0.216184,-0.001952,0.888160,-0.140000,2.380000,0.560000
54.325345,-0.016592,0.231800,1.049688,3.220000,3.920000,-1.680000
54.329411,0.061488,-0.089792,1.138992,-1.960000,-10.220000,-0.700000
54.333477,0.017568,-0.040992,0.847168,-4.340000,-4.760000,1.540000
54.337543,-0.115656,0.167384,0.748104,-0.840000,10.220000,-0.280000
54.341609,-0.053680,-0.024400,1.423496,4.620000,0.700000,-2.940000
54.345675,0.034648,-0.120536,1.167296,0.140000,-6.720000,-1.680000
54.349741,-0.116632,0.190320,0.787144,-2.660000,1.680000,0.140000
54.353807,-0.111264,0.102968,1.138992,0.840000,1.400000,-0.420000
54.357874,0.005368,-0.038552,0.919880,-1.260000,-3.780000,0.700000
54.361940,-0.011712,0.127856,0.741272,-0.700000,4.900000,0.560000
54.366006,-0.100528,-0.004880,1.332728,1.680000,0.560000,-1.540000
54.370072,0.052704,-0.072712,0.931592,-1.820000,-11.340000,-0.140000
54.374138,-0.039040,0.038064,0.736392,-3.220000,1.680000,1.680000
54.378204,-0.122000,0.130296,1.333216,3.220000,5.880000,-2.520000
54.382270,-0.051240,0.011224,1.217072,2.660000,-3.780000,-4.620000
54.386336,-0.040016,-0.078568,0.725656,-5.320000,-5.600000,0.420000
54.390402,-0.024400,0.177144,1.121424,-3.500000,3.920000,0.980000
54.394468,-0.099552,0.137128,0.976976,1.120000,2.520000,-0.980000
54.398535,-0.019032,-0.144448,0.832528,2.100000,-2.520000,-0.700000
54.402601,0.003904,0.003904,1.147776,-2.800000,1.120000,-0.420000
54.406667,-0.078080,0.141520,1.225368,-0.980000,-4.900000,-1.260000
54.410733,-0.055632,-0.099064,0.937936,-3.220000,-4.060000,0.280000
54.414799,-0.055144,0.143472,0.899384,-2.240000,6.440000,0.420000
54.418865,-0.061488,0.171776,1.187792,1.680000,3.640000,-2.380000
54.422931,-0.092232,-0.206912,0.928664,0.000000,-10.500000,-0.420000
54.426997,0.123952,0.077104,0.743224,-4.620000,-0.980000,2.520000
54.431063,-0.064904,0.236192,1.147288,-1.260000,6.580000,-0.140000
54.435130,-0.183976,-0.133224,1.159000,3.920000,-1.960000,-1.120000
54.439196,-0.020496,-0.033672,0.731512,0.420000,-2.660000,-0.420000
54.443262,0.000000,0.080520,1.321016,-3.220000,-0.420000,-0.420000
54.447328,-0.032208,0.150304,1.205360,-1.960000,-3.920000,-1.400000
54.451394,-0.040504,0.090280,0.542168,-1.680000,5.180000,-1.120000
54.455460,-0.119072,-0.038064,0.943304,1.820000,5.740000,-2.520000
54.459526,0.015616,-0.100040,1.329800,-0.840000,-8.960000,-1.820000
54.463592,-0.025376,0.032208,0.796416,-3.920000,-4.060000,1.400000
54.467658,-0.140056,0.183488,1.206824,-1.540000,7.140000,1.120000
54.471725,-0.052216,0.020008,1.165344,1.820000,-2.520000,-1.680000
54.475791,-0.020984,-0.059536,0.715408,-0.840000,-5.460000,-0.840000
54.479857,-0.067344,0.021960,0.994544,-1.260000,0.840000,-0.840000
54.483923,0.082960,0.198128,1.271728,-1.960000,-1.540000,-1.260000
54.487989,0.000488,-0.004880,0.906704,-1.120000,-0.560000,-0.980000
54.492055,-0.261568,-0.053192,0.814472,1.540000,7.560000,-0.980000
54.496121,-0.050264,-0.019032,1.236104,0.980000,-3.780000,-1.120000
54.500187,0.096624,-0.017568,1.200968,-3.920000,-11.760000,1.540000
54.504253,-0.020984,0.284992,0.807640,-3.640000,5.040000,1.400000
54.508320,-0.078080,0.156648,0.971608,2.800000,7.980000,-3.500000
54.512386,-0.041480,-0.306464,0.898896,0.560000,-6.720000,-3.220000
54.516452,-0.024888,0.000488,0.844728,-3.920000,-1.820000,-0.420000
54.520518,-0.024400,0.236192,1.338584,-3.360000,2.520000,-0.560000
54.524584,-0.076128,0.014152,1.222440,1.960000,-2.240000,-2.240000
54.528650,-0.091256,-0.005368,0.526064,-1.680000,0.560000,-0.980000
54.532716,-0.123952,0.052216,1.039440,1.540000,-0.280000,-0.840000
54.536782,0.078080,0.013664,1.317600,-0.840000,-6.860000,-1.260000
54.540848,0.101504,0.074176,0.703696,-5.040000,0.280000,0.140000
54.544915,-0.162992,0.150792,1.110688,1.820000,9.660000,-2.100000
54.548981,-0.152256,-0.087352,1.155584,1.680000,-0.280000,-2.660000
54.553047,-0.093208,-0.207888,0.719800,-1.820000,-5.740000,0.560000
54.557113,0.061488,0.174704,1.332240,-3.920000,-0.280000,1.540000
54.561179,0.023424,0.366000,1.285880,-0.140000,4.480000,-2.100000
54.565245,-0.111752,-0.169336,0.548512,2.800000,-0.560000,-1.820000
54.569311,-0.114680,-0.135176,0.674904,-1.400000,0.280000,0.700000
54.573377,0.065880,0.172752,1.414712,-1.540000,-1.120000,0.280000
54.577443,0.084424,-0.015616,1.162904,-2.660000,-2.660000,-0.840000
54.581510,-0.177144,0.087352,0.839360,0.420000,5.180000,-2.100000
54.585576,-0.095648,0.087352,0.898408,0.420000,5.040000,-2.240000
54.589642,-0.050264,-0.167384,1.083360,-3.360000,-6.860000,-0.560000
54.593708,-0.029280,0.201056,0.906216,-2.240000,2.660000,0.000000
54.597774,0.098088,0.216672,1.130208,-1.400000,4.760000,-1.680000
54.601840,-0.075640,-0.105408,1.071160,-0.980000,-2.100000,-2.100000
54.605906,-0.157136,-0.112240,0.469944,-1.400000,0.140000,-0.140000
54.609972,-0.052216,0.024400,1.193648,-1.120000,4.060000,-0.420000
54.614038,0.095160,0.103456,1.632360,-1.960000,-1.120000,-1.960000
54.618105,-0.069784,0.102480,0.734928,-1.680000,-0.280000,-1.540000
54.622171,-0.232776,0.043920,0.695400,1.120000,7.140000,-0.980000
54.626237,0.007320,-0.102968,1.150216,-0.560000,-4.060000,-0.560000
54.630303,0.178120,0.075640,0.961848,-2.660000,-5.460000,0.000000
54.634369,-0.124928,0.161040,1.054080,-0.700000,9.380000,-1.260000
54.638435,-0.066368,-0.010736,1.083360,2.380000,0.420000,-2.240000
54.642501,-0.036112,-0.130784,0.776408,-5.040000,-6.720000,0.980000
54.646567,-0.160552,-0.020496,0.952576,-3.640000,4.480000,1.960000
54.650633,0.063928,0.282552,1.440088,1.120000,4.900000,-2.380000
54.654699,0.050752,0.031720,0.926712,-1.540000,-3.780000,-3.080000
54.658766,-0.157624,-0.033184,0.661728,-3.360000,0.420000,-0.280000
54.662832,-0.154208,0.079056,0.820328,0.700000,4.760000,-0.700000
54.666898,0.139568,-0.005368,1.180472,-0.560000,-5.460000,-0.980000
54.670964,0.015128,-0.027816,1.148752,-2.660000,-3.640000,0.420000
54.675030,-0.151280,0.215208,0.933056,1.120000,8.680000,-1.260000
54.679096,-0.110288,-0.158600,0.973072,-2.240000,-1.260000,-0.560000
54.683162,0.012688,-0.115168,1.068720,-2.940000,-6.580000,1.120000
54.687228,-0.013176,0.339160,1.077992,-1.540000,10.640000,-1.120000
54.691294,-0.089792,0.110288,1.107760,3.220000,2.100000,-2.940000
54.695361,0.000976,-0.210816,0.752496,-1.960000,-9.380000,0.280000
54.699427,0.017568,0.081008,0.635864,-5.600000,2.520000,2.940000
54.703493,-0.072712,0.199592,1.294664,3.080000,9.800000,-2.100000
54.707559,0.010736,-0.137616,1.274168,1.120000,-4.760000,-3.360000
54.711625,-0.056120,0.065392,0.677832,-5.320000,-1.820000,0.420000
54.715691,-0.167872,0.025864,0.991128,-1.540000,4.760000,0.840000
54.719757,-0.038552,0.009760,1.253184,-0.560000,-2.660000,-0.980000
54.723823,0.077592,0.049776,0.851072,-1.960000,-1.260000,-0.840000
54.727889,-0.032208,0.174216,1.025288,-0.280000,5.880000,-2.100000
54.731956,-0.126392,-0.025864,1.083848,-0.700000,-1.960000,-1.680000
54.736022,0.015128,-0.071736,0.589992,-3.640000,-4.480000,1.260000
54.740088,0.026840,0.048312,1.022360,-1.680000,5.880000,0.700000
54.744154,-0.134200,0.191784,1.448872,3.080000,4.760000,-2.520000
54.748220,0.036112,-0.133712,0.856440,-0.980000,-7.140000,-1.260000
54.752286,-0.039528,-0.074176,0.785680,-7.700000,1.400000,1.820000
54.756352,-0.181048,0.226920,1.266848,2.800000,7.700000,-1.400000
54.760418,0.068808,0.048312,1.068720,3.360000,-1.120000,-3.220000
54.764484,-0.063440,-0.082472,0.765184,-1.680000,-3.220000,-0.700000
54.768551,-0.102480,0.126392,1.026752,-1.820000,2.240000,1.400000
54.772617,-0.004392,0.071736,0.980880,0.560000,-2.520000,1.120000
54.776683,0.033184,-0.097112,0.830576,-0.280000,1.120000,0.560000
54.780749,0.000976,0.094672,1.193160,1.260000,5.880000,-1.260000
54.784815,-0.045384,0.131272,1.096048,-0.280000,0.700000,-1.960000
54.788881,-0.050752,-0.255712,0.775432,-1.680000,-5.880000,0.840000
54.792947,-0.075640,0.089792,0.990152,-3.220000,6.440000,0.980000
54.797013,-0.010736,0.264008,1.291248,3.220000,3.220000,-2.100000
54.801079,-0.050752,-0.152744,1.051640,0.560000,-3.500000,-2.660000
54.805146,-0.061976,-0.060512,0.787632,-6.860000,-4.620000,0.840000
54.809212,-0.091256,0.273768,0.918416,-0.140000,6.860000,0.280000
54.813278,-0.007808,-0.084424,1.067256,1.680000,-4.620000,-0.700000
54.817344,0.010248,0.020008,1.024312,-1.120000,-0.700000,-0.280000
54.821410,0.005856,0.231800,0.867176,-3.360000,5.460000,-0.840000
54.825476,-0.080032,-0.135176,1.005280,0.420000,-6.300000,-0.280000
54.829542,-0.076616,-0.103456,0.820328,-1.820000,-0.280000,0.980000
54.833608,0.103944,0.209840,1.084824,0.700000,4.760000,-0.840000
54.837674,-0.114192,0.088816,1.395192,1.960000,0.980000,-3.360000
54.841741,-0.075152,-0.272304,0.800320,-2.940000,-8.540000,0.840000
54.845807,-0.026840,0.157624,0.721752,-6.020000,2.240000,2.800000
54.849873,-0.048800,0.106872,1.404952,0.980000,2.940000,-0.420000
54.853939,0.003904,0.032208,1.145336,1.120000,-1.680000,-2.660000
54.858005,0.056120,0.094672,0.609024,-3.780000,-0.560000,-1.260000
54.862071,-0.168360,0.049776,0.931104,-1.260000,3.220000,-1.400000
54.866137,-0.031232,-0.136640,1.007232,0.420000,-9.380000,-0.280000
54.870203,0.056120,0.184952,0.825696,-0.140000,2.520000,-0.420000
54.874269,-0.005368,0.069296,1.225856,-1.960000,3.080000,-1.260000
54.878336,-0.138104,-0.114192,1.167296,-0.560000,-7.560000,-0.700000
54.882402,-0.050264,-0.050752,0.423096,-2.660000,-1.120000,1.820000
54.886468,0.043432,0.079056,1.372256,-2.100000,4.620000,0.000000
54.890534,-0.107360,0.156648,1.464000,2.380000,0.840000,-3.080000
54.894600,-0.022448,-0.017568,0.611464,0.980000,-4.340000,-0.980000
54.898666,-0.076616,-0.015616,0.793976,-3.080000,-0.280000,1.260000
54.902732,-0.013176,0.102480,1.298568,-0.420000,-0.980000,0.140000
54.906798,0.072712,0.069784,0.812032,0.980000,0.840000,-1.540000
54.910864,-0.027328,0.002928,1.054568,0.140000,3.220000,-1.960000
54.914930,-0.061000,0.029280,1.139480,-3.080000,-0.280000,-1.260000
54.918997,-0.031720,-0.106384,0.607560,-1.820000,-5.180000,1.260000
54.923063,-0.095648,0.062952,0.995032,0.000000,6.440000,0.560000
54.927129,0.093208,0.118096,1.504504,1.400000,0.980000,-2.380000
54.931195,-0.081008,0.088328,0.914512,-0.840000,-4.060000,-2.520000
54.935261,-0.141032,-0.172752,0.590480,-1.960000,-1.820000,0.420000
54.939327,-0.034160,0.184952,1.199504,-2.240000,3.640000,0.000000
54.943393,0.094672,0.077592,1.104832,0.140000,-2.800000,-1.120000
54.947459,-0.117120,0.000976,0.879376,0.140000,2.660000,-2.100000
54.951525,0.016104,0.016104,0.933056,-1.820000,-0.980000,-1.260000
54.955592,0.046848,-0.019520,1.003328,-4.060000,-3.360000,-0.280000
54.959658,-0.150304,-0.077104,0.918904,-0.840000,-0.140000,-0.420000
54.963724,-0.009760,0.199104,1.279048,1.960000,6.860000,-2.660000
54.967790,0.035624,0.055632,1.177056,-0.980000,-3.500000,-2.100000
54.971856,-0.149816,-0.177144,0.774944,-3.500000,-6.720000,1.120000
54.975922,-0.075640,0.098088,0.804224,-2.800000,2.800000,1.960000
54.979988,0.109800,0.204472,1.212192,0.140000,5.740000,-1.820000
54.984054,-0.023424,-0.044408,1.122400,-1.400000,-3.080000,-0.980000
54.988120,-0.122488,0.052216,0.667584,-0.980000,2.380000,0.420000
54.992187,0.076128,0.038064,0.877912,-2.380000,1.960000,0.420000
54.996253,-0.023424,-0.086376,1.201944,-1.680000,-1.120000,-1.120000
55.000319,-0.065392,0.104432,0.932080,1.540000,1.540000,-2.380000
55.004385,-0.046360,0.123952,0.950624,1.540000,3.080000,-2.940000
55.008451,-0.054168,-0.163480,1.119960,-4.480000,-8.960000,-0.280000
55.012517,-0.108824,-0.014152,0.883768,-1.820000,-3.360000,1.400000
55.016583,0.039528,0.224480,1.009184,-0.280000,7.980000,-0.840000
55.020649,-0.005856,0.034160,1.512312,0.980000,-1.540000,-2.800000
55.024715,-0.068320,-0.057584,0.718824,-4.340000,-5.180000,0.420000
55.028782,-0.027816,0.024400,0.559736,-1.540000,2.240000,1.680000
55.032848,-0.026352,0.110288,1.280512,2.100000,2.940000,-0.980000
55.036914,0.093696,-0.018544,1.220976,0.840000,-4.340000,-1.960000
55.040980,-0.105408,0.112240,0.626592,-0.840000,2.100000,-0.280000
55.045046,-0.101016,-0.066368,0.992592,-0.560000,1.120000,-0.140000
55.049112,0.024888,-0.023424,1.198528,-5.600000,-3.500000,0.420000
55.053178,-0.045872,0.090280,0.850584,-1.820000,4.340000,-0.420000
55.057244,-0.080032,0.143960,1.244400,3.080000,5.600000,-2.940000
55.061310,0.003416,-0.088328,1.142408,-2.660000,-7.420000,-1.820000
55.065377,-0.047824,0.003904,0.571448,-6.580000,-3.920000,0.980000
55.069443,-0.049288,0.096624,0.889136,1.120000,5.740000,-0.280000
55.073509,0.036600,0.177144,1.495232,1.960000,1.680000,-2.800000
55.077575,0.073200,-0.100528,0.776896,-3.220000,-6.860000,-0.560000
55.081641,-0.184464,-0.031232,0.600240,-4.620000,2.940000,1.680000
55.085707,-0.086376,0.012200,1.298080,2.380000,2.380000,0.420000
55.089773,0.142984,0.072712,1.235616,-1.820000,-3.220000,0.000000
55.093839,-0.109800,0.030744,0.837408,0.280000,1.820000,-0.280000
55.097905,-0.172264,0.088328,1.107272,0.560000,3.780000,-0.560000
55.101972,0.086864,-0.063928,0.913536,-3.080000,-7.280000,0.840000
55.106038,-0.017080,0.068808,0.835456,-4.200000,2.100000,0.980000
55.110104,-0.063440,0.143960,1.192672,3.220000,6.440000,-2.520000
55.114170,0.024888,0.067344,1.097512,-1.120000,-4.480000,-1.680000
55.118236,0.000000,-0.228872,0.623664,-5.600000,-6.580000,2.240000
55.122302,-0.134200,0.071248,1.055056,-0.560000,5.740000,1.400000
55.126368,0.044408,0.195688,1.422032,3.500000,2.380000,-2.660000
55.130434,0.031720,0.006832,0.948184,-1.400000,-4.620000,-1.400000
55.134500,-0.197640,-0.072224,0.705160,-3.640000,-1.120000,0.840000
55.138567,-0.094672,0.139080,1.132160,-0.980000,1.820000,0.000000
55.142633,0.161040,0.030744,0.896944,-1.120000,-7.000000,-0.420000
55.146699,-0.021960,0.070272,1.082384,-2.380000,2.800000,-0.420000
55.150765,-0.141520,0.072712,1.016016,0.980000,3.780000,-1.540000
55.154831,0.034648,-0.128832,0.859856,-2.940000,-8.680000,0.280000
55.158897,-0.035624,-0.078080,1.004792,-4.060000,-1.540000,1.400000
55.162963,-0.089792,0.272792,1.310280,1.960000,7.420000,-0.980000
55.167029,-0.018056,0.120048,1.073112,2.660000,-5.460000,-2.100000
55.171095,-0.037576,-0.254736,0.682712,-4.200000,-8.400000,1.680000
55.175161,-0.077104,0.154208,0.962336,-2.800000,2.800000,2.240000
55.179228,0.070272,0.200568,1.182424,2.800000,3.920000,-1.820000
55.183294,0.015616,-0.123952,1.097512,-0.140000,-4.900000,-1.400000
55.187360,-0.143472,0.033184,0.861320,-3.500000,1.260000,0.700000
55.191426,-0.033672,0.096624,1.001376,-1.960000,1.540000,0.140000
55.195492,-0.008784,-0.072224,1.069696,-1.400000,-5.040000,-1.540000
55.199558,-0.001952,0.096624,1.082872,-1.820000,0.980000,-1.820000
55.203624,-0.058560,0.246440,1.010648,-0.420000,3.220000,-1.820000
55.207690,-0.039528,-0.161528,0.814472,-1.960000,-9.660000,-0.280000
55.211756,-0.092232,-0.175192,0.973560,-3.640000,-2.380000,1.540000
55.215823,0.065392,0.312320,1.270264,-1.260000,6.860000,-0.840000
55.219889,-0.081008,0.130784,1.209752,2.520000,-1.540000,-1.820000
55.223955,-0.114680,-0.230824,0.714920,-1.400000,-5.460000,0.700000
55.228021,0.036112,0.091744,0.837896,-3.640000,1.820000,1.120000
55.232087,0.063440,0.204960,1.290272,1.120000,3.080000,-2.240000
55.236153,-0.074664,-0.089304,1.220976,-0.280000,-2.520000,-1.260000
55.240219,-0.142008,0.031232,0.752008,-2.380000,1.960000,0.980000
55.244285,-0.026840,0.087840,0.981856,-2.100000,-0.980000,1.680000
55.248351,-0.008784,-0.083448,1.144848,-2.940000,-6.020000,1.680000
55.252418,0.032208,0.152744,0.996496,-0.420000,4.620000,-0.980000
55.256484,0.007808,0.209352,0.904264,2.100000,3.080000,-2.660000
55.260550,-0.022448,-0.213256,1.078480,-3.080000,-7.560000,-1.260000
55.264616,-0.206912,-0.088816,0.901336,-2.240000,0.140000,0.840000
55.268682,0.045384,0.302560,1.064816,1.260000,6.020000,-1.120000
55.272748,0.023912,0.073200,1.374208,0.980000,-4.200000,-2.380000
55.276814,-0.109312,-0.118096,0.780312,-3.080000,-3.080000,0.840000
55.280880,-0.023424,0.060512,0.662216,-1.960000,3.220000,1.400000
55.284946,-0.008296,0.020496,1.313696,0.840000,-0.700000,-1.400000
55.289013,0.013176,-0.008784,1.380064,0.280000,-3.500000,-1.680000
55.293079,-0.087840,0.194224,0.749080,-2.100000,2.240000,-0.840000
55.297145,-0.062952,0.020496,0.798856,-0.980000,-0.840000,-0.980000
55.301211,0.026840,-0.189832,1.121912,-2.100000,-7.140000,-0.560000
55.305277,0.064416,0.207888,1.033584,-2.240000,7.140000,-1.260000
55.309343,-0.120536,0.208864,1.220488,2.100000,4.060000,-3.080000
55.313409,-0.174704,-0.238632,0.972584,-0.980000,-7.980000,-0.140000
55.317475,-0.024888,-0.005368,0.717360,-5.460000,-1.540000,2.800000
55.321541,0.068320,0.364048,1.032120,-1.120000,5.180000,0.840000
55.325608,-0.003904,-0.030256,1.402024,2.940000,-1.820000,-1.960000
55.329674,-0.060024,-0.204960,0.741272,-4.480000,-3.640000,0.560000
55.333740,-0.092720,0.173240,0.879376,-2.520000,3.920000,0.420000
55.337806,-0.072712,0.036112,1.359568,-0.700000,-0.140000,-0.980000
55.341872,0.080520,-0.013176,1.088240,-0.980000,-4.200000,-1.680000
55.345938,-0.029768,0.240584,0.706136,-3.360000,5.180000,-0.420000
55.350004,-0.080032,-0.041968,0.998936,-1.680000,-2.100000,-0.560000
55.354070,-0.054168,-0.245952,1.133136,-2.940000,-9.800000,1.260000
55.358136,0.028792,0.246928,1.022360,-1.260000,4.620000,-0.700000
55.362203,-0.001952,0.265472,1.175104,-0.140000,6.020000,-3.220000
55.366269,-0.062464,-0.156648,0.940864,0.140000,-7.840000,-1.540000
55.370335,-0.081984,-0.109312,0.631472,-3.080000,1.400000,0.700000
55.374401,-0.030744,0.172264,1.209752,-0.840000,5.460000,-1.120000
55.378467,0.000488,0.074664,1.494256,-0.420000,-3.920000,-1.400000
55.382533,-0.157624,-0.006344,0.801784,-3.920000,-2.800000,1.820000
55.386599,-0.091256,0.083448,0.521184,-0.700000,0.700000,1.680000
55.390665,0.103456,-0.024888,1.258552,-0.420000,-7.560000,0.140000
55.394731,0.100040,-0.026352,1.424960,-1.680000,-5.740000,-0.420000
55.398797,-0.175680,0.228384,0.854976,-0.140000,5.180000,-1.680000
55.402864,-0.135664,0.009760,0.812520,1.540000,-4.760000,-2.240000
55.406930,0.063440,-0.202032,1.016992,-3.640000,-11.060000,0.140000
55.410996,0.074664,0.243024,0.986248,-5.040000,2.940000,0.420000
55.415062,-0.061976,0.235704,1.145824,0.560000,3.640000,-1.680000
55.419128,-0.150792,-0.285968,1.016992,-0.840000,-8.540000,-0.420000
55.423194,-0.088328,-0.055632,0.833504,-2.380000,-2.380000,1.820000
55.427260,0.070272,0.346968,1.124840,0.420000,0.560000,0.140000
55.431326,0.112728,0.049288,1.011624,-1.260000,-3.640000,-1.540000
55.435392,-0.151768,-0.155672,0.817888,0.140000,-0.140000,-1.400000
55.439459,-0.157624,0.091256,0.996496,0.560000,1.960000,-0.560000
55.443525,0.021960,0.045872,1.256600,-3.500000,-6.580000,0.560000
55.447591,-0.020008,-0.001464,1.034072,-2.800000,-2.240000,0.000000
55.451657,-0.038064,0.210328,0.962336,1.260000,2.240000,-0.700000
55.455723,-0.046848,0.028792,0.840336,0.420000,-4.340000,-0.840000
55.459789,0.015616,-0.204960,0.845704,-3.220000,-7.280000,0.560000
55.463855,-0.069784,0.090768,1.303936,-0.980000,1.120000,-0.140000
55.467921,-0.024888,0.208376,1.387872,1.540000,-2.100000,-2.660000
55.471987,-0.080520,0.011224,0.573888,-1.960000,-7.560000,-0.560000
55.476054,-0.050752,-0.071736,0.641232,-0.140000,-0.420000,0.840000
55.480120,0.079544,0.069784,1.453264,0.280000,-4.200000,-0.980000
55.484186,0.045384,0.122488,1.132648,-3.080000,-3.920000,-1.260000
55.488252,-0.234728,0.011224,0.634400,-1.120000,0.420000,0.560000
55.492318,-0.147376,-0.061976,1.027240,1.260000,-2.240000,0.000000
55.496384,0.135176,0.055144,1.217072,-3.920000,-10.640000,0.280000
55.500450,0.116144,0.228872,0.818864,-2.940000,-0.560000,0.280000
55.504516,-0.105408,0.079544,0.891088,3.080000,5.880000,-2.800000
55.508582,-0.193248,-0.294264,1.102880,1.400000,-8.120000,-2.100000
55.512649,0.021960,0.020984,0.950136,-5.460000,-5.740000,1.400000
55.516715,0.053192,0.381616,1.156560,-1.540000,3.080000,1.120000
55.520781,-0.082960,-0.000976,1.102392,3.220000,1.960000,-1.820000
55.524847,-0.060512,-0.223504,0.512888,-0.280000,-1.400000,0.560000
55.528913,0.070760,0.179584,1.037976,-2.800000,5.740000,0.840000
55.532979,0.017568,0.086376,1.498160,-2.240000,3.780000,-1.260000
55.537045,-0.148352,-0.120536,0.936472,-0.560000,-1.680000,-1.960000
55.541111,-0.168360,0.107360,0.700768,0.560000,0.560000,-0.980000
55.545177,0.025864,0.168360,1.065304,1.120000,-0.980000,-0.840000
55.549244,0.155672,-0.095160,1.121912,-3.640000,-9.240000,-0.140000
55.553310,-0.083936,0.123952,0.788120,-2.100000,6.300000,-0.980000
55.557376,-0.100040,0.109800,1.119472,2.100000,6.160000,-2.520000
55.561442,-0.074664,-0.221552,0.913536,-0.840000,-6.580000,-0.700000
55.565508,-0.071248,0.095648,1.156072,-2.520000,-0.280000,0.420000
55.569574,0.075152,0.302560,1.105808,-0.840000,5.180000,-1.540000
55.573640,-0.020496,0.017080,0.868152,2.100000,-1.120000,-1.680000
55.577706,-0.203008,-0.261568,0.599752,0.000000,-3.360000,1.400000
55.581772,0.040992,0.117120,1.331264,-0.840000,2.100000,1.260000
55.585839,0.128344,0.188368,1.338584,-4.060000,-0.700000,0.000000
55.589905,-0.156160,0.029280,0.828624,0.280000,2.800000,-1.120000
55.593971,-0.165432,-0.058072,0.763720,1.540000,4.480000,-1.680000
55.598037,0.084912,0.061488,1.039440,-1.540000,-3.640000,-1.540000
55.602103,0.098088,0.074176,1.024312,-3.640000,-6.160000,0.280000
55.606169,-0.109312,0.113704,1.057984,0.000000,6.580000,-1.540000
55.610235,-0.201056,-0.069784,1.158512,3.360000,-0.560000,-2.800000
55.614301,0.055632,-0.130296,0.714432,-2.660000,-8.680000,0.700000
55.618367,0.016104,0.198128,1.112640,-4.060000,3.220000,2.240000
55.622433,-0.042456,0.194224,1.314672,1.820000,7.280000,-1.260000
55.626500,-0.032208,-0.104432,0.694912,3.080000,-4.760000,-1.820000
55.630566,-0.062464,-0.055632,0.544120,-2.240000,-1.680000,1.120000
55.634632,-0.087352,0.110288,1.498160,-0.560000,1.400000,0.840000
55.638698,0.075640,0.040504,1.239032,-1.540000,-4.480000,-0.840000
55.642764,-0.098576,0.144936,0.568032,-2.240000,3.080000,-1.400000
55.646830,-0.083448,0.021960,0.935984,1.680000,4.900000,-2.100000
55.650896,0.011712,-0.133712,1.277096,-1.400000,-6.860000,-0.420000
55.654962,-0.020008,0.101992,0.812032,-2.940000,-2.240000,1.540000
55.659028,0.030744,0.201056,0.994544,-1.540000,7.140000,-0.140000
55.663095,-0.193248,-0.122976,1.151680,2.660000,-1.820000,-2.100000
55.667161,-0.071248,-0.135176,0.886208,-0.420000,-7.000000,0.840000
55.671227,0.089792,0.294264,0.997960,-5.180000,3.220000,1.260000
55.675293,0.057584,0.193248,1.191696,-0.840000,3.360000,-1.960000
55.679359,-0.172264,-0.246928,0.818376,3.360000,-2.380000,-1.540000
55.683425,-0.095160,-0.026840,0.828624,-0.560000,0.980000,0.000000
55.687491,0.071248,0.235704,1.314184,-2.660000,-0.980000,0.140000
55.691557,0.019032,0.014152,1.073600,-1.960000,-2.240000,0.560000
55.695623,-0.181048,0.002440,0.749080,0.560000,4.760000,-0.840000
55.699690,-0.033184,0.084424,1.004792,1.680000,-0.700000,-2.240000
55.703756,0.156160,-0.007320,0.894016,-3.220000,-8.400000,0.140000
55.707822,-0.098576,0.043920,0.996496,-3.220000,3.220000,0.700000
55.711888,-0.121512,0.071736,1.281000,2.800000,6.860000,-2.100000
55.715954,0.014152,-0.011712,0.830088,0.980000,-4.060000,-2.100000
55.720020,-0.071248,0.028792,0.649528,-2.800000,-0.280000,1.540000
55.724086,-0.072712,0.150304,1.331752,-2.800000,4.060000,1.680000
55.728152,0.069296,-0.021472,1.064328,-1.120000,-2.100000,-0.560000
55.732218,-0.035624,0.003904,0.645624,0.420000,-0.420000,-1.120000
55.736285,-0.129808,0.056608,1.001376,-0.280000,5.740000,-0.980000
55.740351,-0.047336,-0.066856,1.455704,-1.960000,-5.040000,-0.560000
55.744417,0.017568,0.073200,0.755424,-3.780000,-3.360000,0.280000
55.748483,-0.011224,0.273768,0.815448,0.140000,7.980000,-1.960000
55.752549,-0.131272,-0.073688,1.169248,2.100000,-2.100000,-2.940000
55.756615,0.010248,-0.187880,0.878400,-3.780000,-7.980000,0.840000
55.760681,-0.007808,0.181048,0.999912,-5.320000,4.480000,0.980000
55.764747,-0.057096,0.176656,1.199992,1.820000,3.640000,-2.380000
55.768813,-0.064904,-0.112728,0.943792,3.220000,-4.620000,-1.960000
55.772880,-0.070272,0.003416,0.799832,-4.620000,-1.260000,1.540000
55.776946,0.021472,0.209352,1.121912,-3.500000,1.120000,0.700000
55.781012,0.058560,-0.018056,0.868152,-0.140000,-3.220000,-0.560000
55.785078,-0.135664,-0.038552,0.975024,0.560000,4.340000,-1.120000
55.789144,-0.067344,0.082960,1.210728,-1.120000,1.260000,-0.700000
55.793210,0.001464,0.027328,0.863760,-2.660000,-5.320000,0.700000
55.797276,-0.057096,0.053680,0.614880,-0.420000,3.080000,-0.280000
55.801342,0.059048,0.076128,1.360056,-0.420000,2.940000,-2.800000
55.805408,-0.101504,0.020008,1.081896,-1.820000,-5.600000,-1.680000
55.809474,-0.070272,-0.024400,0.468480,-2.660000,0.140000,0.700000
55.813541,0.042456,0.047824,1.113616,-2.660000,1.260000,-0.980000
55.817607,-0.020984,0.018544,1.367864,-1.680000,-2.380000,-1.960000
55.821673,-0.166408,0.083936,0.871080,0.980000,1.820000,-0.280000
55.825739,-0.050264,0.075640,0.713944,-1.540000,2.940000,0.280000
55.829805,0.064416,-0.020496,0.938424,-0.700000,-5.460000,-0.420000
55.833871,0.066856,0.017080,1.099464,-2.800000,0.000000,0.140000
55.837937,-0.157136,0.142984,1.092144,1.120000,6.720000,-1.820000
55.842003,-0.132736,-0.086376,0.883768,0.980000,-4.480000,-1.540000
55.846069,0.030256,-0.001952,0.719312,-4.340000,-4.200000,0.420000
55.850136,0.020496,0.194224,1.247816,-3.220000,4.480000,0.000000
55.854202,-0.102968,0.046360,1.166320,1.400000,0.000000,-2.380000
55.858268,-0.101016,-0.113216,0.451400,-0.140000,-3.220000,0.280000
55.862334,0.110288,0.189344,0.983320,-3.640000,1.680000,1.120000
55.866400,0.028304,0.042944,1.169736,-3.080000,-0.420000,-0.560000
55.870466,-0.122488,-0.140544,0.865224,0.560000,0.980000,-1.820000
55.874532,-0.147864,0.066856,0.967216,0.140000,3.500000,-1.820000
55.878598,-0.020984,0.137128,1.186816,-1.260000,-4.200000,-0.560000
55.882664,0.046848,0.053680,0.726144,-4.340000,-4.200000,0.000000
55.886731,-0.042456,0.049776,0.913048,-1.960000,4.620000,-1.400000
55.890797,-0.119072,-0.028792,1.077504,1.540000,-3.500000,-2.100000
55.894863,-0.022448,-0.021960,0.756400,-0.840000,-2.240000,0.420000
55.898929,0.104432,0.182512,0.993568,-2.940000,4.060000,0.140000
55.902995,-0.014640,-0.043432,1.163880,-1.680000,-0.700000,-1.960000
55.907061,-0.296216,-0.069784,0.772504,3.780000,-1.540000,-1.260000
55.911127,-0.001464,0.054656,1.048712,0.000000,2.660000,-0.280000
55.915193,0.123464,0.120536,1.134600,-1.960000,-5.740000,-0.560000
55.919259,-0.036112,0.140056,0.609512,-0.280000,1.260000,-1.680000
55.923326,-0.191296,-0.020984,0.764696,2.940000,5.740000,-1.120000
55.927392,0.063928,-0.122488,1.255624,-2.520000,-5.740000,0.280000
55.931458,0.010736,0.126392,0.881328,-4.900000,-0.980000,2.380000
55.935524,-0.020496,0.169824,0.842776,-0.560000,8.960000,-0.980000
55.939590,-0.125904,-0.156160,0.934520,1.540000,-4.620000,-2.380000
55.943656,-0.064904,-0.012200,0.961848,-1.400000,-1.960000,0.000000
55.947722,0.000488,0.123464,1.174616,-2.380000,2.240000,-0.280000
55.951788,-0.040016,0.086864,1.032120,1.260000,-4.200000,-3.080000
55.955854,-0.091744,0.049288,0.335744,0.980000,-1.120000,-0.700000
55.959921,0.089792,0.117120,1.138504,-2.800000,3.500000,0.560000
55.963987,-0.050264,-0.101504,1.215608,-1.820000,-2.800000,0.000000
55.968053,-0.072712,0.012200,0.666120,2.240000,1.960000,-1.260000
55.972119,-0.026352,0.118584,0.954528,-0.840000,3.920000,-1.120000
55.976185,-0.060512,0.037088,0.993080,-2.100000,-3.080000,0.420000
55.980251,-0.049288,-0.045384,0.878888,-0.280000,-1.260000,0.280000
55.984317,0.031232,0.020984,1.236592,-1.540000,1.680000,-1.680000
55.988383,-0.192760,0.064416,0.940376,0.840000,-2.520000,-2.380000
55.992449,-0.026352,0.125904,0.581696,-0.980000,0.980000,1.120000
55.996515,0.148352,0.069296,1.080920,-3.640000,0.280000,0.000000
56.000582,-0.060024,-0.100040,0.937936,0.700000,-1.400000,-1.260000
56.004648,-0.225456,0.014152,0.794952,3.220000,3.500000,-0.420000
56.008714,0.091744,0.073200,1.203896,-3.640000,-0.140000,0.280000
56.012780,0.031232,0.026352,0.962336,-4.060000,-3.920000,-0.280000
56.016846,-0.130784,0.070760,0.647576,1.680000,5.320000,-1.540000
56.020912,-0.133712,0.024400,1.210240,0.840000,0.560000,-1.540000
56.024978,-0.021472,-0.055632,1.046760,-3.780000,-7.700000,1.680000
56.029044,0.038064,0.161528,0.835944,-2.380000,2.660000,0.840000
56.033110,0.049288,0.101504,0.888160,0.000000,1.400000,-3.220000
56.037177,-0.127856,0.007320,0.648552,2.240000,-1.960000,-1.680000
56.041243,0.009760,-0.071736,1.005768,-4.200000,2.660000,1.400000
56.045309,-0.030744,-0.022936,1.411296,-2.380000,-2.800000,-0.560000
56.049375,-0.191784,0.022936,0.750544,5.040000,-1.400000,-1.400000
56.053441,0.024888,0.190320,0.709552,0.140000,1.820000,1.540000
56.057507,-0.020984,0.033672,1.240984,-5.460000,-2.520000,1.680000
56.061573,-0.077592,-0.080520,0.846192,-0.140000,-2.240000,-0.420000
56.065639,-0.008296,0.131272,0.870592,2.100000,4.340000,-1.820000
56.069705,0.020008,0.093696,0.919392,-3.360000,0.840000,-0.420000
56.073772,-0.085888,0.031720,0.657824,-0.560000,-1.400000,0.560000
56.077838,0.089304,0.004392,0.960384,-1.120000,3.500000,-1.120000
56.081904,-0.065392,-0.080520,1.308816,-0.140000,-3.640000,-2.660000
56.085970,-0.228872,0.037088,0.769576,0.980000,0.980000,-0.140000
56.090036,-0.019032,0.072712,0.989176,-3.220000,2.380000,0.280000
56.094102,0.109800,0.061976,1.002352,-3.360000,-7.980000,-0.840000
56.098168,-0.109312,0.163968,0.739320,2.380000,2.660000,-1.120000
56.102234,-0.036112,-0.010736,0.938424,-0.980000,4.480000,0.280000
56.106300,0.032208,-0.150304,1.080432,-3.920000,-6.720000,-0.420000
56.110367,-0.024888,0.137128,0.797392,-1.260000,2.800000,-1.540000
56.114433,-0.063440,0.185440,1.060424,0.700000,5.880000,-1.960000
56.118499,-0.120048,-0.182024,0.878400,-0.840000,-6.020000,0.560000
56.122565,-0.051728,-0.008296,0.904752,-2.240000,-1.120000,1.820000
56.126631,0.004880,0.169824,1.293688,-0.280000,0.840000,-0.140000
56.130697,-0.068808,0.073200,0.906704,1.400000,-3.640000,-1.540000
56.134763,0.008784,0.016104,0.397232,-2.520000,4.760000,-0.140000
56.138829,0.084424,0.079544,1.175104,-2.240000,-0.140000,-1.120000
56.142895,-0.139568,-0.032696,1.051640,0.140000,-0.980000,-1.680000
56.146962,-0.125416,0.002928,0.859368,0.140000,3.220000,-0.420000
56.151028,0.033672,-0.009272,1.096048,-3.360000,-1.820000,-0.560000
56.155094,-0.070760,0.062952,0.850096,-1.820000,-4.760000,-0.420000
56.159160,-0.028304,0.208376,0.851560,0.140000,5.740000,-1.400000
56.163226,-0.029768,-0.069296,1.180472,-2.240000,-1.400000,-1.120000
56.167292,-0.114680,-0.033672,0.797392,-0.280000,-3.780000,0.280000
56.171358,-0.019520,0.116632,0.804224,-0.560000,4.760000,0.140000
56.175424,0.120048,0.086376,1.178520,-3.920000,-2.380000,-0.840000
56.179490,-0.127856,-0.072712,0.813984,0.840000,-1.260000,-1.680000
56.183556,-0.137128,0.062464,0.939400,2.800000,5.600000,-1.400000
56.187623,-0.048312,0.006344,1.234640,-1.540000,-1.540000,-1.260000
56.191689,-0.005856,0.000976,0.816912,-1.540000,-7.000000,0.980000
56.195755,-0.051728,0.230824,0.768112,0.840000,4.620000,0.000000
56.199821,-0.034160,-0.027328,0.916464,4.200000,-1.680000,-1.260000
56.203887,0.060512,-0.072224,0.908168,-1.540000,-4.620000,0.000000
56.207953,0.000000,0.093696,1.074088,-4.340000,6.580000,-0.840000
56.212019,-0.178120,0.066856,1.118984,1.960000,-2.380000,-2.100000
56.216085,-0.086864,-0.024400,0.494344,3.080000,-0.280000,-0.840000
56.220151,0.136640,0.088816,1.169736,-6.440000,2.520000,0.840000
56.224218,-0.076128,0.043432,1.212192,-3.220000,-4.480000,-1.260000
56.228284,-0.199104,0.053192,0.724680,5.040000,2.520000,-2.660000
56.232350,0.088328,0.030256,0.828624,-1.820000,3.080000,-1.260000
56.236416,0.042456,0.035624,1.066280,-3.920000,-7.280000,0.420000
56.240482,-0.091256,0.078080,0.763232,0.840000,1.540000,-0.980000
56.244548,-0.101016,-0.031720,1.070672,3.220000,3.780000,-2.240000
56.248614,0.028304,-0.098576,1.162904,0.420000,-5.180000,-1.120000
56.252680,-0.116632,0.145912,0.864248,-2.800000,1.120000,1.260000
56.256746,0.023424,0.165432,0.976488,0.700000,4.480000,-1.680000
56.260813,-0.077104,-0.089792,0.841800,3.640000,-5.180000,-2.100000
56.264879,-0.021472,0.043432,0.765672,4.760000,3.220000,0.280000
56.268945,-0.030256,0.049288,1.272216,2.380000,2.100000,1.120000
56.273011,0.003904,-0.082960,0.913048,4.900000,-6.440000,-0.840000
56.277077,-0.051728,0.144936,0.723216,5.180000,3.920000,-1.540000
56.281143,-0.060512,0.101504,1.126792,3.500000,6.160000,-1.400000
56.285209,-0.065880,-0.124440,1.033096,2.940000,-6.440000,-0.420000
56.289275,-0.070760,0.022936,0.882792,2.380000,0.560000,-0.840000
56.293341,-0.100040,0.193736,1.161928,2.380000,2.800000,-1.960000
56.297408,-0.020984,0.025376,0.697352,5.880000,-8.260000,0.560000
56.301474,0.066856,0.054168,0.701744,0.000000,3.220000,1.960000
56.305540,0.027328,-0.051728,1.234152,2.240000,0.700000,-1.400000
56.309606,-0.219112,0.065392,1.083848,8.680000,-1.540000,-2.660000
56.313672,0.006832,0.013176,0.662216,2.660000,4.620000,0.700000
56.317738,0.103456,0.093208,1.162416,-1.820000,-1.680000,0.980000
56.321804,-0.167384,-0.052216,0.927200,6.160000,-3.080000,-1.960000
56.325870,-0.151768,0.080520,1.028704,7.280000,3.360000,-2.100000
56.329936,0.053192,0.042944,1.059936,0.420000,-3.080000,-1.400000
56.334003,0.038064,0.086864,0.861320,-0.560000,-4.340000,-0.280000
56.338069,-0.103944,0.078568,0.589992,5.040000,5.040000,-0.840000
56.342135,-0.021472,-0.006344,1.320040,5.460000,0.840000,-1.960000
56.346201,-0.041480,-0.080520,0.986248,1.120000,-4.620000,0.560000
56.350267,-0.050264,0.099552,0.762744,1.820000,3.640000,1.120000
56.354333,0.001464,0.099064,1.107272,4.340000,1.680000,-2.660000
56.358399,-0.101992,-0.012200,1.041880,6.020000,-5.320000,-2.240000
56.362465,-0.070760,0.057096,0.843264,1.960000,2.800000,0.700000
56.366531,-0.044408,0.076616,1.115080,1.400000,0.980000,-0.980000
56.370597,0.065392,0.039040,0.760792,4.200000,-4.900000,-2.660000
56.374664,-0.026840,0.067344,0.785192,3.920000,2.660000,-0.560000
56.378730,-0.164944,0.027816,1.243424,3.360000,2.660000,-0.700000
56.382796,-0.010248,-0.178608,1.005768,3.920000,-9.520000,-0.140000
56.386862,0.064416,0.174704,0.811544,1.960000,2.660000,-0.700000
56.390928,-0.107360,0.161528,1.166320,5.600000,5.320000,-2.100000
56.394994,-0.144448,-0.070272,0.989176,8.260000,-6.580000,-0.980000
56.399060,0.028304,-0.066368,0.825208,2.100000,-0.420000,0.000000
56.403126,0.073200,0.285968,1.072136,2.660000,4.060000,-2.240000
56.407192,-0.110288,0.021472,0.815936,9.660000,-2.100000,-2.380000
56.411259,-0.095648,-0.163968,0.798368,3.080000,-0.560000,1.400000
56.415325,-0.032696,0.092720,1.324920,0.560000,2.660000,0.140000
56.419391,0.005368,0.100040,0.925248,5.040000,-3.920000,-0.980000
56.423457,-0.038552,0.045384,0.746640,5.040000,1.400000,-1.120000
56.427523,-0.112240,0.004392,1.179984,3.360000,1.960000,-0.980000
56.431589,-0.040016,0.004880,1.104832,3.080000,-5.460000,-1.260000
56.435655,-0.016592,0.141520,0.643672,4.200000,1.400000,-0.700000
56.439721,0.051728,0.133712,0.990152,3.500000,4.060000,-1.960000
56.443787,-0.120536,-0.190808,1.128744,1.960000,-6.020000,-0.840000
56.447854,-0.134688,0.066856,0.807152,3.920000,0.700000,0.280000
56.451920,0.055144,0.123952,1.019432,2.240000,2.660000,-0.140000
56.455986,0.023912,0.017080,1.191696,2.800000,-4.900000,-0.840000
56.460052,-0.233752,0.000488,0.923296,4.480000,-0.560000,0.700000
56.464118,-0.023424,0.104432,0.923784,4.060000,4.620000,-0.280000
56.468184,0.126880,0.027816,0.941352,1.960000,-4.060000,-2.100000
56.472250,-0.031720,0.032208,0.878888,2.660000,0.700000,-1.540000
56.476316,-0.175680,0.081984,1.168760,5.320000,5.040000,-1.680000
56.480382,-0.079056,-0.078080,0.906216,3.920000,-3.640000,-0.840000
56.484449,0.044896,0.025376,0.739808,-0.700000,-3.220000,1.260000
56.488515,-0.053680,0.174216,1.309304,0.560000,6.580000,-0.280000
56.492581,-0.151768,0.038064,1.243912,6.160000,-3.220000,-2.100000
56.496647,-0.012688,-0.072712,0.445056,2.100000,-2.380000,0.000000
56.500713,0.040504,0.175192,0.877424,0.000000,2.380000,0.980000
56.504779,-0.028304,0.070760,1.432768,2.660000,-1.120000,-2.100000
56.508845,-0.058560,-0.130784,0.777384,-0.280000,-2.800000,-1.120000
56.512911,-0.081984,0.153720,0.666608,-2.240000,3.640000,0.000000
56.516977,-0.081984,-0.015128,1.313208,-0.980000,-2.940000,-0.700000
56.521043,-0.024888,-0.040992,1.146312,-1.260000,-3.640000,-0.700000
56.525110,-0.038552,0.182512,0.985760,-1.400000,1.540000,-0.560000
56.529176,-0.065392,0.165432,0.822280,1.120000,-0.420000,-0.980000
56.533242,-0.039528,-0.199592,0.786656,1.120000,-5.320000,0.840000
56.537308,0.057584,0.035136,1.181936,1.680000,0.840000,-0.420000
56.541374,0.037088,0.208376,1.303936,-1.400000,1.260000,-2.940000
56.545440,-0.275232,-0.017568,0.520696,0.420000,-0.140000,-0.700000
56.549506,-0.079056,-0.109312,0.921344,-0.700000,-0.280000,2.100000
56.553572,0.090768,0.094184,1.511336,-3.500000,-2.940000,0.000000
56.557638,-0.005368,0.184464,0.841800,-2.240000,0.560000,-0.700000
56.561705,-0.152744,0.109800,0.442128,2.100000,2.940000,-0.560000
56.565771,0.013664,-0.080032,1.181936,1.120000,-1.400000,-1.820000
56.569837,0.087840,-0.105408,1.245864,-2.940000,-8.960000,-0.980000
56.573903,-0.128832,0.243024,0.740296,-1.960000,3.220000,-0.420000
56.577969,-0.144448,0.059536,0.992592,2.100000,0.980000,-1.680000
56.582035,0.020496,-0.236192,1.071160,-2.240000,-8.540000,0.140000
56.586101,-0.069296,0.165432,1.120448,-3.360000,1.820000,0.280000
56.590167,-0.002440,0.211792,0.956968,-0.560000,4.200000,-1.680000
56.594233,-0.055144,0.009760,0.770552,2.520000,-7.140000,-1.680000
56.598300,-0.032208,-0.110776,0.774456,-1.680000,-0.140000,1.120000
56.602366,-0.042456,0.096624,1.352248,-0.140000,0.140000,-0.560000
56.606432,0.054656,0.068320,1.074576,-1.120000,-6.860000,-2.240000
