Time [s],lsm6dsv16x_acc_x [g],lsm6dsv16x_acc_y [g],lsm6dsv16x_acc_z [g],lsm6dsv16x_gyro_x [dps],lsm6dsv16x_gyro_y [dps],lsm6dsv16x_gyro_z [dps]
83.678508,0.038552,-0.155184,0.794464,-3.360000,-13.440001,3.080000
83.682574,0.090768,0.024888,1.067744,-4.340000,-5.180000,1.400000
83.686640,0.035136,0.222040,1.226344,-1.120000,-3.780000,-3.360000
83.690706,-0.154696,0.016592,0.787144,2.520000,-7.280000,-0.840000
83.694772,0.033672,-0.095648,0.767136,-3.500000,-5.880000,1.120000
83.698838,0.032696,0.082960,1.189256,-4.760000,-9.240000,-1.260000
83.702905,-0.012688,0.183000,0.906216,2.940000,-7.140000,-1.260000
83.706971,0.053192,0.051728,0.796416,-1.260000,-3.780000,-0.420000
83.711037,-0.069296,-0.006832,0.943792,-4.340000,-11.900000,0.420000
83.715103,-0.010248,0.092720,0.798856,-1.680000,-8.400000,1.260000
83.719169,0.223016,0.059536,1.100928,-3.640000,-0.280000,-0.280000
83.723235,-0.041968,0.031720,1.191696,0.420000,-3.360000,-2.800000
83.727301,-0.180072,0.063928,0.535824,2.380000,3.640000,-0.700000
83.731367,0.113216,-0.001952,1.185352,-3.920000,-0.840000,0.420000
83.735433,0.038552,0.012688,1.150704,-3.220000,-7.840000,-1.400000
83.739499,-0.091744,0.187392,0.626104,3.080000,-0.420000,-2.660000
83.743565,-0.043432,0.085400,0.943792,-0.280000,-3.360000,0.000000
83.747631,0.066856,-0.097112,0.991128,-2.660000,-13.440001,1.820000
83.751698,0.088816,0.114192,0.743224,-2.940000,-3.220000,0.700000
83.755764,0.063440,0.244000,1.112640,-1.260000,4.620000,-1.960000
83.759830,-0.124928,-0.081984,0.981856,1.260000,-4.760000,-0.420000
83.763896,-0.019520,-0.058072,0.689544,-1.540000,-0.980000,1.680000
83.767962,0.104920,0.113704,1.236592,-5.180000,-4.480000,0.980000
83.772028,-0.035136,0.057584,1.005768,0.000000,-5.880000,-0.840000
83.776094,0.024400,0.048800,0.847656,0.840000,-0.980000,-1.680000
83.780160,-0.075640,0.109800,1.005280,-1.540000,-4.060000,-1.400000
83.784226,-0.008296,-0.011224,0.896456,-1.960000,-7.420000,0.140000
83.788292,0.078080,0.109312,0.925736,-2.660000,0.980000,-0.560000
83.792358,0.022936,0.089304,1.108248,-0.140000,-3.920000,-2.240000
83.796424,-0.139568,0.113704,0.657824,0.980000,-6.440000,0.700000
83.800491,0.052216,0.006832,0.930128,-3.640000,0.280000,2.380000
83.804557,0.180072,-0.086376,1.238544,-5.040000,-8.960000,-0.840000
83.808623,-0.092232,0.174216,0.881816,2.800000,-2.240000,-2.940000
83.812689,-0.126880,0.119560,0.881328,1.400000,4.200000,-0.560000
83.816755,0.087840,-0.154696,1.128256,-2.520000,-8.960000,0.560000
83.820821,-0.035136,0.047336,0.913048,-1.540000,-6.720000,0.280000
83.824887,-0.014152,0.264984,0.950136,-0.700000,4.340000,-0.420000
83.828953,0.050264,0.003904,1.059936,-0.420000,-5.040000,-1.120000
83.833019,-0.082960,-0.044408,0.579744,-1.120000,-6.020000,1.260000
83.837085,-0.025864,0.169824,0.987712,-2.940000,1.400000,1.680000
83.841151,0.164944,0.001464,1.226344,-1.820000,-7.000000,-1.120000
83.845217,-0.020496,0.076128,0.725168,0.420000,-2.100000,-2.100000
83.849284,-0.097600,0.104920,0.843264,0.560000,3.920000,-0.980000
83.853350,0.020984,-0.047824,1.180960,-2.380000,-7.420000,0.000000
83.857416,0.089304,-0.041480,0.857904,-0.840000,-3.220000,-1.260000
83.861482,-0.006832,0.198616,1.085800,0.000000,9.660000,-2.380000
83.865548,-0.162016,0.043432,1.111664,1.680000,-1.680000,-0.840000
83.869614,0.062952,-0.092232,0.496784,-2.380000,0.560000,2.100000
83.873680,0.161528,0.118584,1.092632,-2.520000,6.580000,-0.560000
83.877746,-0.089304,0.225456,1.288320,1.540000,3.080000,-3.780000
83.881812,-0.062464,-0.064904,0.624640,1.680000,0.560000,-2.100000
83.885878,-0.016104,-0.000976,0.706136,-2.940000,0.420000,-0.140000
83.889944,0.005368,0.090768,1.253672,1.120000,-2.520000,-0.980000
83.894010,0.095648,0.052216,0.978928,0.560000,0.280000,0.140000
83.898077,-0.009272,0.125904,0.981368,2.100000,8.120000,-2.520000
83.902143,-0.158600,-0.097112,1.039440,1.960000,0.000000,-1.820000
83.906209,-0.008784,-0.064904,0.756888,0.420000,-4.200000,1.540000
83.910275,0.129320,0.176168,1.174616,-3.360000,4.060000,0.700000
83.914341,-0.025376,0.218624,1.254160,0.000000,2.660000,-2.940000
83.918407,-0.128832,-0.035624,0.501176,4.200000,0.140000,-1.400000
83.922473,0.102968,-0.126392,0.796416,-3.360000,-2.520000,-0.840000
83.926539,0.046848,0.186904,1.351760,-1.820000,-3.220000,-2.660000
83.930605,-0.003416,0.226920,0.895968,2.240000,6.300000,-1.960000
83.934671,-0.097600,0.017080,0.901336,0.280000,5.600000,-0.980000
83.938737,-0.073200,-0.235216,1.097512,0.980000,-8.680000,-1.400000
83.942803,0.041480,-0.005368,0.890600,-0.420000,-5.600000,0.700000
83.946870,0.005368,0.335744,1.279536,-2.240000,7.700000,0.700000
83.950936,-0.001952,0.090768,1.050664,3.640000,1.680000,-2.520000
83.955002,-0.024888,-0.124928,0.555832,3.640000,-3.500000,-2.660000
83.959068,-0.026352,0.106872,0.975512,-1.680000,0.980000,-1.120000
83.963134,0.051240,0.102968,1.355664,-0.140000,-5.040000,0.280000
83.967200,-0.027816,-0.018544,0.745176,1.540000,0.840000,-0.280000
83.971266,-0.061488,0.132248,1.198040,1.960000,6.720000,-3.360000
83.975332,-0.007808,-0.029768,1.106784,-0.280000,-6.020000,-3.220000
83.979398,-0.021960,0.026352,0.617320,-1.680000,-4.480000,0.700000
83.983464,0.027328,0.172752,1.016992,0.000000,4.900000,-0.280000
83.987530,0.018544,0.084424,1.175104,2.100000,-1.120000,-2.100000
83.991596,-0.034648,-0.065392,0.891576,0.420000,0.560000,-1.400000
83.995663,-0.050264,0.019520,1.078480,-0.560000,0.140000,-1.540000
83.999729,-0.049288,0.058560,1.016992,3.500000,-4.620000,-2.800000
84.003795,0.022936,0.094672,0.802272,-2.380000,-0.560000,0.420000
84.007861,0.087840,0.243024,1.124840,-2.100000,7.140000,-1.120000
84.011927,-0.101504,-0.063440,1.095560,3.500000,-2.800000,-3.500000
84.015993,-0.104432,-0.166408,0.722240,-0.560000,-2.240000,-1.540000
84.020059,0.068808,0.124928,1.154120,-3.500000,0.420000,0.000000
84.024125,0.047336,0.237656,1.252208,-0.420000,-0.140000,-1.680000
84.028191,-0.126392,0.086376,0.658312,3.220000,3.780000,-2.380000
84.032257,-0.012688,-0.053192,0.777872,0.420000,-0.980000,-0.840000
84.036323,-0.003416,-0.100040,1.258552,-1.960000,-11.060000,-0.840000
84.040390,0.000976,0.044896,1.081408,-2.240000,-6.860000,0.000000
84.044456,-0.078568,0.293776,0.933056,2.100000,6.160000,-1.120000
84.048522,-0.013664,0.020984,1.155584,1.400000,-5.040000,-2.100000
84.052588,0.066368,-0.167384,0.704184,-3.500000,-9.520000,0.420000
84.056654,-0.014152,0.134200,0.971120,-0.980000,3.780000,0.000000
84.060720,-0.055632,0.116144,1.406416,1.820000,3.920000,-1.820000
84.064786,0.015128,-0.021960,1.047736,1.540000,-5.040000,-2.520000
84.068852,-0.042456,0.055144,0.691496,0.000000,-2.100000,-2.380000
84.072918,-0.113216,0.162504,1.046272,2.380000,-5.180000,-2.660000
84.076984,0.080032,-0.067344,0.963800,-1.820000,-12.040000,-0.420000
84.081050,-0.027328,0.103456,0.893528,-2.100000,-2.240000,1.540000
84.085116,0.003904,0.190808,1.379576,2.940000,6.300000,-1.540000
84.089183,-0.068808,-0.116632,0.950624,3.360000,-7.420000,-2.380000
84.093249,-0.052216,-0.003416,0.625128,-2.100000,-6.300000,0.700000
84.097315,0.065392,0.172752,1.232200,-2.520000,-0.280000,1.120000
84.101381,-0.055144,0.113704,1.247328,3.220000,-3.080000,-2.240000
84.105447,-0.036600,-0.035624,0.813008,1.680000,-6.300000,-2.380000
84.109513,0.028792,0.057584,0.832040,-0.140000,-3.920000,-1.260000
84.113579,0.028792,0.001464,1.219024,-2.380000,-10.640000,-0.840000
84.117645,-0.110776,-0.003416,1.064328,-0.560000,-4.620000,-0.980000
84.121711,-0.040016,0.201544,0.957944,2.940000,3.920000,-1.960000
84.125777,0.073688,0.128832,1.206336,-0.420000,-4.480000,-2.240000
84.129843,-0.043432,-0.091744,0.741272,-2.100000,-10.500000,-0.840000
84.133909,-0.078568,-0.049288,0.666120,0.140000,-3.500000,0.700000
84.137976,0.028792,0.202032,1.482056,0.280000,-2.800000,-1.120000
84.142042,0.094184,0.105896,1.202432,-1.260000,-5.600000,-1.820000
84.146108,-0.167384,0.033672,0.551440,-1.680000,-2.240000,-0.700000
84.150174,-0.137128,-0.066856,0.985760,2.100000,-4.760000,-1.540000
84.154240,0.163480,0.025864,1.494256,-3.220000,-10.220000,-0.140000
84.158306,0.042456,0.257664,0.809592,-4.200000,1.540000,0.000000
84.162372,-0.090280,0.173240,0.861808,2.100000,9.800000,-2.800000
84.166438,-0.012200,-0.228384,1.179008,0.700000,-5.320000,-3.360000
84.170504,-0.004392,-0.111264,0.979904,-5.880000,-5.880000,-0.700000
84.174570,-0.051728,0.356728,1.034072,-3.780000,5.880000,0.420000
84.178636,-0.011224,0.259616,1.187304,2.800000,7.280000,-2.800000
84.182702,-0.031720,-0.283528,0.930128,0.700000,-8.260000,-2.660000
84.186769,-0.002928,-0.029280,0.818864,-4.620000,-4.200000,-0.560000
84.190835,-0.075640,0.346480,1.058472,0.420000,6.020000,-0.700000
84.194901,0.064416,0.009272,1.261968,-1.540000,-3.220000,-1.120000
84.198967,-0.026352,-0.109312,1.048224,-5.880000,-3.220000,-0.700000
84.203033,-0.138592,0.144448,0.767136,-1.260000,6.300000,-1.120000
84.207099,0.045872,0.144448,1.105320,-1.260000,-2.940000,-1.680000
84.211165,0.091744,-0.094672,1.160952,-7.420000,-5.460000,0.140000
84.215231,-0.084912,0.054656,0.990640,-0.140000,4.900000,-0.700000
84.219297,-0.113216,0.236192,1.045296,4.340000,7.280000,-3.780000
84.223363,-0.012200,-0.042456,1.051152,-0.280000,-8.400000,-1.820000
84.227429,0.089304,-0.157624,1.002352,-6.860000,-6.720000,2.100000
84.231495,-0.082472,0.313784,1.029680,-0.140000,11.060000,0.000000
84.235562,-0.060512,0.258640,1.189744,6.300000,9.100000,-4.060000
84.239628,0.105896,-0.271816,0.976488,-2.100000,-12.040000,-1.540000
84.243694,-0.087352,-0.109312,0.908168,-7.840000,-2.800000,1.820000
84.247760,-0.150304,0.377224,1.226344,3.080000,7.980000,-0.280000
84.251826,0.131272,0.149816,1.180472,6.860000,1.260000,-3.500000
84.255892,0.086864,-0.186904,1.016992,-3.920000,-5.600000,-1.820000
84.259958,-0.176656,0.060512,0.876448,-1.540000,4.760000,-0.700000
84.264024,-0.025864,0.175680,0.982832,1.960000,2.660000,-1.260000
84.268090,0.026352,-0.013176,1.217560,-2.100000,-3.640000,-0.560000
84.272156,-0.009760,0.009272,1.078480,-0.980000,1.680000,0.840000
84.276222,-0.097600,0.258640,1.109224,1.960000,5.740000,-0.280000
84.280288,-0.026840,-0.003904,0.893528,1.820000,-4.200000,-1.260000
84.284355,0.141520,-0.227896,0.962336,-3.780000,-7.840000,0.280000
84.288421,-0.081496,0.231312,1.182424,-2.520000,7.700000,0.000000
84.292487,-0.064904,0.416752,1.226344,5.180000,8.960000,-2.940000
84.296553,0.013664,-0.238144,0.984784,-1.820000,-7.980000,-2.240000
84.300619,-0.155184,-0.272792,0.833992,-6.580000,-10.500000,0.840000
84.304685,-0.030256,0.361608,1.119960,1.680000,1.400000,0.420000
84.308751,0.060512,0.367464,1.169248,2.940000,0.140000,-1.540000
84.312817,0.081496,-0.187392,1.102880,-1.400000,-11.340000,-1.400000
84.316883,-0.096624,-0.182024,0.790560,0.140000,-6.160000,-1.120000
84.320949,-0.110776,0.259128,0.987712,2.380000,3.500000,-2.520000
84.325015,0.076616,0.094672,1.539640,-0.980000,-5.180000,-1.400000
84.329081,-0.054168,-0.049288,1.067256,-2.100000,-7.560000,0.420000
84.333148,-0.201544,0.153720,0.629032,0.420000,-1.960000,1.120000
84.337214,-0.062952,0.105408,0.883768,3.640000,-11.340000,-0.140000
84.341280,0.185928,-0.189344,1.440576,-3.640000,-23.799999,2.240000
84.345346,0.024888,0.177144,0.886208,-6.300000,-6.160000,2.380000
84.349412,-0.124928,0.280112,0.894504,4.760000,3.920000,-1.260000
84.353478,-0.075640,-0.147376,1.303448,4.340000,-10.920000,-2.940000
84.357544,-0.002928,-0.173728,1.046272,-7.560000,-21.840000,0.140000
84.361610,0.009272,0.273768,0.699304,-2.520000,-13.300000,1.260000
84.365676,-0.085888,0.368440,1.122400,3.080000,-3.080000,-1.120000
84.369742,0.026840,-0.149816,1.352248,1.540000,-14.280000,-0.980000
84.373808,0.066368,-0.171776,0.653920,-3.360000,-17.639999,0.700000
84.377874,-0.152256,0.122976,1.136552,-0.560000,-5.880000,0.560000
84.381941,-0.016104,0.268400,1.498160,2.100000,-6.720000,-0.700000
84.386007,0.105408,0.058560,0.821304,-2.380000,-14.420000,0.140000
84.390073,-0.154696,-0.081496,0.553880,-0.560000,-12.880000,-0.700000
84.394139,-0.077592,0.020008,1.247816,3.500000,-14.700000,-1.260000
84.398205,0.121024,0.138104,1.404464,-3.080000,-19.740000,-0.420000
84.402271,-0.002928,0.013176,0.820816,-5.880000,-16.520000,2.660000
84.406337,-0.104920,0.108336,0.945256,2.380000,-4.620000,-0.420000
84.410403,-0.079544,0.145912,1.104344,3.920000,-7.000000,-3.220000
84.414469,0.087840,-0.074664,1.036024,-3.920000,-23.660000,-0.140000
84.418535,0.026352,-0.054656,0.980392,-6.020000,-19.180000,3.080000
84.422601,-0.163968,0.258640,0.908168,1.960000,-4.060000,1.260000
84.426667,0.022936,0.090768,1.374696,3.780000,-11.760000,-2.100000
84.430734,0.100528,-0.168360,1.179496,-6.160000,-22.400000,-0.280000
84.434800,-0.096624,0.126880,0.590480,-5.040000,-10.920000,1.120000
84.438866,-0.054656,0.258640,1.079944,-0.560000,-3.220000,0.140000
84.442932,0.019032,-0.003416,1.462048,-0.280000,-12.880000,-1.120000
84.446998,0.090768,-0.138104,0.808616,-3.920000,-18.620001,-0.560000
84.451064,-0.090280,0.069296,0.911096,-3.360000,-8.120000,0.280000
84.455130,-0.026352,0.261080,1.409832,0.420000,-0.560000,-1.540000
84.459196,0.126880,0.053192,0.985272,-2.520000,-8.820000,-2.100000
84.463262,-0.052704,-0.154208,0.737856,-3.500000,-5.740000,-1.820000
84.467328,-0.230336,0.019520,1.217072,3.220000,-4.900000,-1.820000
84.471394,0.000488,0.267424,1.299544,0.140000,-11.480000,0.280000
84.475460,0.124928,-0.000488,0.919392,-5.740000,-17.219999,3.220000
84.479527,-0.081008,-0.061976,0.922808,-2.520000,-7.000000,2.240000
84.483593,-0.073200,0.198616,1.028216,6.720000,1.120000,-1.960000
84.487659,0.069784,0.030256,1.332728,0.000000,-11.620000,-0.560000
84.491725,0.105896,-0.122000,1.103856,-7.560000,-15.960000,2.100000
84.495791,-0.163480,0.168848,0.610000,0.560000,-1.820000,0.560000
84.499857,-0.107848,0.227408,1.208288,7.420000,-0.700000,-3.360000
84.503923,0.142496,-0.110288,1.464000,0.420000,-16.520000,-2.660000
84.507989,0.042944,-0.037576,0.717360,-8.260000,-11.760000,1.820000
84.512055,-0.111752,0.192760,0.833016,-0.840000,7.140000,0.840000
84.516121,-0.024888,0.160064,1.492304,3.500000,3.920000,-1.680000
84.520187,-0.018056,-0.071248,0.996496,-0.560000,-9.800000,-1.120000
84.524253,-0.037576,-0.158112,0.862784,-4.480000,-13.580000,2.100000
84.528320,-0.070272,0.279624,1.125816,2.240000,-0.980000,0.980000
84.532386,0.109800,0.242048,1.222440,1.540000,-1.120000,-0.840000
84.536452,0.077104,-0.187392,0.942328,-2.520000,-2.240000,-0.700000
84.540518,-0.135176,-0.040016,0.931592,0.980000,5.320000,-1.260000
84.544584,-0.009272,0.231312,1.193160,-0.140000,3.500000,-1.120000
84.548650,0.020984,0.067832,1.304912,-3.780000,-2.100000,0.700000
84.552716,-0.082960,-0.015616,0.780312,-1.120000,2.100000,-0.140000
84.556782,-0.076616,0.154208,0.816912,4.620000,4.340000,-2.100000
84.560848,0.076128,-0.017568,1.439112,1.400000,-5.460000,-1.680000
84.564914,0.045384,-0.090280,1.103856,-6.020000,-9.240000,2.520000
84.568980,-0.115168,0.207888,0.617320,-2.800000,7.420000,2.660000
84.573046,-0.080032,0.154208,1.335168,5.740000,11.620000,-2.100000
84.577113,0.087840,-0.052704,1.395680,1.820000,-3.640000,-3.220000
84.581179,0.039528,-0.036112,0.711504,-7.280000,-7.280000,0.560000
84.585245,-0.156648,0.076128,0.785192,1.260000,2.660000,1.120000
84.589311,-0.034160,0.245952,1.468392,6.160000,1.960000,-0.700000
84.593377,0.139080,-0.006832,1.163880,-0.560000,-6.160000,-1.680000
84.597443,-0.053192,-0.173240,0.878888,-1.820000,-3.640000,-0.980000
84.601509,-0.105408,0.208376,1.100440,-0.280000,4.340000,-1.680000
84.605575,0.091256,0.171776,1.103856,-0.980000,3.920000,-1.120000
84.609641,-0.075640,-0.060512,1.000888,0.840000,1.260000,-0.840000
84.613707,-0.062464,0.043432,0.974536,0.840000,4.620000,-0.840000
84.617773,-0.006832,0.146888,1.188768,2.940000,-3.080000,-0.840000
84.621839,0.022936,-0.119072,1.103856,-3.640000,-10.220000,2.240000
84.625906,-0.062464,0.037088,0.786168,-2.380000,0.560000,2.660000
84.629972,-0.026352,0.256200,1.055544,4.060000,12.040000,-0.980000
84.634038,0.064904,0.076128,1.621136,1.120000,-1.400000,-3.080000
84.638104,0.094184,-0.118096,0.771040,-5.600000,-8.400000,0.280000
84.642170,-0.197640,0.008296,0.532408,-1.960000,2.800000,1.120000
84.646236,-0.060512,0.189832,1.404464,4.620000,7.140000,-1.680000
84.650302,0.179096,0.139080,1.454240,0.560000,-2.800000,-2.660000
84.654368,-0.053680,-0.069784,0.807152,-3.920000,-2.100000,-1.260000
84.658434,-0.172264,-0.030744,0.896456,-0.560000,0.700000,-0.140000
84.662500,0.017568,0.143472,1.015528,0.000000,-0.840000,0.140000
84.666566,0.082472,0.037576,1.230736,-1.680000,-4.900000,1.400000
84.670632,-0.012688,0.056120,1.055056,0.280000,4.060000,-0.280000
84.674699,-0.012688,0.208864,1.111176,1.260000,5.180000,-3.080000
84.678765,-0.031232,-0.122000,1.112640,-3.080000,-4.620000,-1.540000
84.682831,-0.085888,-0.114680,0.815936,-4.340000,-4.900000,1.120000
84.686897,-0.040504,0.346480,0.949160,0.280000,6.580000,0.000000
84.690963,0.081496,0.159088,1.528904,3.220000,1.540000,-2.100000
84.695029,0.058072,-0.133712,1.085312,-5.040000,-8.960000,-0.700000
84.699095,-0.155672,-0.099064,0.495808,-4.760000,-3.640000,0.980000
84.703161,-0.126880,0.127368,1.174128,4.060000,5.320000,-0.700000
84.707227,0.164944,0.180560,1.605520,-2.660000,-2.940000,-0.560000
84.711293,0.110776,0.103944,0.840824,-4.620000,-2.240000,0.560000
84.715359,-0.188368,-0.072712,0.750056,0.280000,3.920000,-0.700000
84.719425,-0.047824,-0.005368,1.116056,0.840000,-2.520000,-1.540000
84.723492,0.122488,0.028792,1.243912,-2.800000,-7.840000,-0.420000
84.727558,-0.099064,0.138104,1.186816,-2.800000,1.540000,0.700000
84.731624,-0.036600,0.297680,0.917440,3.080000,7.560000,-1.120000
84.735690,-0.007320,-0.116632,1.064328,0.700000,-6.720000,-0.700000
84.739756,0.034648,-0.262544,0.934520,-5.460000,-10.780000,1.260000
84.743822,0.024400,0.232776,1.042856,-1.960000,3.780000,-0.140000
84.747888,-0.056608,0.294264,1.462536,3.080000,7.980000,-4.060000
84.751954,0.041480,-0.038064,1.086288,-1.400000,-4.340000,-2.380000
84.756020,-0.092232,-0.100040,0.510936,-3.920000,-2.380000,0.140000
84.760086,-0.176168,0.025864,1.007232,1.960000,2.660000,0.280000
84.764152,0.127856,0.113704,1.701168,-0.700000,-5.880000,0.420000
84.768218,0.158112,0.144936,0.876448,-4.900000,-2.380000,1.400000
84.772284,-0.214232,0.090768,0.882304,0.560000,7.980000,0.000000
84.776351,-0.081008,-0.044896,0.981856,3.220000,-0.140000,-1.680000
84.780417,0.149328,-0.096624,1.005768,-3.360000,-9.380000,0.420000
84.784483,0.023912,0.100528,1.283440,-3.640000,-1.120000,1.400000
84.788549,-0.079544,0.334280,1.149728,4.060000,10.360000,-2.100000
84.792615,-0.086864,-0.023912,1.050176,1.680000,-3.360000,-2.800000
84.796681,0.017080,-0.297192,0.844728,-5.180000,-9.240000,0.280000
84.800747,0.011224,0.198128,0.903776,-3.220000,2.520000,0.840000
84.804813,0.002928,0.310856,1.401048,1.540000,4.340000,-0.420000
84.808879,0.005856,-0.089792,1.217560,0.000000,-3.640000,-0.420000
84.812945,-0.124928,-0.069784,0.642208,-1.260000,-1.540000,0.420000
84.817011,-0.027328,0.100528,1.071648,1.960000,-0.280000,-1.120000
84.821077,0.110288,0.038064,1.493280,-1.260000,-2.380000,-1.960000
84.825144,0.057096,0.100040,0.811544,-3.920000,0.140000,0.140000
84.829210,-0.125416,0.196176,0.989664,1.400000,9.800000,-0.420000
84.833276,-0.119560,-0.103944,1.203408,1.960000,-0.700000,-1.960000
84.837342,0.053680,-0.111752,0.828624,-3.500000,-11.760000,-0.140000
84.841408,0.105408,0.147376,1.016504,-3.780000,-1.400000,1.120000
84.845474,-0.061000,0.359656,1.375184,0.560000,10.780000,-1.400000
84.849540,-0.057584,-0.071248,1.011624,1.540000,-0.840000,-1.820000
84.853606,-0.036112,-0.324032,0.696864,-1.540000,-6.860000,0.140000
84.857672,-0.048800,0.205448,1.306376,-2.100000,2.380000,0.700000
84.861738,0.141032,0.312320,1.319552,-0.420000,2.100000,-0.980000
84.865804,0.019520,-0.067344,0.851560,-1.820000,0.700000,-1.260000
84.869870,-0.184952,-0.010248,0.748592,2.240000,2.800000,-1.540000
84.873936,0.022448,0.061000,1.218536,0.280000,-0.140000,-1.400000
84.878003,-0.008296,-0.101992,1.261968,-4.480000,-10.500000,0.700000
84.882069,0.021472,0.102480,1.001864,-2.940000,-1.400000,1.120000
84.886135,0.030256,0.325008,0.879864,2.800000,11.760000,-1.540000
84.890201,-0.053680,-0.068320,1.328824,3.500000,1.680000,-3.920000
84.894267,0.043920,-0.248392,0.948672,-3.220000,-9.240000,-1.820000
84.898333,0.007808,0.204472,0.742248,-2.660000,2.800000,-0.140000
84.902399,-0.102480,0.307928,1.395192,0.420000,8.260000,-0.560000
84.906465,-0.025864,-0.085400,1.134600,0.840000,-2.380000,-0.840000
84.910531,-0.038552,-0.091744,0.584624,-1.820000,-3.640000,0.420000
84.914597,-0.021472,0.048800,1.252208,-0.560000,0.560000,0.140000
84.918663,0.142008,0.122976,1.459608,-2.940000,-3.640000,0.700000
84.922729,-0.046848,0.086864,0.660264,-2.800000,1.120000,1.260000
84.926796,-0.141520,0.009760,0.911584,3.080000,6.300000,-0.840000
84.930862,0.081496,0.033184,1.307840,0.700000,-0.840000,-3.080000
84.934928,0.070272,0.061000,1.079456,-4.620000,-9.100000,-1.400000
84.938994,-0.058072,-0.012688,0.762744,-3.220000,1.540000,0.280000
84.943060,-0.101504,0.191784,1.178520,1.820000,10.220000,-2.100000
84.947126,0.035624,0.045384,1.292224,0.980000,-2.240000,-2.940000
84.951192,0.016104,-0.180072,0.936472,-2.800000,-8.260000,0.280000
84.955258,-0.124440,0.100528,0.913048,-3.220000,1.540000,1.540000
84.959324,0.046360,0.292312,1.116056,1.680000,4.200000,-0.560000
84.963390,0.099552,-0.074664,1.173640,0.140000,-2.660000,-1.540000
84.967456,-0.101992,-0.059536,0.893040,-1.820000,1.680000,-1.540000
84.971522,-0.056120,0.152744,1.011624,-0.140000,1.960000,-1.120000
84.975589,0.059536,-0.010736,1.287344,-2.240000,-5.320000,0.140000
84.979655,-0.032696,0.032696,0.914512,-3.640000,0.700000,0.700000
84.983721,-0.014640,0.188368,0.805200,3.220000,8.400000,-2.240000
84.987787,0.020496,0.031232,1.428864,2.240000,-1.120000,-3.220000
84.991853,0.015128,-0.123952,1.022360,-7.140000,-9.940000,0.420000
84.995919,-0.081496,0.016104,0.543632,-3.640000,-0.980000,2.660000
84.999985,-0.110288,0.210816,1.321504,3.500000,8.820000,-0.140000
85.004051,0.161040,0.055632,1.542568,-1.400000,-1.680000,-1.400000
85.008117,0.064416,-0.016592,0.650016,-3.780000,-5.320000,0.280000
85.012183,-0.148352,-0.003904,0.805200,-0.840000,3.500000,0.420000
85.016249,-0.048312,0.081496,1.227808,1.820000,2.100000,-0.840000
85.020315,0.130296,0.080520,1.147776,-0.560000,-6.860000,-0.140000
85.024381,-0.032208,0.072712,0.998936,-1.680000,0.140000,-0.560000
85.028448,-0.099064,0.041968,1.051640,0.280000,3.500000,-1.820000
85.032514,0.048800,-0.040992,0.907680,-2.100000,-6.300000,-0.980000
85.036580,0.050752,-0.005856,1.015040,-4.060000,0.980000,0.280000
85.040646,-0.055632,0.213256,1.182424,1.120000,9.800000,-1.960000
85.044712,-0.006344,0.133224,1.200968,1.820000,-0.140000,-2.660000
85.048778,0.020008,-0.252296,0.769576,-5.320000,-7.840000,0.840000
85.052844,-0.162504,0.038064,0.793000,-0.700000,0.420000,2.240000
85.056910,0.091256,0.319152,1.355176,3.780000,4.760000,-1.260000
85.060976,0.139568,0.034160,1.213656,-3.080000,0.140000,-1.820000
85.065042,-0.088816,-0.097112,0.798368,-3.780000,-1.540000,-0.140000
85.069108,-0.174216,0.058560,0.814960,-0.420000,1.540000,0.420000
85.073174,0.069784,0.003904,1.224880,-1.260000,-4.480000,0.140000
85.077241,0.149816,0.051728,1.282952,-3.920000,-5.180000,1.120000
85.081307,-0.058560,0.269864,0.914024,-1.680000,9.660000,-1.120000
85.085373,-0.095648,0.045872,0.888648,3.500000,4.480000,-3.360000
85.089439,0.003904,-0.344528,0.905240,-3.080000,-9.800000,-0.280000
85.093505,0.017080,0.128344,1.190720,-5.320000,-0.700000,2.520000
85.097571,-0.022448,0.401624,1.133136,1.960000,8.540000,0.140000
85.101637,0.011712,-0.031720,1.305400,1.960000,-2.800000,-1.960000
85.105703,0.017568,-0.259128,0.653432,-3.920000,-6.580000,-0.560000
85.109769,-0.038064,0.203496,0.821304,-3.360000,2.520000,0.280000
85.113835,0.061488,0.155672,1.406904,0.000000,3.220000,-1.120000
85.117901,0.023424,-0.040504,1.113128,-2.380000,-2.660000,-0.560000
85.121967,-0.097600,0.088816,0.716872,-2.520000,3.360000,-0.420000
85.126033,-0.071248,-0.021472,1.029680,1.400000,2.660000,-1.820000
85.130100,0.055144,-0.028792,1.382992,-2.100000,-7.420000,-1.400000
85.134166,0.079056,0.118096,0.928664,-4.340000,-1.120000,0.420000
85.138232,-0.054168,0.266936,0.865224,0.420000,9.940000,-1.120000
85.142298,-0.115656,-0.138104,1.098488,3.080000,-1.820000,-1.820000
85.146364,0.049776,-0.229848,1.037000,-4.060000,-13.020000,1.260000
85.150430,0.089792,0.258640,0.881816,-5.460000,2.800000,2.800000
85.154496,-0.041480,0.318176,1.268312,0.700000,10.080000,-0.560000
85.158562,-0.104920,-0.150304,1.061400,3.220000,-3.360000,-2.100000
85.162628,0.075640,-0.166408,0.657824,-2.800000,-4.340000,-0.280000
85.166694,0.005368,0.221552,1.069696,-2.240000,0.420000,0.000000
85.170760,-0.018056,0.126880,1.525976,0.560000,-1.820000,-1.540000
85.174826,0.047824,-0.067832,0.777872,-2.800000,-2.240000,-1.120000
85.178893,-0.053680,0.112240,0.720776,-1.400000,5.180000,-2.240000
85.182959,-0.009760,0.052216,1.323456,-0.560000,-1.260000,-2.240000
85.187025,0.036600,-0.087840,1.032120,-4.060000,-6.020000,0.000000
85.191091,-0.039040,0.122976,0.718336,-3.640000,4.480000,0.700000
85.195157,-0.035136,0.204472,1.232688,3.500000,6.440000,-2.100000
85.199223,-0.015616,-0.124928,1.256112,1.120000,-6.300000,-2.100000
85.203289,-0.061488,-0.099552,0.738344,-5.180000,-7.700000,1.260000
85.207355,0.070760,0.264496,0.908656,-2.380000,3.920000,1.260000
85.211421,0.040992,0.118096,1.372744,1.400000,2.940000,-1.540000
85.215487,-0.040992,-0.119560,0.965752,0.000000,-4.760000,-1.120000
85.219553,0.012200,0.068320,0.713944,-4.340000,0.980000,1.260000
85.223619,0.023912,0.125904,1.131184,-3.920000,2.800000,0.980000
85.227686,-0.073688,-0.028304,1.224392,-0.700000,-2.380000,-0.420000
85.231752,0.043920,0.035624,0.817400,0.280000,2.520000,-2.100000
85.235818,-0.021472,0.195200,1.023336,1.680000,2.240000,-2.800000
85.239884,-0.000488,-0.068320,1.268312,-1.400000,-7.980000,-1.260000
85.243950,-0.009760,-0.102968,0.747616,-4.900000,-3.920000,0.700000
85.248016,0.017080,0.223992,0.918904,1.680000,7.700000,-1.540000
85.252082,0.034648,0.142496,1.443992,1.120000,2.240000,-2.940000
85.256148,-0.062952,-0.112240,0.915976,-3.360000,-7.000000,0.560000
85.260214,-0.057584,-0.001952,0.483120,-1.540000,0.560000,1.540000
85.264280,0.040016,0.191296,1.233664,1.400000,3.920000,-1.680000
85.268346,0.095160,0.016104,1.442040,-0.420000,-2.940000,-2.660000
85.272412,-0.096624,-0.001952,0.743224,-0.280000,-1.400000,-0.840000
85.276478,-0.124440,0.060024,0.789096,-0.700000,3.080000,-0.980000
85.280545,0.086864,-0.040992,1.307840,-0.840000,-5.880000,-0.980000
85.284611,0.080032,0.130784,1.098976,-2.240000,-0.140000,0.000000
85.288677,-0.081008,0.168848,0.793000,-0.140000,6.160000,-0.700000
85.292743,-0.052704,-0.061976,1.068720,0.980000,-4.060000,-0.420000
85.296809,0.101504,-0.142496,0.950624,-3.220000,-8.400000,1.680000
85.300875,-0.000976,0.196176,0.902800,-1.120000,4.200000,0.280000
85.304941,-0.016104,0.266936,1.281000,3.920000,5.880000,-3.780000
85.309007,0.016592,-0.165920,1.002352,-2.240000,-5.040000,-2.520000
85.313073,-0.126392,-0.074664,0.607560,-3.920000,-1.960000,1.120000
85.317139,0.043432,0.240584,1.168760,-0.140000,5.880000,-0.420000
85.321205,0.102480,0.062952,1.374208,-0.700000,-1.680000,-2.100000
85.325271,0.024888,-0.092720,0.864248,-2.240000,-2.100000,-0.420000
85.329338,-0.217648,0.079544,0.669536,0.560000,3.640000,0.000000
85.333404,0.120536,0.066856,1.263920,1.680000,-1.540000,-2.240000
85.337470,0.138592,0.011224,1.118496,-3.640000,-3.500000,-1.260000
85.341536,-0.130784,0.167872,0.838384,-0.560000,5.460000,-1.260000
85.345602,-0.141032,0.034160,0.895480,1.680000,3.360000,-1.120000
85.349668,0.090280,-0.188856,0.981856,-1.680000,-9.660000,0.140000
85.353734,0.131272,0.080520,1.111176,-4.340000,-1.540000,1.820000
85.357800,-0.128344,0.337696,1.175592,1.960000,9.240000,-1.260000
85.361866,-0.026352,-0.088816,0.936960,2.660000,-2.100000,-1.820000
85.365932,0.048800,-0.220576,0.699304,-3.640000,-6.020000,1.680000
85.369998,-0.007808,0.223016,1.157048,-1.540000,3.080000,1.120000
85.374064,0.065392,0.260592,1.281000,1.680000,4.760000,-3.220000
85.378130,0.004392,-0.159088,0.664168,-0.980000,-4.760000,-2.800000
85.382197,-0.101992,-0.002440,0.733952,-1.960000,2.380000,-0.700000
85.386263,-0.025864,0.140544,1.312232,-0.840000,2.380000,-1.260000
85.390329,0.122000,0.087840,1.115080,-2.940000,-3.920000,-0.980000
85.394395,-0.020008,-0.040504,0.643672,-1.400000,-0.140000,0.560000
85.398461,-0.215208,0.077592,0.946720,3.500000,4.620000,-0.560000
85.402527,0.167872,-0.063928,1.430816,-0.840000,-7.980000,-0.560000
85.406593,0.141520,0.112728,0.812032,-5.460000,-0.560000,-0.280000
85.410659,-0.103456,0.190808,0.770552,0.840000,8.820000,-1.820000
85.414725,-0.165432,-0.022448,1.130208,4.200000,1.960000,-3.500000
85.418791,0.157624,-0.168848,0.955504,-6.020000,-9.380000,0.280000
85.422857,0.058072,0.285968,0.900848,-4.480000,4.340000,0.560000
85.426923,-0.089304,0.149328,1.018456,3.640000,4.340000,-2.240000
85.430990,-0.124928,-0.183000,0.872544,0.560000,-5.320000,-1.120000
85.435056,0.109800,-0.077104,0.933544,-6.580000,-5.320000,2.800000
85.439122,0.010248,0.339648,1.138504,-1.960000,7.840000,-0.140000
85.443188,0.008784,-0.000976,1.041880,1.120000,-2.380000,-2.380000
85.447254,-0.035624,-0.166408,0.748104,-0.980000,-4.760000,-0.980000
85.451320,-0.048312,0.181048,1.073112,-3.220000,7.840000,-0.420000
85.455386,0.082960,0.089304,1.200968,-1.260000,-2.100000,-1.960000
85.459452,0.072712,-0.015616,0.680272,-3.360000,-3.220000,-1.680000
85.463518,-0.179584,0.067344,0.798856,0.980000,3.920000,-0.560000
85.467584,0.010248,0.081008,1.282464,1.540000,2.240000,-1.820000
85.471650,0.177144,-0.073200,0.963312,-5.320000,-10.220000,0.000000
85.475716,-0.034648,0.162016,0.630984,-2.800000,7.700000,-1.680000
85.479783,-0.181048,0.090768,0.945256,4.620000,4.060000,-2.940000
85.483849,0.079056,-0.137616,1.327360,-0.980000,-5.600000,-1.260000
85.487915,0.070272,0.022936,0.813984,-8.260000,-2.800000,1.540000
85.491981,-0.061000,0.235704,0.966240,1.540000,7.280000,-1.540000
85.496047,-0.120536,-0.019032,0.977464,4.200000,-0.840000,-2.940000
85.500113,0.158600,-0.203984,1.022360,-3.080000,-7.420000,0.700000
85.504179,-0.056120,0.274744,1.023336,-4.620000,7.420000,0.280000
85.508245,-0.024400,0.163968,0.993568,2.660000,1.540000,-2.940000
85.512311,-0.006344,-0.167384,0.593408,-2.240000,-4.340000,-0.420000
85.516377,-0.013664,0.063440,0.966728,-5.600000,2.100000,1.120000
85.520443,0.058072,0.193736,1.319064,0.140000,2.940000,-2.240000
85.524509,0.019520,-0.030256,0.828624,-0.700000,-1.960000,-3.360000
85.528575,-0.071736,0.021472,0.461648,-1.960000,-0.980000,-0.700000
85.532642,-0.049776,0.101016,1.251232,-0.140000,4.200000,-1.540000
85.536708,0.058560,-0.043432,1.227808,-3.780000,-6.160000,-1.960000
85.540774,0.067832,-0.020984,0.741272,-4.340000,-3.640000,-0.420000
85.544840,-0.167872,0.213744,0.711016,1.260000,10.080000,-0.980000
85.548906,0.089792,-0.035624,1.292712,-1.120000,-3.360000,-1.260000
85.552972,0.134200,-0.125904,0.995520,-5.600000,-7.280000,0.000000
85.557038,-0.227896,0.200080,0.802760,0.700000,10.500000,-1.680000
85.561104,0.006344,0.102968,0.968680,2.240000,0.560000,-1.960000
85.565170,0.195688,-0.085888,0.989664,-4.620000,-9.520000,0.420000
85.569236,-0.122488,0.065392,0.801784,-5.460000,4.480000,0.140000
85.573302,-0.175192,0.149328,1.122400,4.060000,4.480000,-2.800000
85.577368,0.144936,-0.078080,0.984296,-1.960000,-5.040000,-0.140000
85.581435,-0.025864,0.065392,0.730536,-4.760000,-0.420000,1.680000
85.585501,-0.014640,0.113216,1.037976,1.260000,4.200000,-1.120000
85.589567,-0.065392,-0.020496,1.235616,2.800000,-2.240000,-1.680000
85.593633,0.015616,-0.038064,0.753472,-3.360000,-0.840000,0.840000
85.597699,0.022936,0.221064,0.796416,-0.980000,1.960000,0.000000
85.601765,0.101992,0.068320,1.229760,0.560000,1.680000,-2.800000
85.605831,-0.162016,-0.141520,0.755912,-1.960000,-0.560000,-0.980000
85.609897,-0.052216,0.087840,0.816424,0.700000,-0.560000,-0.280000
85.613963,0.128344,0.219112,1.166808,-2.660000,1.540000,-1.260000
85.618029,-0.022448,-0.038552,1.038464,-2.100000,-0.280000,-1.820000
85.622095,-0.168848,-0.115656,0.579256,3.500000,-2.940000,-0.140000
85.626161,0.125904,0.170800,1.234152,-0.140000,2.100000,-0.980000
85.630227,0.039528,0.090768,1.133624,-5.040000,1.400000,-1.960000
85.634294,-0.111264,-0.034648,0.644648,2.380000,-3.640000,-2.100000
85.638360,0.029280,0.050752,0.891576,2.100000,4.620000,-0.980000
85.642426,0.061976,0.051728,1.319552,-2.940000,4.760000,-1.540000
85.646492,-0.091744,0.017080,0.726632,0.700000,-4.480000,-1.120000
85.650558,-0.050752,0.084424,0.571936,0.980000,-0.560000,0.420000
85.654624,-0.005856,0.077592,1.189256,0.000000,7.420000,-0.700000
85.658690,0.001464,-0.044408,1.314184,0.280000,-3.640000,-1.540000
85.662756,0.044896,-0.000976,0.648552,0.840000,-2.520000,-0.280000
85.666822,-0.078568,0.220576,0.751520,0.000000,7.700000,-0.420000
85.670888,-0.026840,-0.035624,1.235616,1.680000,2.240000,-2.940000
85.674954,0.090280,-0.105896,1.059936,-0.840000,-7.000000,-2.100000
85.679020,-0.053680,0.182024,0.722240,-0.140000,3.780000,-0.840000
85.683086,-0.139080,0.192760,0.873032,2.240000,5.040000,-2.100000
85.687153,0.077592,-0.206424,1.008208,-3.080000,-7.000000,-0.420000
85.691219,-0.015616,0.017080,0.962336,-2.800000,0.140000,0.840000
85.695285,-0.123464,0.275232,1.007720,5.460000,6.720000,-1.260000
85.699351,0.108824,0.002928,1.034560,0.840000,-1.260000,-1.820000
85.703417,0.079056,-0.193248,0.823744,-5.740000,-4.060000,-0.560000
85.707483,-0.155672,0.169824,0.944768,2.520000,8.680000,-2.240000
85.711549,-0.083448,0.213744,1.094584,5.320000,0.980000,-1.120000
85.715615,0.129320,-0.065392,0.790560,-3.780000,-7.140000,0.980000
85.719681,-0.094672,-0.041480,0.706624,-4.060000,3.080000,0.280000
85.723747,-0.012688,0.143472,1.247816,3.080000,5.460000,-2.800000
85.727813,-0.003904,0.065392,1.070672,0.420000,-4.060000,-1.260000
85.731879,-0.061000,-0.030744,0.670024,-2.240000,1.680000,0.840000
85.735945,0.006832,0.038552,0.978440,1.400000,1.960000,-0.140000
85.740012,0.046848,0.089792,1.351272,0.840000,1.400000,-2.380000
85.744078,-0.093696,0.000000,0.622200,-1.120000,-1.960000,0.280000
85.748144,0.028304,0.045872,0.683688,-1.820000,2.380000,1.540000
85.752210,-0.049776,0.097112,1.154608,1.400000,4.060000,-1.400000
85.756276,-0.066856,0.005368,1.260016,3.920000,-4.200000,-2.940000
85.760342,0.007808,-0.066856,0.625128,-2.660000,-3.220000,2.800000
85.764408,-0.007808,0.193248,0.838384,0.700000,3.500000,1.960000
85.768474,-0.015616,0.025376,1.236592,6.440000,0.000000,-2.940000
85.772540,0.050752,-0.073688,0.997472,-1.400000,-4.480000,-2.100000
85.776606,-0.032696,0.146888,0.621712,-3.360000,5.600000,1.260000
85.780672,-0.028304,0.154208,1.054080,1.960000,5.320000,-0.560000
85.784738,0.000000,-0.176168,0.945256,1.680000,-6.580000,-0.980000
85.788804,-0.112728,0.041480,0.820816,-1.260000,-1.680000,0.700000
85.792871,-0.059536,0.265960,1.007232,2.380000,7.980000,0.280000
85.796937,0.181048,-0.060024,1.212192,0.420000,-3.080000,0.140000
85.801003,-0.020008,-0.155672,0.708088,-0.420000,-4.480000,0.000000
85.805069,-0.214232,0.223504,0.815936,4.620000,6.580000,-0.700000
85.809135,0.096624,0.126880,1.153632,-1.120000,1.540000,0.420000
85.813201,0.126880,-0.071736,0.955016,-5.040000,-8.540000,0.560000
85.817267,-0.164456,-0.002440,0.629032,3.920000,3.780000,-0.840000
85.821333,-0.093208,0.139080,1.061400,4.760000,4.760000,-0.840000
85.825399,0.091256,0.013176,1.156560,-5.040000,-7.420000,0.700000
85.829465,-0.011224,0.007808,0.705648,-3.360000,-2.660000,0.700000
85.833531,-0.100040,0.074664,0.942328,5.320000,5.880000,-0.280000
85.837597,0.033184,0.043432,1.259528,3.220000,-2.240000,-0.420000
85.841663,0.084912,-0.058072,0.789096,-6.020000,-4.060000,1.120000
85.845730,0.017080,0.110776,0.687104,-2.100000,4.200000,-0.140000
85.849796,-0.171776,0.159088,0.998448,5.740000,4.200000,-1.540000
85.853862,0.012200,-0.080520,1.106784,5.040000,-7.700000,-0.700000
85.857928,0.081984,-0.069296,0.791048,-2.660000,-3.220000,2.100000
85.861994,-0.051240,0.198616,0.973560,5.460000,6.300000,-1.400000
85.866060,-0.122976,0.077104,0.924760,10.780000,-1.120000,-2.660000
85.870126,0.161040,-0.173728,0.891576,4.340000,-5.320000,1.400000
85.874192,-0.062952,0.056608,1.032608,6.020000,5.740000,1.820000
85.878258,-0.110288,0.090768,1.207800,15.540000,-0.140000,-1.260000
85.882324,0.127856,0.002928,0.749568,10.780000,-0.560000,-0.140000
85.886390,0.029768,0.055632,0.608536,1.540000,5.460000,2.800000
85.890456,-0.029768,0.177632,1.173640,8.820000,0.000000,-1.820000
85.894522,-0.109800,-0.081008,1.063352,7.140000,0.140000,-2.380000
85.898589,-0.009760,-0.039528,0.643672,3.220000,0.000000,1.540000
85.902655,-0.005368,0.226432,0.957944,6.300000,0.140000,1.260000
85.906721,0.096624,0.012688,1.098976,6.580000,-3.080000,-1.960000
85.910787,-0.145424,-0.117120,0.866200,4.340000,1.680000,-0.560000
85.914853,-0.098088,0.132736,1.050664,10.220000,4.760000,-0.140000
85.918919,0.154208,0.065392,1.181936,5.600000,-4.200000,-0.840000
85.922985,0.066368,-0.042456,0.829600,0.420000,0.840000,-1.260000
85.927051,-0.335256,0.129320,0.788608,8.400000,5.040000,-1.260000
85.931117,0.123464,0.061976,1.412272,8.960000,-1.960000,-0.560000
85.935183,0.074176,-0.008784,0.930616,-2.100000,-3.920000,2.240000
85.939249,-0.094672,0.140544,0.606096,4.620000,-1.120000,1.260000
85.943315,-0.141032,0.051728,1.056032,14.000000,3.360000,-1.400000
85.947381,0.114192,-0.058072,1.314672,4.060000,-1.960000,0.000000
85.951448,0.110288,0.018544,0.843264,-0.700000,-4.900000,2.520000
85.955514,-0.081496,0.211792,0.941840,7.980000,6.860000,-0.420000
85.959580,-0.149816,-0.043432,1.219512,12.740000,3.360000,-3.080000
85.963646,0.099064,-0.097600,0.990640,2.800000,-10.640000,0.000000
85.967712,-0.005856,0.138592,0.848632,1.120000,-4.760000,1.400000
85.971778,-0.058072,0.272792,1.234640,8.260000,12.040000,-2.240000
85.975844,-0.065392,-0.103944,1.087264,9.660000,-3.080000,-3.080000
85.979910,0.058560,-0.113216,0.781288,1.680000,-7.140000,1.120000
85.983976,-0.027816,0.091744,0.961360,4.060000,4.200000,1.680000
85.988042,-0.023424,0.185440,1.447896,7.700000,2.240000,-0.560000
85.992108,0.036600,0.026840,1.066280,7.280000,-5.740000,-1.260000
85.996174,-0.102480,-0.134200,0.577304,3.360000,-3.500000,0.140000
86.000241,-0.096136,0.122976,1.126792,8.960000,1.120000,-0.420000
86.004307,0.112728,0.210816,1.405928,3.500000,-1.960000,0.280000
86.008373,0.116144,0.038064,0.893040,-0.280000,0.420000,0.840000
86.012439,-0.205936,-0.070272,0.701744,3.920000,5.880000,-0.280000
86.016505,-0.083936,0.009760,1.282952,4.480000,-3.220000,-0.420000
86.020571,0.188368,0.059048,1.121424,-3.360000,-9.660000,1.820000
86.024637,-0.097112,0.189832,0.924272,-4.340000,2.800000,2.380000
86.028703,-0.118096,0.145424,0.938424,5.320000,9.940000,-1.540000
86.032769,0.084424,-0.069296,1.143384,1.400000,-5.180000,-2.380000
86.036835,0.073688,-0.204472,0.995032,-7.560000,-11.480000,0.560000
86.040901,-0.094184,0.153720,1.085312,-3.360000,3.500000,1.540000
86.044967,-0.088328,0.315248,1.222440,2.380000,7.140000,-0.980000
86.049033,0.085888,-0.111264,0.979904,0.140000,-4.200000,-1.260000
86.053100,-0.020984,-0.084424,0.894992,-2.520000,-3.220000,0.420000
86.057166,-0.103944,0.169336,0.961360,-0.560000,4.060000,0.140000
86.061232,0.078568,0.110776,1.295152,-0.140000,-0.420000,-1.120000
86.065298,0.042944,-0.102968,1.086288,-1.960000,-2.380000,-1.260000
86.069364,-0.174704,0.114192,0.993080,-0.140000,2.800000,-1.400000
86.073430,-0.016104,0.131760,1.021384,1.120000,-1.400000,-0.980000
86.077496,0.088816,-0.105896,0.967216,-4.480000,-7.840000,1.820000
86.081562,-0.053192,0.006344,0.993568,-2.100000,0.700000,2.240000
86.085628,-0.057096,0.284504,1.168272,4.900000,10.920000,-1.400000
86.089694,-0.052216,0.001952,1.313208,1.820000,-3.360000,-1.540000
86.093760,0.045872,-0.224968,0.909144,-6.440000,-13.160000,2.240000
86.097826,-0.034160,0.158112,0.688080,-3.500000,2.520000,1.820000
86.101892,-0.014640,0.320128,1.255624,3.780000,7.280000,-2.520000
86.105959,0.110776,-0.121512,1.344928,-1.260000,-3.920000,-2.800000
86.110025,-0.090280,-0.050264,0.798856,-4.760000,-2.800000,-0.700000
86.114091,-0.198616,0.143960,0.848632,-0.980000,3.220000,0.140000
86.118157,0.050264,-0.042456,1.188280,1.260000,-4.620000,-0.140000
86.122223,0.103456,0.026840,1.261480,-1.540000,-4.060000,0.420000
86.126289,-0.007808,0.244488,1.027240,-0.700000,4.620000,-0.280000
86.130355,-0.111264,-0.006832,1.117032,0.560000,0.280000,-1.680000
86.134421,-0.072712,-0.255712,0.757376,-2.940000,-9.240000,0.280000
86.138487,0.141032,0.189344,1.099464,-3.220000,-1.680000,1.540000
86.142553,0.014152,0.431880,1.212680,0.980000,12.740000,-0.840000
86.146619,-0.128832,-0.144448,1.222440,1.540000,-1.120000,-2.100000
86.150685,-0.085400,-0.319152,0.722728,-2.240000,-10.920000,0.560000
86.154751,-0.007320,0.207888,1.000400,-2.940000,1.260000,2.100000
86.158818,0.108336,0.312320,1.457656,0.140000,1.680000,0.140000
86.162884,0.065880,-0.075152,1.037000,-1.400000,-1.260000,-0.560000
86.166950,-0.173728,-0.063928,0.665144,0.840000,0.140000,-1.120000
86.171016,-0.020984,0.064904,1.145824,0.140000,-0.840000,-1.260000
86.175082,0.045384,0.065880,1.329312,-2.800000,-6.860000,0.280000
86.179148,-0.055632,0.073688,0.820816,-1.400000,0.840000,1.120000
86.183214,-0.003416,0.177632,1.013576,2.100000,7.000000,-0.700000
86.187280,-0.057096,-0.121024,1.260504,1.820000,-3.780000,-1.820000
86.191346,-0.008296,-0.132736,1.119960,-3.220000,-10.220000,0.420000
86.195412,0.050264,0.236192,0.875472,-1.960000,3.360000,0.420000
86.199478,0.016592,0.246928,1.181448,2.240000,5.740000,-2.100000
86.203544,-0.023912,-0.118584,1.158024,1.540000,-1.680000,-1.960000
86.207610,-0.088816,-0.111752,0.787144,-2.660000,-2.240000,0.000000
86.211677,-0.085888,0.169824,1.041392,-0.420000,-2.380000,0.140000
86.215743,0.077592,0.089304,1.256112,-2.240000,-5.040000,2.100000
86.219809,0.017568,0.025376,0.846192,-0.840000,0.560000,1.820000
86.223875,-0.095160,0.079056,1.032120,3.080000,6.440000,-1.400000
86.227941,0.009272,-0.077592,1.417152,3.500000,-6.720000,-2.380000
86.232007,0.031232,-0.057584,0.934032,-4.900000,-6.300000,1.680000
86.236073,-0.019520,0.302072,0.840824,-1.540000,7.000000,1.120000
86.240139,-0.032208,0.072224,1.209752,4.200000,7.140000,-2.940000
86.244205,0.003904,-0.118096,1.186816,0.420000,-7.420000,-2.520000
86.248271,0.019520,0.028792,0.810568,-6.300000,-2.240000,0.420000
86.252337,-0.082960,0.161040,1.056520,-1.820000,1.820000,0.420000
86.256403,-0.069296,-0.031720,1.118008,1.540000,-2.240000,-0.140000
86.260469,0.100528,0.059536,0.934032,-0.420000,0.560000,-0.280000
86.264536,0.011224,0.191296,1.207800,-0.280000,3.920000,-1.400000
86.268602,-0.101504,-0.096624,1.196088,-0.420000,-5.040000,-2.100000
86.272668,-0.040992,-0.130296,0.697840,-2.660000,-2.800000,-0.140000
86.276734,0.022448,0.285480,1.066768,0.980000,7.840000,-0.980000
86.280800,0.063440,0.182512,1.592344,0.140000,3.500000,-1.960000
86.284866,-0.105896,-0.189344,0.928664,-3.360000,-6.020000,0.280000
86.288932,-0.096136,-0.035136,0.545096,-3.360000,-2.380000,1.540000
86.292998,0.073688,0.225944,1.281000,0.560000,3.080000,-0.140000
86.297064,0.095160,0.098088,1.383480,-3.360000,0.840000,-0.700000
86.301130,-0.096136,0.026352,0.851560,-0.980000,1.820000,-0.980000
86.305196,-0.102480,-0.002440,0.837896,2.240000,3.080000,-1.960000
86.309262,0.020496,-0.108336,1.167784,-2.660000,-6.580000,-1.400000
86.313328,0.052216,0.134200,1.289296,-5.460000,-1.260000,1.260000
86.317395,-0.036600,0.260104,0.950136,0.280000,9.940000,-0.700000
86.321461,-0.041968,0.020496,1.147288,1.680000,1.260000,-2.100000
86.325527,0.027328,-0.251320,0.907192,-1.820000,-6.860000,0.280000
86.329593,-0.070760,0.077592,0.999912,-3.500000,-0.560000,2.100000
86.333659,0.067344,0.356240,1.198040,0.840000,6.580000,-0.700000
86.337725,0.067344,0.024400,1.077504,0.000000,1.680000,-1.680000
86.341791,-0.129808,-0.141032,0.838872,-0.420000,0.420000,-0.140000
86.345857,-0.058072,0.043920,1.162416,0.000000,0.840000,-0.840000
86.349923,0.006344,0.074176,1.110200,-2.240000,-5.880000,0.140000
86.353989,0.031232,0.081984,0.983808,-3.360000,-0.700000,2.800000
86.358055,0.013176,0.131760,1.115080,3.080000,10.080000,0.560000
86.362121,-0.084424,0.003416,1.317600,3.500000,-0.700000,-2.240000
86.366187,0.036112,-0.096136,0.709064,-1.960000,-9.240000,0.560000
86.370254,0.019520,0.081984,0.898896,-4.340000,2.240000,2.800000
86.374320,-0.040016,0.215208,1.401536,1.400000,6.160000,-0.700000
86.378386,0.042456,0.017080,1.020408,4.480000,-1.120000,-2.380000
86.382452,-0.018544,0.004880,0.738344,-1.260000,1.820000,-0.980000
86.386518,-0.028304,0.000976,1.261968,-2.520000,-0.280000,-0.700000
86.390584,-0.073200,-0.015616,1.069208,-0.700000,-5.740000,0.140000
86.394650,-0.049776,0.147376,0.866200,0.700000,0.840000,0.700000
86.398716,0.137128,0.203008,1.203896,0.980000,5.460000,-0.420000
86.402782,-0.038064,-0.068808,1.367376,-0.840000,-4.060000,-1.260000
86.406848,-0.073200,-0.149328,0.748592,-1.120000,-4.900000,-0.280000
86.410914,0.007808,0.153720,0.873032,0.980000,5.880000,-0.140000
86.414980,0.069296,0.242536,1.412760,1.960000,2.380000,-1.540000
86.419046,0.064904,-0.021960,1.095072,-1.260000,0.000000,-0.980000
86.423113,-0.233264,0.009760,0.827160,0.700000,2.520000,-0.840000
86.427179,0.047824,-0.036112,0.996008,0.840000,-4.340000,-1.680000
86.431245,0.106384,0.062952,1.046760,-4.480000,-7.980000,1.120000
86.435311,-0.102480,0.223504,1.078968,-0.840000,6.160000,2.520000
86.439377,-0.028304,0.129320,1.278560,3.920000,5.320000,-0.700000
86.443443,0.032208,-0.138104,0.870592,0.000000,-7.420000,-2.660000
86.447509,0.019032,-0.032208,0.799344,-5.600000,-3.220000,-0.140000
86.451575,0.003904,0.184464,1.326872,-0.840000,4.620000,0.420000
86.455641,-0.098088,0.147864,1.356152,1.120000,1.820000,-1.820000
86.459707,0.033672,-0.039528,0.687104,-2.380000,0.140000,-1.820000
86.463773,0.050752,0.062952,0.912072,-1.400000,-0.280000,-1.680000
86.467839,-0.039528,0.006344,1.529392,-3.220000,-3.640000,-1.400000
86.471905,-0.022448,-0.067344,0.842776,-2.660000,-4.620000,0.420000
86.475972,-0.067832,0.282552,0.829600,1.260000,5.320000,-0.700000
86.480038,0.099064,0.158112,1.323456,0.000000,3.220000,-1.820000
86.484104,0.005368,-0.188368,1.140944,-1.820000,-7.000000,-0.420000
86.488170,-0.085888,-0.059048,0.683200,-3.360000,-2.380000,0.840000
86.492236,-0.009272,0.264496,1.138992,2.100000,7.420000,-1.540000
86.496302,0.053680,0.066856,1.266848,2.100000,-0.420000,-1.680000
86.500368,0.001952,0.026352,1.074088,-2.100000,1.540000,0.560000
86.504434,-0.190808,-0.008784,0.865712,0.560000,2.520000,0.000000
86.508500,0.014152,-0.073688,1.059936,0.560000,-10.220000,-0.280000
86.512566,0.156648,0.038064,1.143384,-4.480000,-3.640000,1.680000
86.516632,-0.069784,0.390888,1.172176,-0.700000,11.900000,-0.700000
86.520698,-0.012688,0.024888,1.144360,2.520000,2.240000,-3.080000
86.524764,-0.019520,-0.271328,0.623664,-1.260000,-5.880000,-1.400000
86.528831,-0.048312,0.064416,1.104344,-3.500000,-1.120000,0.700000
86.532897,0.083448,0.288408,1.424960,-1.680000,2.380000,-0.560000
86.536963,-0.049288,0.061976,0.801784,-0.560000,0.280000,-0.420000
86.541029,0.002440,-0.040504,0.755424,0.980000,1.120000,-0.560000
86.545095,-0.008296,0.004392,1.358104,-0.840000,0.980000,-1.960000
86.549161,-0.077104,-0.007808,1.130208,-3.080000,-8.960000,0.000000
86.553227,0.085400,0.103456,0.643672,-0.840000,0.140000,0.700000
86.557293,-0.044408,0.173240,1.132648,2.520000,8.540000,-2.940000
86.561359,-0.016592,-0.036600,1.490352,1.960000,-4.480000,-2.940000
86.565425,-0.033672,-0.044896,0.775432,-1.540000,-3.500000,-0.140000
86.569491,-0.066368,0.083936,0.769576,-2.380000,1.820000,0.140000
86.573557,0.040504,0.001464,1.249280,1.960000,-2.380000,-0.420000
86.577623,0.001464,0.078568,1.262456,1.260000,1.120000,1.120000
86.581690,-0.040016,0.212768,1.083848,0.700000,5.460000,0.280000
86.585756,-0.022936,-0.033184,0.924272,1.540000,-5.040000,-0.840000
86.589822,0.032208,-0.228384,0.779336,-1.960000,-8.400000,0.420000
86.593888,0.087840,0.239608,1.201944,-0.980000,4.340000,0.420000
86.597954,-0.015616,0.272792,1.303936,0.840000,5.880000,-2.380000
86.602020,-0.068808,-0.057096,0.899872,0.980000,-1.400000,-2.660000
86.606086,-0.042944,-0.132736,0.781288,-0.140000,0.000000,-1.680000
86.610152,0.014152,0.122488,1.199016,-0.980000,-2.520000,-1.540000
86.614218,0.059048,0.046360,0.933056,-1.680000,-4.620000,0.420000
86.618284,-0.126392,0.152744,0.984784,1.120000,3.640000,0.560000
86.622350,0.020984,0.055144,1.287832,0.700000,4.760000,-1.120000
86.626416,0.027816,-0.039528,0.992592,-0.140000,-6.860000,-2.380000
86.630482,-0.027328,-0.071248,0.779336,-3.220000,-1.960000,-0.420000
86.634549,-0.007808,0.114192,1.182912,0.140000,3.220000,-0.280000
86.638615,-0.028304,0.141032,1.339072,0.700000,-0.420000,-1.260000
86.642681,0.010736,0.020008,0.785192,0.840000,1.260000,-1.400000
86.646747,-0.064904,0.026840,1.017968,1.400000,2.520000,-2.100000
86.650813,0.045872,-0.030744,1.266848,-1.960000,-7.000000,-0.700000
86.654879,-0.000976,-0.021960,0.706624,-3.080000,-2.380000,1.960000
86.658945,-0.122488,0.198128,1.021872,1.820000,7.420000,1.400000
86.663011,0.061000,0.126880,1.499624,3.920000,0.980000,-2.100000
86.667077,0.077592,-0.053680,0.849120,-2.940000,-6.440000,-1.680000
86.671143,0.000976,0.010736,0.705160,-2.100000,1.400000,-0.280000
86.675209,-0.142008,0.025864,1.099952,4.480000,2.660000,-2.660000
86.679275,0.062464,0.016592,1.350296,-0.420000,-2.800000,-1.820000
86.683341,0.016104,0.256200,0.810568,-3.360000,5.460000,-0.420000
86.687407,-0.104920,0.119072,1.125328,1.400000,3.360000,-1.400000
86.691474,-0.028792,-0.272304,0.876448,0.840000,-8.120000,-1.680000
86.695540,0.030256,-0.045872,0.752984,-3.080000,-2.940000,0.140000
86.699606,0.051240,0.374296,1.383480,-1.120000,6.720000,-0.140000
86.703672,-0.071736,0.073200,1.383968,1.540000,0.000000,-2.100000
86.707738,-0.065880,-0.194224,0.675392,-0.140000,-5.180000,-1.960000
86.711804,0.032696,0.080520,0.856440,-0.420000,1.680000,-1.540000
86.715870,0.030256,0.048312,1.361520,0.420000,-3.780000,-1.400000
86.719936,0.019032,0.082960,1.084824,-1.820000,-0.420000,-0.280000
86.724002,-0.148352,0.166408,0.757864,0.700000,10.640000,-0.560000
86.728068,0.003416,-0.001464,1.210240,1.120000,-0.700000,-1.540000
86.732134,0.073688,-0.088816,1.038952,-2.240000,-9.660000,-0.560000
86.736200,-0.068320,0.122000,0.704184,-3.780000,2.660000,1.260000
86.740266,0.081496,0.114192,1.240984,0.140000,2.940000,-1.120000
86.744333,-0.032208,-0.025864,1.179008,0.840000,-0.280000,-2.100000
86.748399,-0.082472,0.065392,0.877912,1.260000,0.840000,-2.380000
86.752465,0.047824,0.092232,0.976000,-0.140000,0.420000,-3.220000
86.756531,-0.040992,-0.091256,1.105808,-4.340000,-6.580000,-1.680000
86.760597,-0.021472,0.042456,0.888648,-1.540000,0.700000,0.840000
86.764663,-0.050264,0.263032,1.111176,1.120000,8.960000,-0.840000
86.768729,0.019520,-0.027816,1.380064,0.700000,-0.700000,-3.220000
86.772795,0.038552,-0.135664,0.853512,-2.520000,-5.880000,-1.260000
86.776861,-0.127368,0.193736,0.800808,-1.960000,4.900000,-0.700000
86.780927,0.043432,0.026840,1.111664,2.660000,1.400000,-2.940000
86.784993,0.036600,-0.016104,1.247328,0.420000,-4.760000,-0.980000
86.789059,-0.013176,0.218624,0.940376,-2.800000,5.740000,0.000000
86.793125,-0.087352,0.009272,1.053592,-0.420000,0.700000,-1.680000
86.797192,-0.115168,-0.231312,0.758840,-0.420000,-9.660000,-0.280000
86.801258,0.141520,0.167384,1.034560,-1.960000,2.660000,0.980000
86.805324,-0.008296,0.353800,1.236592,-0.140000,7.560000,-0.280000
86.809390,-0.009272,-0.062464,1.122400,3.220000,-2.240000,-2.380000
86.813456,-0.097112,-0.225944,0.590480,-0.980000,-2.520000,-0.840000
86.817522,-0.006344,0.129808,1.131184,-1.120000,-0.280000,-0.840000
86.821588,0.095160,0.104432,1.424472,-1.820000,-2.100000,-1.120000
86.825654,-0.102968,0.116144,0.881816,-1.960000,4.760000,-0.560000
86.829720,-0.029280,0.151280,0.846192,1.260000,8.960000,-1.400000
86.833786,0.072224,-0.193736,1.198040,-0.980000,-4.060000,-1.540000
86.837852,-0.104920,-0.077104,0.956968,-1.260000,-3.780000,-0.140000
86.841918,0.097600,0.252296,0.984784,-1.400000,5.740000,0.700000
86.845984,0.020984,0.200568,1.351760,-0.980000,6.720000,-1.680000
86.850050,-0.109312,-0.114680,0.836432,-0.420000,3.500000,-2.240000
86.854117,0.015616,0.014152,0.743712,-0.420000,7.700000,-2.380000
86.858183,0.004392,0.080032,1.138504,-1.260000,1.820000,-1.540000
86.862249,0.033184,0.064416,1.189256,-3.360000,3.080000,0.280000
86.866315,-0.085400,0.106872,0.740296,0.420000,9.660000,-0.280000
86.870381,-0.086864,0.055632,1.108736,3.220000,6.580000,-2.240000
86.874447,0.085400,-0.151280,1.286368,-2.520000,-5.880000,-0.700000
86.878513,-0.087352,0.073200,0.774944,-5.180000,3.500000,2.520000
86.882579,-0.009760,0.289384,0.947696,0.280000,13.020000,0.140000
86.886645,0.067344,-0.036112,1.205848,4.620000,4.900000,-2.660000
86.890711,0.007808,-0.134688,0.897920,-0.840000,0.840000,-2.240000
86.894777,-0.072224,0.170800,0.954528,-2.520000,4.620000,-0.840000
86.898843,-0.044896,-0.001952,1.137040,-1.400000,0.000000,-1.120000
86.902909,-0.004880,-0.024888,0.999912,-3.640000,1.540000,0.560000
86.906976,-0.011224,0.272304,1.015040,0.560000,13.020000,-0.980000
86.911042,0.035136,0.070272,1.150216,0.420000,2.520000,-2.660000
86.915108,0.001464,-0.191296,0.773480,-1.400000,-2.240000,-1.400000
86.919174,-0.011712,0.033672,0.796416,-1.960000,8.260000,0.420000
86.923240,-0.042456,0.296704,1.268800,3.360000,8.820000,-1.960000
86.927306,0.077104,-0.107848,1.176080,0.000000,1.120000,-1.540000
86.931372,-0.033672,0.055144,0.848632,-3.640000,9.800000,0.000000
86.935438,-0.102968,0.062464,0.949160,-1.400000,12.180000,-1.120000
86.939504,0.028304,-0.030744,0.935008,-0.280000,6.160000,-0.980000
86.943570,0.044896,0.178120,1.052616,-0.140000,15.400000,-0.700000
86.947636,-0.029280,0.198128,1.170712,1.260000,12.040000,-1.960000
86.951702,-0.057584,-0.169336,0.782264,0.560000,-1.820000,-2.240000
86.955768,-0.020496,-0.207400,0.665144,-3.220000,1.260000,0.280000
86.959834,0.012200,0.343064,1.444968,-2.380000,12.180000,-0.280000
86.963901,0.041480,0.147376,1.284416,1.400000,7.280000,-2.380000
86.967967,-0.107360,-0.063928,0.626104,-0.840000,8.400000,-1.400000
86.972033,-0.077592,-0.045384,0.916952,-0.980000,9.660000,-1.260000
86.976099,0.124440,0.091744,1.237568,-2.800000,2.800000,-1.120000
86.980165,0.020008,0.156648,0.833992,-2.940000,9.520000,-0.980000
86.984231,-0.054168,0.114680,0.926712,0.280000,16.660000,-1.680000
86.988297,-0.029280,-0.127368,1.184864,1.960000,3.080000,-2.520000
86.992363,-0.032208,-0.128832,0.739320,-2.520000,0.140000,-0.420000
86.996429,0.033672,0.263032,1.012112,-3.360000,12.740000,0.420000
87.000495,0.053192,0.168360,1.306864,-0.560000,9.800000,-1.400000
87.004561,-0.098088,-0.100040,0.806664,0.140000,7.280000,-2.800000
87.008627,-0.119072,0.027816,0.745664,-0.700000,9.240000,-1.260000
87.012693,0.068320,0.100528,1.067744,-3.220000,5.180000,-0.560000
87.016760,0.021960,0.073688,1.011624,-4.480000,-1.820000,0.280000
87.020826,-0.081496,0.111264,0.727120,1.960000,5.040000,-1.540000
87.024892,-0.068808,0.020984,1.126792,2.520000,-1.680000,-2.240000
87.028958,0.014152,-0.130784,0.998936,-3.080000,-15.260000,1.260000
87.033024,0.040504,0.099064,0.584136,-4.480000,-0.140000,2.240000
87.037090,0.092720,0.109312,1.289784,2.100000,6.300000,-1.820000
87.041156,-0.085888,0.008784,1.021872,-0.140000,2.380000,-2.380000
87.045222,-0.117608,0.043920,0.752008,-0.420000,0.420000,-0.560000
87.049288,0.098576,0.024888,1.012112,-4.900000,-0.420000,-1.120000
87.053354,0.054168,0.032208,0.924272,-0.980000,-7.000000,-1.540000
87.057420,-0.156160,0.176168,0.848144,0.840000,9.100000,-1.400000
87.061486,-0.067832,0.025376,1.087752,2.240000,-0.840000,-1.820000
87.065552,0.127856,-0.177144,0.871080,-2.380000,-7.700000,0.840000
87.069619,-0.093696,0.222040,0.732000,-4.480000,9.800000,0.980000
87.073685,0.047824,0.180072,1.125328,0.420000,1.120000,-0.980000
87.077751,0.000976,-0.063440,0.855464,0.840000,-1.260000,-1.680000
87.081817,-0.088816,-0.003904,0.650504,-1.960000,7.560000,-0.700000
87.085883,0.019520,0.092232,1.228296,-1.540000,-3.220000,-1.400000
87.089949,0.049288,0.014152,0.937936,-4.060000,-1.540000,-0.280000
87.094015,-0.101016,0.115168,0.614392,0.560000,6.440000,-0.840000
87.098081,-0.011712,0.061976,0.909632,2.940000,-2.380000,-1.680000
87.102147,0.129808,-0.061488,1.006256,-4.480000,-4.060000,0.840000
87.106213,-0.070760,0.111264,0.859856,-3.080000,8.820000,-0.560000
87.110279,0.018056,0.007808,1.111176,4.060000,-1.400000,-3.640000
87.114345,-0.089792,-0.014640,0.671976,0.840000,0.420000,-1.400000
87.118411,-0.011224,0.128832,0.814960,-6.720000,4.340000,1.540000
87.122477,0.113704,0.078568,1.213656,-2.380000,-4.340000,-0.700000
87.126544,-0.081984,-0.076616,0.715896,1.820000,3.360000,-1.680000
87.130610,-0.113216,0.064904,0.797392,-1.120000,4.340000,0.560000
87.134676,0.050752,0.059536,1.253184,-2.800000,-5.180000,0.140000
87.138742,0.040504,-0.017568,0.899872,-1.960000,-0.280000,-0.840000
87.142808,-0.034648,0.129320,0.610976,-1.120000,4.620000,-1.260000
87.146874,-0.007320,0.117120,1.026264,1.400000,-5.040000,-1.820000
87.150940,-0.056120,-0.058072,0.842288,-3.640000,1.680000,-0.560000
87.155006,0.056120,0.019520,0.916952,-4.200000,0.560000,-1.400000
87.159072,0.029280,0.077592,1.203896,0.560000,-3.640000,-2.940000
87.163138,-0.261080,0.054656,0.608536,1.680000,6.160000,-0.140000
87.167204,0.129808,-0.017568,0.829600,-5.040000,-2.380000,2.100000
87.171270,0.131272,0.123464,1.228296,-0.840000,-9.240000,-1.540000
87.175336,-0.146888,0.136152,0.661728,3.080000,7.980000,-2.800000
87.179403,-0.011224,-0.034648,0.798856,-2.800000,0.420000,0.700000
87.183469,0.096624,-0.035136,1.183400,-4.620000,-9.100000,-0.140000
87.187535,-0.148840,0.144448,0.761768,0.000000,8.400000,-1.400000
87.191601,0.042944,0.134688,0.902800,1.120000,0.140000,-0.700000
87.195667,0.084424,-0.068320,0.953552,-4.060000,-6.720000,1.260000
87.199733,-0.052216,0.023424,0.623664,-0.840000,2.800000,-0.840000
87.203799,0.008296,0.109312,1.125816,-0.840000,1.680000,-1.400000
87.207865,-0.031720,0.064904,1.107760,0.140000,-7.840000,-1.400000
87.211931,-0.028304,0.008296,0.629032,-1.540000,6.160000,0.140000
87.215997,0.082472,0.041968,0.908656,-3.080000,-0.840000,-0.560000
87.220063,0.028304,0.128344,0.979416,0.280000,-7.840000,-0.840000
87.224129,-0.122000,0.052216,0.762256,0.280000,7.700000,-0.420000
87.228195,0.017080,-0.070272,1.058472,-1.120000,0.000000,-0.420000
87.232261,0.126392,0.039040,1.084824,-1.540000,-10.920000,-0.420000
87.236328,-0.096136,0.177144,0.713456,-1.260000,9.240000,-0.840000
87.240394,-0.046848,0.003416,0.875472,-0.700000,1.400000,-1.120000
87.244460,0.087840,-0.013176,0.899384,0.560000,-11.620000,-0.280000
87.248526,0.003416,0.110776,0.980392,-1.680000,7.140000,-0.560000
87.252592,-0.030744,-0.023912,1.012112,-2.380000,2.380000,-2.240000
87.256658,-0.065392,0.020496,0.827160,0.560000,-9.240000,-0.980000
87.260724,0.003416,0.164944,0.739320,-0.420000,8.540000,0.000000
87.264790,0.084424,0.035136,1.118496,-5.180000,1.540000,0.280000
87.268856,0.014152,-0.044408,0.863760,-0.700000,-9.240000,-0.420000
87.272922,-0.146400,0.063440,0.826184,1.120000,7.000000,-0.560000
87.276988,0.004880,0.044896,1.177056,-1.820000,1.960000,-0.840000
87.281054,0.085888,0.018056,0.879864,-2.940000,-10.640000,0.560000
87.285120,0.041480,0.131272,0.758352,-1.680000,5.460000,-1.120000
87.289187,-0.125416,0.004392,0.931104,0.140000,6.440000,-2.380000
87.293253,0.027328,-0.061000,1.049200,-1.400000,-8.400000,0.280000
87.297319,0.023424,0.131760,0.966728,-3.220000,2.380000,0.420000
87.301385,-0.020496,0.052216,1.096048,-1.120000,4.200000,-2.940000
87.305451,-0.064416,0.010248,0.594872,0.000000,-8.960000,-1.540000
87.309517,0.079544,0.154208,0.864248,-2.240000,0.420000,0.420000
87.313583,0.026352,0.021472,1.253184,-3.920000,5.180000,-1.120000
87.317649,-0.092720,-0.102968,0.808616,0.840000,-5.320000,-1.680000
87.321715,0.008296,0.188368,0.878888,1.680000,3.780000,0.140000
87.325781,-0.030744,0.035136,1.053592,-3.780000,5.460000,0.280000
87.329847,0.048312,-0.012688,0.763232,-1.960000,-9.100000,0.560000
87.333913,0.004880,0.127368,0.822280,0.140000,1.400000,0.280000
87.337979,-0.070272,0.068808,1.079456,0.420000,7.000000,-1.120000
87.342046,0.052216,-0.124928,0.884256,-3.080000,-7.840000,0.980000
87.346112,0.053192,0.170800,0.914024,-1.540000,0.560000,-1.120000
87.350178,-0.064416,0.096136,1.012600,0.140000,6.720000,-4.060000
87.354244,-0.059048,0.028304,0.607072,0.280000,-3.780000,-0.560000
87.358310,0.166896,0.069296,0.971608,-3.500000,-2.380000,0.700000
87.362376,-0.008784,-0.028304,1.124352,-5.040000,7.840000,-2.380000
87.366442,-0.226920,0.052216,0.772016,5.040000,3.500000,-1.260000
87.370508,0.162504,0.146400,0.891576,-1.260000,5.040000,1.820000
87.374574,0.128832,-0.013176,1.146800,-6.440000,5.180000,-0.420000
87.378640,-0.139080,-0.020496,0.502640,1.820000,4.340000,-2.520000
87.382706,-0.031232,0.160064,0.933544,2.100000,2.100000,-0.280000
87.386772,0.027328,0.026840,1.272216,-3.080000,4.060000,-0.560000
87.390838,0.012688,-0.100040,0.769088,-1.260000,-1.820000,-0.420000
87.394904,0.060512,0.195688,0.768600,0.140000,5.320000,-1.680000
87.398971,-0.103456,0.112240,0.933056,0.280000,6.580000,-1.540000
87.403037,0.006832,-0.084912,0.792024,-2.100000,2.660000,1.120000
87.407103,0.071248,0.033184,1.038952,-1.400000,2.660000,0.420000
87.411169,0.023424,0.029768,1.161440,1.540000,1.960000,-3.640000
87.415235,-0.151280,0.109800,0.554368,1.680000,7.000000,-0.980000
87.419301,0.170312,0.018544,0.930128,-3.080000,4.340000,0.280000
87.423367,-0.001952,0.059048,1.015528,-1.260000,-0.700000,-2.800000
87.427433,-0.133712,0.051728,0.775432,3.220000,7.700000,-1.960000
87.431499,0.053680,0.033184,0.976976,-1.400000,6.020000,1.120000
87.435565,0.040504,-0.049776,1.062376,-3.220000,-2.800000,-0.140000
87.439631,-0.014640,0.156648,0.639768,2.240000,6.160000,-3.220000
87.443697,0.054168,0.148840,0.957456,-0.700000,8.540000,-2.660000
87.447763,-0.037088,-0.056120,0.996984,-0.560000,0.980000,-1.540000
87.451830,-0.028304,-0.086376,0.773480,0.840000,3.780000,-0.420000
87.455896,0.090768,0.132736,1.123376,-0.280000,4.480000,-2.240000
87.459962,-0.172752,0.122000,0.945256,2.940000,1.260000,-1.960000
87.464028,0.065880,-0.015128,0.527528,0.700000,6.720000,1.400000
87.468094,0.194224,0.005368,1.109712,-4.060000,2.240000,0.000000
87.472160,-0.140056,0.134200,1.063840,0.980000,4.060000,-3.220000
87.476226,-0.127368,0.065880,0.713456,1.400000,9.380000,-0.840000
87.480292,0.198128,-0.061976,1.029680,-4.200000,2.800000,0.840000
87.484358,-0.035136,0.081984,0.911584,1.820000,0.140000,-2.380000
87.488424,-0.014152,0.157624,0.744688,3.780000,8.260000,-2.940000
87.492490,-0.015616,0.005856,1.115568,-0.980000,4.200000,-1.820000
87.496556,-0.067832,-0.111752,0.941352,0.700000,-1.540000,-0.560000
87.500622,0.019520,0.131760,0.811056,1.680000,5.600000,0.700000
87.504688,0.105408,0.184464,1.055056,-0.700000,3.780000,-0.700000
87.508755,-0.159576,-0.019520,0.901824,1.540000,-0.560000,-1.960000
87.512821,0.033672,-0.051240,0.711504,-1.400000,6.580000,0.140000
87.516887,0.104920,0.086864,1.305400,-2.660000,3.920000,-0.140000
87.520953,-0.108336,0.067832,0.840336,3.080000,-0.280000,-1.260000
87.525019,-0.073688,0.066856,0.641720,1.400000,4.760000,0.140000
87.529085,0.106872,0.044408,1.068232,-2.380000,3.500000,0.700000
87.533151,-0.003904,0.009760,1.172176,0.280000,-2.380000,0.000000
87.537217,0.023912,0.024888,0.697352,-0.420000,4.200000,-0.840000
87.541283,-0.099552,0.156160,0.976488,-0.980000,5.600000,-2.380000
87.545349,-0.032208,-0.002928,0.863272,1.400000,-4.060000,-2.240000
87.549415,0.088328,0.024888,0.851072,-4.340000,-1.400000,1.260000
87.553481,-0.010736,0.103456,1.096048,-0.840000,0.140000,-0.140000
87.557547,-0.164456,0.000488,1.040904,6.020000,-6.160000,-2.380000
87.561614,0.104432,-0.031720,0.628544,-1.960000,-0.840000,0.280000
87.565680,0.130296,0.195688,1.080920,-6.300000,2.520000,0.560000
87.569746,-0.050264,0.016592,1.042368,2.940000,-0.140000,-2.660000
87.573812,-0.165432,-0.041480,0.659776,2.240000,-0.840000,-1.120000
87.577878,0.135664,0.087352,1.106296,-3.220000,1.120000,0.000000
87.581944,0.004880,0.084424,1.127768,-3.500000,-1.820000,-0.980000
87.586010,-0.012200,-0.006344,0.612928,0.000000,-2.240000,-0.980000
87.590076,-0.095648,0.083448,1.083360,0.140000,3.360000,-0.140000
87.594142,0.014640,-0.035624,1.260992,0.140000,-2.520000,-0.140000
87.598208,0.068320,0.020984,0.759816,-2.940000,-6.720000,1.960000
87.602274,0.085400,0.159088,0.969656,-1.260000,3.500000,0.140000
87.606340,-0.206912,0.010736,1.281488,4.620000,4.060000,-3.360000
87.610406,0.122976,-0.142008,0.836920,0.140000,-10.780000,-0.980000
87.614472,0.113216,0.199104,0.994056,-4.620000,1.680000,0.560000
87.618539,-0.078080,0.236192,1.390312,-0.420000,8.820000,-3.920000
87.622605,-0.103944,-0.134688,0.801296,3.920000,-6.300000,-3.360000
87.626671,-0.031232,-0.033672,0.577792,-4.340000,-0.840000,0.560000
87.630737,0.059536,0.223504,1.368352,-2.660000,0.700000,0.840000
87.634803,0.030744,0.133712,1.281488,1.400000,1.960000,-2.380000
87.638869,-0.025864,-0.067832,0.655872,0.280000,-2.940000,-1.820000
87.642935,-0.080520,0.000976,0.870592,0.700000,3.220000,-0.840000
87.647001,0.088816,0.019032,1.443016,-1.120000,-4.900000,-0.980000
87.651067,0.134200,0.061488,0.952576,-3.360000,-3.360000,-0.280000
87.655133,-0.076616,0.196176,0.826672,-1.400000,8.540000,-0.980000
87.659199,-0.100040,-0.058072,1.129720,4.760000,1.960000,-2.520000
87.663265,-0.040992,-0.127856,0.993568,-2.940000,-7.840000,-0.280000
87.667331,0.099552,0.187392,0.979416,-4.760000,-3.920000,2.660000
87.671397,-0.023912,0.290360,1.272704,0.560000,11.060000,-0.700000
87.675464,-0.100040,-0.091256,1.012112,5.320000,-2.660000,-3.080000
87.679530,0.065392,-0.169336,0.749080,-3.920000,-5.740000,0.140000
87.683596,0.034160,0.223016,1.033584,-3.640000,2.660000,0.000000
87.687662,0.056608,0.199592,1.459608,2.100000,4.060000,-2.660000
87.691728,-0.007320,-0.028304,0.709064,-2.660000,-0.700000,-2.240000
87.695794,-0.015128,-0.050264,0.680760,-0.560000,-0.280000,-0.140000
87.699860,-0.134688,0.066368,1.272704,-0.980000,1.540000,-1.120000
87.703926,0.203984,0.025864,1.202432,-4.620000,-7.980000,0.700000
87.707992,0.022936,0.136640,0.786168,-3.220000,9.520000,0.280000
87.712058,-0.194712,0.019520,1.056032,4.340000,11.200000,-3.360000
87.716124,0.000000,-0.084424,1.352736,2.100000,-4.480000,-3.640000
87.720190,0.163480,0.005856,0.880352,-8.960000,-3.920000,0.560000
87.724256,-0.097112,0.315736,1.050176,-2.100000,10.500000,-0.140000
87.728323,-0.122976,0.147864,1.207312,5.600000,8.960000,-3.080000
87.732389,0.212280,-0.243512,0.826672,-2.240000,-7.420000,-0.840000
87.736455,-0.099064,0.078568,0.630496,-8.820000,8.260000,1.960000
87.740521,0.014152,0.256688,1.391776,3.500000,9.380000,-0.700000
87.744587,0.095160,0.007320,1.165344,-1.820000,8.400000,-1.960000
87.748653,-0.015128,-0.121024,0.639280,-2.240000,2.660000,-1.960000
87.752719,-0.180072,0.046360,1.079944,1.960000,7.700000,-1.960000
87.756785,0.130784,0.122488,1.437160,-1.120000,-1.260000,-1.400000
87.760851,0.143960,0.040016,0.921344,-6.580000,2.240000,0.280000
87.764917,-0.173240,0.062464,0.676856,-1.260000,13.160000,-1.820000
87.768983,-0.026840,0.064904,1.364936,4.760000,8.260000,-4.060000
87.773049,0.020496,0.008784,1.076040,-6.720000,0.420000,-0.560000
87.777115,0.039528,0.049288,0.891088,-6.020000,0.840000,1.120000
87.781181,-0.089792,0.156160,1.080920,3.920000,17.080000,-2.940000
87.785248,-0.017080,0.065880,1.254160,3.640000,1.680000,-4.200000
87.789314,0.127368,-0.081008,0.732976,-5.740000,-6.300000,0.140000
87.793380,-0.045384,0.072224,0.806176,-5.040000,8.540000,1.260000
87.797446,-0.007320,0.207888,1.283928,2.800000,12.040000,-2.100000
87.801512,0.066368,0.005856,1.077992,-1.680000,4.200000,-2.660000
87.805578,-0.050752,-0.166408,0.838872,-1.820000,0.980000,-0.280000
87.809644,-0.131272,0.134200,1.081408,-2.380000,10.780000,0.280000
87.813710,0.144936,0.156160,1.325408,-1.960000,0.560000,-0.560000
87.817776,0.060024,-0.013664,0.933544,-0.980000,3.920000,-2.800000
87.821842,-0.144448,-0.002928,0.817888,-0.140000,8.120000,-2.520000
87.825908,-0.051728,0.153232,1.217560,-0.420000,3.500000,-1.540000
87.829974,0.111752,0.042456,1.045784,-6.020000,-1.680000,0.420000
87.834040,-0.047824,-0.059048,0.808616,-0.980000,4.620000,-0.700000
87.838106,-0.087840,0.194224,1.169248,1.400000,9.380000,-2.240000
87.842173,0.090768,0.119072,1.190720,0.560000,-7.280000,-1.260000
87.846239,0.009760,-0.142496,0.664168,-6.160000,-6.720000,0.980000
87.850305,0.005368,0.001464,0.900360,-1.820000,-0.280000,0.420000
87.854371,0.024400,0.324032,1.348832,3.780000,10.500000,-3.920000
87.858437,0.001952,-0.033184,1.053592,0.980000,-4.060000,-3.360000
87.862503,-0.083936,-0.260592,0.736880,-6.300000,-5.600000,0.980000
87.866569,-0.046848,0.226920,1.106296,-2.660000,3.220000,1.820000
87.870635,0.092720,0.204472,1.372744,2.380000,0.420000,-1.120000
87.874701,-0.002928,-0.106384,0.949648,-3.780000,-3.080000,-1.260000
87.878767,-0.052216,0.034648,0.825696,-4.340000,-3.360000,1.120000
87.882833,-0.029768,0.204960,1.024312,0.280000,7.420000,-0.140000
87.886899,0.049288,-0.072224,1.068720,-1.540000,-5.040000,-1.260000
87.890965,0.039528,0.021472,1.112640,-0.700000,-2.100000,-1.400000
87.895031,-0.029768,0.253760,0.934520,0.700000,3.500000,-1.120000
87.899098,-0.017568,-0.033184,0.951112,-1.260000,-1.820000,-0.700000
87.903164,0.067344,-0.171776,0.897432,-5.880000,-6.020000,0.280000
87.907230,0.100040,0.192272,1.146800,-1.400000,5.040000,-1.540000
87.911296,-0.140056,0.283528,1.138504,3.780000,10.080000,-3.920000
87.915362,-0.007808,-0.268400,1.046272,-0.560000,-11.060000,-0.980000
87.919428,-0.006344,-0.089304,0.874984,-6.300000,-2.800000,2.100000
87.923494,0.015128,0.341112,1.077016,3.500000,6.860000,-0.140000
87.927560,-0.006832,0.187392,1.378112,2.940000,3.780000,-3.220000
87.931626,0.018544,-0.249856,0.820328,-6.440000,-10.640000,0.420000
87.935692,-0.057584,0.088816,0.666608,-2.800000,2.800000,1.960000
87.939758,-0.039528,0.281088,1.084336,2.520000,5.460000,-1.400000
87.943824,0.169824,-0.055632,1.486448,-1.680000,-5.880000,-1.960000
87.947890,-0.060024,-0.022448,0.733952,-4.340000,-1.680000,-0.280000
87.951957,-0.087352,0.138104,0.610976,1.960000,3.360000,-0.420000
87.956023,0.067344,-0.002928,1.409344,-0.840000,-0.420000,-1.960000
87.960089,0.162504,0.011712,1.253184,-5.040000,-5.320000,-1.960000
87.964155,-0.162016,0.169336,0.636352,-0.140000,4.760000,-1.680000
87.968221,-0.128832,0.024400,0.994544,0.700000,-0.280000,-0.140000
87.972287,0.108824,-0.153720,1.339072,-4.200000,-8.120000,0.700000
87.976353,0.075152,0.146400,0.898408,-4.060000,0.840000,0.140000
87.980419,-0.035624,0.257664,0.976488,4.620000,6.860000,-2.660000
87.984485,-0.084424,-0.017080,1.192184,-2.660000,0.280000,-1.680000
87.988551,0.083936,-0.143472,0.793000,-4.340000,-10.500000,0.840000
87.992617,0.006832,0.164456,0.763720,-2.240000,5.320000,-0.560000
87.996683,-0.032696,0.206424,1.436672,4.620000,4.340000,-2.800000
88.000749,-0.017568,-0.050264,1.166320,-1.120000,-5.040000,-1.540000
88.004815,0.035624,-0.150304,0.424560,-5.180000,-6.160000,2.100000
88.008882,-0.066856,0.135176,1.124352,0.420000,10.360000,0.420000
88.012948,0.094672,0.175192,1.561600,-0.560000,1.400000,-1.960000
88.017014,0.006832,0.020496,0.917440,-2.660000,-5.320000,-1.260000
88.021080,-0.125904,-0.081496,0.515328,-3.920000,0.280000,1.120000
88.025146,-0.039528,0.137128,1.373720,1.260000,2.660000,-0.560000
88.029212,0.114680,0.202520,1.344928,-1.260000,-0.980000,-2.940000
88.033278,0.022448,-0.095160,0.678808,-0.980000,-5.040000,-0.980000
88.037344,-0.163480,0.068320,0.719312,-3.640000,5.460000,1.120000
88.041410,0.092232,0.148352,1.312232,-1.960000,0.840000,0.700000
88.045476,0.082472,0.026352,1.078480,-1.960000,0.000000,-2.380000
88.049542,0.007808,-0.112728,0.777872,-0.560000,-2.380000,-1.820000
88.053608,-0.193736,0.198616,1.153632,0.560000,6.300000,-1.400000
88.057674,0.068808,0.040992,1.200480,-1.120000,-2.800000,-0.840000
88.061740,0.077104,-0.105896,0.864736,-4.900000,-5.180000,0.140000
88.065807,-0.050264,0.110776,1.022848,-1.960000,2.800000,0.000000
88.069873,-0.116144,0.235216,1.231224,0.700000,6.860000,-1.400000
88.073939,0.068320,-0.062464,0.937936,-4.200000,-5.880000,0.280000
88.078005,0.096624,-0.154208,0.835456,-5.180000,-1.820000,0.700000
88.082071,-0.119560,0.336232,1.152168,0.700000,11.340000,-1.680000
88.086137,-0.044896,0.190808,1.176080,6.160000,1.680000,-2.800000
88.090203,0.177144,-0.239120,0.764208,-7.560000,-7.840000,0.840000
88.094269,0.002928,-0.051728,0.875960,-5.180000,0.980000,1.260000
88.098335,-0.093696,0.378688,1.240496,4.900000,19.180000,-4.340000
88.102401,0.044408,-0.017080,1.294664,1.400000,3.080000,-3.360000
88.106467,0.047824,-0.181048,0.807152,-7.560000,0.560000,0.700000
88.110533,-0.163968,0.119560,0.825208,-2.940000,11.900000,0.700000
88.114599,-0.047824,0.287432,1.268312,5.460000,11.340000,-3.360000
88.118665,0.159088,-0.090280,1.136064,0.000000,-6.300000,-1.540000
88.122732,-0.140056,-0.079056,0.703696,-6.160000,0.700000,1.960000
88.126798,-0.091256,0.226432,0.865712,1.120000,9.660000,0.700000
88.130864,0.213256,0.120048,1.389824,2.520000,5.740000,-2.240000
88.134930,0.024888,-0.083448,0.974536,-5.180000,2.660000,-1.400000
88.138996,-0.153232,0.000976,0.642696,-0.140000,3.360000,0.140000
88.143062,0.004392,0.179096,1.055544,-0.560000,12.460000,-0.420000
88.147128,0.140544,-0.006832,1.375672,0.420000,0.140000,-2.240000
88.151194,-0.080520,-0.075640,0.921832,-0.840000,1.960000,-2.380000
88.155260,-0.118096,0.128344,0.745664,0.560000,4.340000,0.420000
88.159326,0.076128,0.184464,1.189744,-0.140000,8.540000,0.000000
88.163392,0.086376,-0.117608,1.121912,-2.660000,-1.820000,-0.980000
88.167458,-0.083448,0.030256,0.868152,-0.280000,9.520000,-2.660000
88.171524,-0.082960,0.258640,0.956480,0.980000,12.040000,-1.400000
88.175591,0.081984,0.055632,1.198040,0.420000,2.800000,-0.420000
88.179657,-0.006344,-0.180560,0.799832,-5.320000,-0.280000,-0.280000
88.183723,0.012200,0.121024,0.896944,-0.560000,5.180000,-1.260000
88.187789,-0.075152,0.325984,1.119472,1.260000,10.920000,-2.940000
88.191855,-0.009760,-0.135176,1.062864,-2.240000,-6.300000,-0.560000
88.195921,-0.012200,-0.203984,0.823744,-7.000000,-5.460000,1.540000
88.199987,0.045872,0.276208,1.020408,-0.980000,4.620000,0.140000
88.204053,-0.095648,0.278160,1.290272,4.480000,7.000000,-3.080000
88.208119,0.025376,-0.253760,0.882792,-4.340000,-11.620000,0.420000
88.212185,0.011712,-0.067832,0.844240,-6.440000,-4.200000,1.820000
88.216251,-0.043432,0.370392,1.052128,2.940000,11.620000,-1.400000
88.220317,-0.000976,0.110288,1.317112,5.740000,-1.680000,-3.220000
88.224383,0.032696,-0.224968,0.720776,-7.280000,-11.200000,1.540000
88.228449,0.011224,0.079056,0.751520,-3.920000,-0.840000,1.820000
88.232516,-0.032208,0.281576,1.155584,1.960000,9.800000,-2.240000
88.236582,0.034160,-0.084424,1.369328,0.980000,-4.060000,-3.360000
88.240648,-0.074664,-0.092720,0.824720,-5.180000,-5.740000,0.280000
88.244714,-0.073688,0.158600,0.753472,-0.280000,6.020000,0.700000
88.248780,-0.001464,0.134688,1.270752,2.520000,0.840000,-0.560000
88.252846,0.143960,-0.056608,1.191696,-3.360000,-9.800000,-0.420000
88.256912,-0.090768,0.109312,0.654896,-4.340000,0.280000,1.680000
88.260978,-0.099064,0.162016,0.821792,2.940000,5.880000,-0.700000
88.265044,0.102480,-0.120536,1.287832,-1.680000,-6.440000,-1.260000
88.269110,0.114680,-0.002928,1.218048,-4.760000,-3.640000,-0.980000
88.273176,-0.152744,0.216184,0.704672,1.960000,5.180000,-1.120000
88.277242,-0.086864,0.113216,0.997960,1.120000,1.680000,-1.120000
88.281308,0.068320,-0.215696,1.172664,-4.760000,-11.200000,0.700000
88.285374,0.075640,0.150792,0.995032,-5.040000,-0.700000,0.000000
88.289441,-0.089792,0.287920,0.871080,3.080000,8.960000,-2.660000
88.293507,-0.029768,-0.027816,1.230736,1.540000,-3.780000,-1.960000
88.297573,0.057096,-0.209840,0.890112,-7.140000,-6.160000,1.540000
88.301639,-0.013664,0.172752,0.755912,-1.540000,2.660000,1.120000
88.305705,-0.020008,0.296216,1.310768,5.320000,6.300000,-2.660000
88.309771,-0.040504,-0.106872,1.235616,-1.960000,-4.760000,-1.120000
88.313837,-0.019032,-0.150792,0.613904,-5.180000,-6.020000,1.960000
88.317903,-0.047824,0.223504,0.874984,1.260000,6.020000,0.700000
88.321969,0.064904,0.213256,1.512800,2.940000,1.820000,-2.100000
88.326035,0.063440,-0.102968,1.028704,-3.640000,-9.940000,-0.140000
88.330101,-0.104920,0.001952,0.362584,-2.520000,1.120000,0.560000
88.334167,-0.040992,0.103456,1.112152,1.820000,6.020000,-1.540000
88.338233,0.104920,0.113704,1.705560,1.260000,-2.940000,-2.800000
88.342299,-0.046360,-0.065880,0.747128,-3.080000,-3.360000,-0.980000
88.346366,-0.161528,0.065880,0.497760,0.840000,0.980000,1.260000
88.350432,0.025864,0.121512,1.351272,2.100000,0.700000,-0.140000
88.354498,0.191784,0.057584,1.322480,-3.780000,-5.040000,-0.420000
88.358564,-0.069784,0.096624,0.559736,-1.260000,3.220000,-1.540000
88.362630,-0.140056,0.010248,0.894504,1.260000,6.020000,-1.260000
88.366696,0.036112,-0.035136,1.430328,-0.140000,-3.360000,-0.560000
88.370762,0.081496,0.009272,0.951600,-2.100000,-5.320000,0.420000
88.374828,-0.060512,0.228384,0.751032,0.420000,4.480000,-0.280000
88.378894,-0.072712,0.083448,1.216096,2.380000,0.420000,-1.120000
88.382960,0.005368,-0.110288,0.993568,-2.380000,-6.440000,-0.140000
88.387026,0.031232,0.000976,0.701744,-3.640000,-0.140000,0.420000
88.391092,-0.014152,0.296704,1.271728,2.380000,7.000000,-1.540000
88.395158,-0.043432,0.010248,1.331752,2.100000,-1.820000,-2.100000
88.399225,-0.014640,-0.176656,0.502152,-3.080000,-6.440000,1.260000
88.403291,-0.008296,0.086376,0.829600,-0.560000,1.120000,1.120000
88.407357,0.036600,0.284504,1.641632,2.240000,4.480000,-1.400000
88.411423,-0.019520,-0.040016,1.089704,-0.840000,-5.040000,-1.540000
88.415489,-0.125904,-0.097600,0.366488,-1.960000,-5.600000,1.120000
88.419555,0.002928,0.167384,1.189744,0.000000,4.900000,-0.140000
88.423621,0.133712,0.128344,1.517680,-1.540000,0.700000,-1.820000
88.427687,0.007808,0.047824,0.745664,-1.260000,-2.520000,-1.400000
88.431753,-0.146888,-0.052704,0.554368,0.420000,2.940000,0.000000
88.435819,-0.000976,0.070272,1.376648,1.540000,0.420000,0.280000
88.439885,0.051240,0.023912,1.167784,-2.800000,-5.460000,0.840000
88.443951,-0.001464,0.133712,0.759816,-1.260000,-0.700000,0.700000
88.448017,-0.115656,0.113704,1.085312,2.380000,5.880000,-0.840000
88.452083,-0.037088,-0.050752,1.138016,-0.420000,-4.060000,-0.560000
88.456150,0.128344,-0.036112,0.815936,-5.320000,-4.060000,0.280000
88.460216,-0.006344,0.265472,0.987712,-0.700000,5.460000,-1.120000
88.464282,-0.041480,0.100528,1.315648,2.940000,2.660000,-2.800000
88.468348,-0.111264,-0.208864,0.690520,-1.540000,-8.680000,0.560000
88.472414,0.003904,0.044408,0.730536,-2.660000,-2.660000,1.960000
88.476480,0.117120,0.251320,1.450824,-0.560000,3.920000,-0.700000
88.480546,-0.026352,0.097112,1.335656,-0.280000,0.280000,-2.940000
88.484612,-0.158112,-0.148352,0.413824,-2.240000,-2.100000,-0.700000
88.488678,0.029768,0.083936,0.886696,-1.820000,2.100000,0.840000
88.492744,0.124928,0.176168,1.578192,-1.540000,2.100000,-0.700000
88.496810,-0.049288,-0.020008,0.910608,-1.820000,-3.360000,-0.700000
88.500876,-0.150792,0.018056,0.490440,-0.560000,0.000000,0.980000
88.504942,0.037576,0.031720,1.147776,0.140000,2.380000,1.120000
88.509008,0.074664,0.071736,1.502552,-3.780000,-4.620000,0.840000
88.513075,-0.035136,0.031720,0.770064,-2.660000,0.140000,-0.560000
88.517141,-0.092720,0.167872,0.791048,2.940000,5.880000,-1.820000
88.521207,-0.016592,-0.023912,1.187792,0.980000,-2.660000,-1.960000
88.525273,0.119072,-0.083448,1.053592,-4.480000,-8.820000,-0.420000
88.529339,0.004392,0.244000,0.839360,-2.380000,4.060000,-1.260000
88.533405,-0.083936,0.109312,1.131184,2.100000,6.020000,-2.520000
88.537471,-0.126880,-0.181048,0.933544,0.420000,-7.700000,0.420000
88.541537,0.038064,-0.035136,0.904752,-3.360000,-3.920000,2.800000
88.545603,0.115168,0.361608,1.241960,-1.820000,5.040000,0.140000
88.549669,-0.052704,0.084424,1.219512,3.080000,1.540000,-2.800000
88.553735,-0.130784,-0.253760,0.527040,-0.560000,-4.900000,-0.420000
88.557801,0.031720,0.137128,0.897432,-3.220000,3.360000,1.260000
88.561867,0.139080,0.238632,1.503528,-0.980000,0.980000,-0.420000
88.565933,-0.047824,-0.031720,1.062376,-1.680000,-1.820000,-1.120000
88.570000,-0.210816,-0.095160,0.517768,1.400000,-1.260000,0.280000
88.574066,0.073688,0.167384,1.006744,0.420000,1.540000,0.700000
88.578132,0.103456,0.055632,1.477664,-3.500000,-4.900000,0.000000
88.582198,-0.038552,0.031232,0.940864,-2.240000,-0.280000,-1.400000
88.586264,-0.139568,0.093208,0.663192,2.380000,6.720000,-2.380000
88.590330,0.051728,0.010736,1.175592,0.980000,-3.920000,-0.700000
88.594396,0.046848,-0.086864,1.225856,-4.060000,-5.880000,0.840000
88.598462,-0.026352,0.183488,0.851072,-2.380000,4.060000,0.700000
88.602528,-0.032208,0.201056,1.040904,3.500000,4.200000,-1.540000
88.606594,-0.101992,-0.209352,0.947208,0.280000,-6.300000,-0.420000
88.610660,0.044896,-0.012688,0.972096,-4.060000,-3.920000,2.100000
88.614726,0.088328,0.364536,1.115080,-1.400000,6.160000,-0.420000
88.618792,-0.001464,0.096624,1.156072,1.680000,2.380000,-3.080000
88.622858,-0.146400,-0.315248,0.748592,0.280000,-5.600000,-1.400000
88.626924,-0.011224,0.059536,0.867664,-0.420000,0.000000,0.980000
88.630991,0.121024,0.325496,1.387384,-2.940000,1.400000,-0.140000
88.635057,-0.013176,-0.017568,1.066280,-2.940000,0.280000,-0.140000
88.639123,-0.181536,-0.061976,0.650504,1.400000,1.540000,-0.700000
88.643189,0.003904,0.083936,0.955016,-1.260000,1.120000,-0.420000
88.647255,0.143960,0.139568,1.295640,-6.020000,-4.620000,0.280000
88.651321,-0.000488,0.000000,0.940376,-3.220000,1.120000,-0.560000
88.655387,-0.170312,0.070760,0.954528,3.640000,6.580000,-2.660000
88.659453,0.032208,-0.016592,1.119472,-0.700000,-5.040000,-2.240000
88.663519,0.092720,-0.019032,0.980880,-6.440000,-7.700000,1.260000
88.667585,-0.064904,0.144936,0.974048,-2.800000,6.720000,0.420000
88.671651,-0.059536,0.139080,1.207312,0.700000,4.480000,-2.520000
88.675717,-0.000488,-0.019032,0.826184,-1.820000,-4.760000,-1.260000
88.679783,0.000488,-0.095160,0.721264,-4.060000,-2.100000,2.100000
88.683849,-0.026352,0.181048,1.349320,0.000000,3.640000,0.560000
88.687915,0.086376,0.124440,1.376648,0.840000,2.380000,-3.500000
88.691982,-0.061000,-0.119072,0.639280,-0.700000,-1.820000,-2.380000
88.696048,-0.124440,0.057096,0.756888,-1.680000,2.800000,0.140000
88.700114,0.014640,0.193248,1.499136,-4.060000,1.680000,1.260000
88.704180,0.134688,0.061488,1.006256,-4.200000,-1.820000,0.000000
88.708246,-0.113704,0.007320,0.504104,-0.700000,4.200000,-1.260000
88.712312,-0.067832,0.037088,1.056520,1.540000,4.060000,-1.680000
88.716378,0.113216,0.017568,1.491816,-4.200000,-5.880000,-0.280000
88.720444,0.055144,-0.018544,0.873032,-4.480000,-1.960000,-0.840000
88.724510,-0.126392,0.147864,0.783728,0.420000,8.680000,-3.220000
88.728576,-0.074176,0.114680,1.304424,3.080000,0.420000,-2.940000
88.732642,0.054168,-0.092720,1.007720,-6.860000,-6.300000,0.840000
88.736708,-0.046848,0.025864,0.712480,-5.880000,1.400000,1.120000
88.740774,0.006832,0.286944,1.133624,1.820000,10.360000,-2.240000
88.744840,0.025376,-0.014152,1.275632,0.980000,-0.840000,-1.960000
88.748907,-0.059536,-0.160064,0.744200,-4.620000,-4.200000,1.260000
88.752973,-0.020496,0.068320,0.963312,-2.380000,1.680000,0.700000
88.757039,0.077592,0.327936,1.319552,0.560000,7.000000,-3.080000
88.761105,-0.043920,-0.025864,1.035536,-0.280000,-1.820000,-2.940000
88.765171,-0.162992,-0.157136,0.669536,-4.340000,-2.520000,1.120000
88.769237,0.007808,0.127856,1.147288,-0.420000,4.480000,0.280000
88.773303,0.155184,0.205448,1.363472,-1.400000,0.700000,-1.540000
88.777369,0.006344,-0.004392,0.751520,-2.800000,-0.420000,-1.540000
88.781435,-0.136152,-0.059536,0.680760,0.000000,2.800000,-0.840000
88.785501,0.018056,0.083936,1.388848,1.680000,3.360000,-1.400000
88.789567,0.030744,0.070760,1.262944,-1.820000,-3.360000,-0.840000
88.793633,-0.009272,0.060512,0.752008,-2.240000,1.120000,-1.120000
88.797699,-0.121024,0.112240,0.898896,2.380000,5.040000,-1.820000
88.801765,-0.040016,-0.001464,1.281000,2.100000,-1.820000,-2.380000
88.805831,0.105408,-0.088328,1.002840,-5.040000,-8.260000,-0.420000
88.809898,-0.002440,0.310368,0.801784,-2.380000,5.320000,-0.980000
88.813964,-0.054656,0.099064,1.018944,4.340000,4.620000,-2.940000
88.818030,-0.131272,-0.210328,1.092144,0.700000,-6.860000,-1.260000
88.822096,0.076128,-0.082960,1.079456,-2.940000,-6.720000,1.260000
88.826162,0.071736,0.394304,1.043344,-0.840000,5.740000,0.000000
88.830228,-0.080520,0.091256,1.166808,4.200000,1.540000,-3.220000
88.834294,-0.153720,-0.269864,0.832528,0.280000,-7.700000,-0.560000
88.838360,0.081008,0.069296,0.845216,-2.660000,-3.780000,1.680000
88.842426,0.094184,0.435784,1.241960,-0.420000,7.280000,-0.560000
88.846492,-0.053680,-0.132736,1.181448,3.640000,-1.820000,-3.080000
88.850558,-0.121024,-0.149328,0.685152,0.280000,-5.180000,-1.120000
88.854624,0.063440,0.172752,0.975512,0.000000,3.360000,-0.700000
88.858690,0.056120,0.161528,1.320528,-0.980000,-0.560000,-1.120000
88.862756,-0.065880,-0.099064,1.073112,-0.840000,-5.320000,-1.540000
88.866823,-0.128832,0.063440,0.730536,0.420000,-0.700000,-0.140000
88.870889,-0.016104,0.131760,1.073600,2.380000,-1.120000,-0.560000
88.874955,0.071736,-0.059048,1.347856,-2.940000,-7.840000,-0.140000
88.879021,0.063928,0.081984,0.891576,-1.400000,-1.260000,-0.560000
88.883087,-0.123464,0.248392,0.820328,3.920000,9.660000,-2.240000
88.887153,-0.077592,-0.191296,1.056032,4.200000,-3.360000,-2.800000
88.891219,0.094184,-0.081496,1.144848,-3.500000,-9.520000,0.560000
88.895285,0.051728,0.331352,0.943304,0.000000,3.920000,0.140000
88.899351,-0.111752,0.118096,1.121912,4.060000,2.100000,-2.100000
88.903417,-0.166896,-0.261080,0.816424,1.120000,-9.240000,0.280000
88.907483,0.129320,0.069296,0.852048,-5.600000,-6.020000,2.660000
88.911549,0.058072,0.287432,1.412272,1.120000,5.740000,-1.960000
88.915615,-0.049776,-0.002928,1.156560,1.540000,-1.120000,-3.920000
88.919681,-0.116632,-0.100528,0.515328,-0.280000,-4.200000,-0.560000
88.923747,-0.009760,0.121512,0.956968,-1.260000,4.340000,1.120000
88.927814,0.087840,0.095648,1.557208,2.520000,-2.240000,-1.680000
88.931880,0.051728,0.009272,0.769088,-1.540000,-3.780000,-1.680000
88.935946,-0.131760,0.017080,0.662704,0.140000,1.680000,0.000000
88.940012,-0.102968,0.076128,1.252208,3.080000,4.620000,-1.820000
88.944078,0.146888,-0.046848,1.268312,-0.280000,-9.380000,-2.380000
88.948144,-0.023912,0.093696,0.783240,-3.780000,0.420000,-0.980000
88.952210,-0.203984,0.115656,1.029192,3.500000,4.060000,-0.280000
88.956276,-0.024400,0.027816,1.075064,1.680000,0.000000,-0.980000
88.960342,0.127368,-0.178608,0.875472,-4.060000,-9.520000,1.400000
88.964408,-0.071248,0.258640,1.224392,0.560000,5.880000,-0.280000
88.968474,-0.079544,0.217648,1.056520,5.600000,2.380000,-2.240000
88.972540,0.050264,-0.171776,0.780312,0.280000,-6.860000,0.560000
88.976606,-0.040992,-0.053680,0.756400,-4.760000,-1.820000,1.960000
88.980672,0.041968,0.292800,1.252208,4.760000,7.980000,-3.080000
88.984739,-0.004880,-0.000976,1.286368,2.660000,-0.140000,-5.040000
88.988805,0.034648,-0.170800,0.724680,-3.780000,-7.980000,-0.280000
88.992871,-0.191296,0.178120,0.800320,-1.400000,9.520000,0.280000
88.996937,-0.022448,0.058560,1.422032,4.760000,0.140000,-2.100000
89.001003,0.112240,-0.099064,1.138504,0.420000,-7.980000,-1.400000
89.005069,-0.133712,0.149816,0.610976,-1.820000,-1.120000,0.840000
89.009135,-0.053192,0.114680,1.251720,2.660000,6.020000,0.140000
89.013201,0.040504,-0.033184,1.159000,-2.380000,-2.940000,-1.260000
89.017267,-0.030256,0.001464,0.698816,0.420000,-1.260000,-1.960000
89.021333,-0.126880,0.121024,1.182912,2.520000,5.320000,-2.800000
89.025399,0.045872,0.119072,1.151680,-0.980000,-3.640000,-0.980000
89.029465,0.082960,-0.036112,0.806176,-4.060000,-7.280000,1.540000
89.033531,-0.173728,0.051728,0.762744,-0.840000,5.740000,0.280000
89.037597,0.013664,0.136640,1.159000,4.340000,0.980000,-1.820000
89.041663,0.072712,-0.109312,1.132648,-4.200000,-7.560000,1.400000
89.045730,-0.035624,-0.000488,0.767624,-5.740000,-2.520000,2.800000
89.049796,-0.034648,0.238632,1.076040,3.640000,7.840000,-1.120000
89.053862,-0.081496,-0.040992,1.197064,2.520000,-0.280000,-3.080000
89.057928,0.015128,-0.200568,1.000888,-2.660000,-10.360000,0.420000
89.061994,-0.070272,0.286456,0.982832,-3.220000,4.480000,0.980000
89.066060,0.066856,0.171288,1.337608,-0.980000,2.660000,-0.700000
89.070126,-0.094184,-0.085400,0.848632,-0.560000,-2.100000,-1.400000
89.074192,-0.123952,0.002440,0.481656,-0.280000,-1.260000,0.560000
89.078258,0.064416,0.140056,1.441064,-0.700000,2.380000,-0.140000
89.082324,0.119560,0.099552,1.203896,-4.200000,-2.940000,-0.420000
89.086390,-0.100528,-0.019032,0.636352,0.420000,-1.400000,-1.120000
89.090456,-0.237168,-0.009272,0.856440,2.660000,3.080000,-0.420000
89.094522,0.157136,0.007808,1.476200,-1.400000,-6.720000,0.840000
89.098588,0.111752,0.040992,0.979416,-6.720000,-6.580000,1.680000
89.102654,-0.172752,0.122000,0.937448,-0.140000,7.700000,-0.140000
89.106721,-0.108336,0.111752,1.044808,2.940000,3.360000,-0.840000
89.110787,0.055632,-0.135664,0.865712,-2.520000,-8.400000,1.120000
89.114853,-0.023912,0.103456,1.041392,-4.060000,0.140000,1.540000
89.118919,0.045872,0.287432,1.115568,1.960000,4.900000,-1.120000
89.122985,-0.050752,-0.030744,0.937936,1.120000,-2.520000,-1.680000
89.127051,-0.126880,-0.259616,0.591944,-0.280000,-4.760000,0.560000
89.131117,0.055632,0.227408,1.245864,-1.260000,2.940000,0.280000
89.135183,0.134200,0.087352,1.465952,-2.520000,-0.560000,-1.260000
89.139249,-0.163968,-0.057584,0.869616,-0.980000,0.980000,-0.840000
89.143315,-0.210816,0.023912,0.658800,2.800000,1.260000,0.700000
89.147381,0.080520,0.095648,1.300032,-3.220000,-0.560000,0.700000
89.151447,0.114680,0.000976,1.225856,-3.920000,-8.260000,0.560000
89.155513,-0.106872,0.256200,0.681736,-1.680000,7.000000,-1.260000
89.159579,-0.082472,0.020984,0.901336,0.980000,0.280000,-1.260000
89.163646,0.048800,-0.191784,0.957456,-3.080000,-6.580000,0.420000
89.167712,0.026840,0.085888,0.993080,-3.220000,-0.840000,0.140000
89.171778,-0.054656,0.255224,1.161440,1.120000,7.980000,-1.820000
89.175844,-0.080032,-0.143960,1.210240,-0.420000,-6.720000,-0.140000
89.179910,-0.111752,-0.087352,0.641720,-3.640000,-1.120000,2.380000
89.183976,-0.033184,0.174216,1.093608,0.000000,3.220000,1.260000
89.188042,0.107848,0.134200,1.562088,0.840000,-3.360000,-1.260000
89.192108,-0.017568,-0.003416,0.759328,-2.940000,-3.360000,0.000000
89.196174,-0.149816,0.112728,0.450912,0.840000,4.200000,-0.420000
89.200240,0.056608,-0.080032,1.352248,-0.140000,-2.660000,-1.400000
89.204306,0.156160,0.055632,1.252208,-3.780000,-4.200000,-1.120000
89.208372,-0.123464,0.171776,0.759328,-0.420000,6.440000,-1.540000
89.212438,-0.181536,-0.042456,1.089216,1.260000,-0.140000,-1.120000
89.216504,0.025864,-0.132248,0.998936,-4.200000,-7.280000,1.260000
89.220570,0.030744,0.239120,0.859856,-2.380000,3.780000,1.680000
89.224637,-0.045384,0.171288,1.288808,1.680000,4.620000,-2.100000
89.228703,-0.033672,-0.103456,0.897920,-0.420000,-7.420000,-0.980000
89.232769,0.051728,0.000488,0.587064,-5.460000,0.140000,1.960000
89.236835,-0.116632,0.095160,1.148752,-0.420000,7.420000,-0.280000
89.240901,0.018056,0.005368,1.528416,1.120000,-5.600000,-2.380000
89.244967,-0.015128,0.030256,0.799344,-4.480000,-2.660000,0.420000
89.249033,-0.150304,0.098576,0.784216,-3.220000,6.440000,1.680000
89.253099,-0.055632,-0.023912,1.318088,0.420000,-2.240000,-0.560000
89.257165,0.167384,0.053192,0.954040,-1.960000,-1.960000,-0.560000
89.261231,0.003416,0.222528,0.832528,-0.840000,7.560000,-0.420000
89.265297,-0.185928,-0.049288,1.064328,0.840000,-0.840000,-0.840000
89.269363,0.074176,-0.173240,0.929152,-2.800000,-7.700000,0.420000
89.273429,0.048800,0.151280,0.857904,-2.380000,3.780000,-0.140000
89.277495,-0.122976,0.203984,1.484496,2.380000,6.160000,-3.080000
89.281562,-0.120048,-0.177632,0.960384,-0.140000,-6.720000,-0.700000
89.285628,0.016104,0.040504,0.563640,-5.040000,-1.960000,2.660000
89.289694,0.022936,0.223016,1.155584,0.000000,5.600000,-0.140000
89.293760,0.035136,0.010248,1.329312,3.080000,0.140000,-3.220000
89.297826,-0.017080,-0.049776,0.658312,-0.700000,-2.380000,-0.700000
89.301892,-0.112728,0.085888,0.790072,0.000000,3.640000,0.280000
89.305958,-0.050264,-0.066368,1.406416,0.980000,-2.800000,-1.540000
89.310024,0.007808,0.034648,1.053592,-0.420000,-2.380000,-0.280000
89.314090,-0.029280,0.278160,0.940376,-0.700000,6.300000,0.140000
89.318156,-0.105896,-0.096136,1.165832,0.140000,-4.620000,0.140000
89.322222,-0.018056,-0.060512,0.685640,-1.260000,-5.040000,0.560000
89.326288,0.072224,0.153720,0.839848,-1.540000,5.740000,0.840000
89.330354,0.020984,0.172264,1.467904,0.420000,3.080000,-1.820000
89.334420,-0.093208,-0.134688,0.899872,3.220000,-7.280000,-1.680000
89.338486,-0.052216,-0.033184,0.471408,-2.380000,0.560000,0.420000
89.342553,-0.010248,0.062952,1.409344,-0.980000,0.700000,-1.120000
89.346619,0.051728,0.101016,1.404464,0.000000,-1.820000,-2.520000
89.350685,-0.106872,0.122488,0.603656,0.420000,3.500000,-2.660000
89.354751,-0.124440,0.032208,0.959408,-0.280000,1.960000,-1.260000
89.358817,0.023424,-0.156648,1.077992,-0.700000,-8.820000,-0.140000
89.362883,0.014640,0.185440,0.803736,-1.680000,3.920000,0.560000
89.366949,0.047336,0.182024,1.176568,3.080000,5.320000,-1.960000
89.371015,-0.046360,-0.113216,1.203896,0.000000,-5.460000,-1.540000
89.375081,-0.122488,-0.108824,0.437736,-1.260000,-1.120000,0.140000
89.379147,-0.083448,0.081008,1.167296,-1.680000,4.620000,0.420000
89.383213,0.085888,0.134200,1.624552,1.400000,-4.760000,-1.120000
89.387279,-0.011712,0.057096,0.741272,-2.940000,-1.540000,0.140000
89.391345,-0.223992,0.037088,0.669048,0.840000,4.200000,-0.280000
89.395411,0.031720,-0.078080,1.293200,-1.260000,-4.200000,-0.700000
89.399478,0.117120,0.128832,0.984784,-2.380000,-1.680000,0.000000
89.403544,-0.029280,0.193248,0.865224,-0.280000,9.380000,-1.680000
89.407610,-0.133712,-0.042456,1.163880,3.220000,0.420000,-2.800000
89.411676,0.060024,-0.198128,0.629520,-2.660000,-9.520000,0.980000
89.415742,-0.078568,0.107360,0.925736,-1.960000,1.680000,0.420000
89.419808,0.019032,0.204472,1.630896,3.080000,4.200000,-3.080000
89.423874,-0.017080,-0.018544,0.997472,-1.260000,-5.040000,-2.380000
89.427940,-0.161528,-0.052216,0.459696,-4.200000,-0.980000,0.420000
89.432006,-0.088816,0.081496,1.272216,1.680000,3.220000,-0.980000
89.436072,0.161040,0.063440,1.127280,-3.220000,-1.820000,-1.680000
89.440138,0.017568,0.156648,0.832040,-1.820000,1.260000,-1.400000
89.444204,-0.180560,0.064904,0.984784,2.380000,5.460000,-2.800000
89.448270,-0.015616,-0.199104,0.857416,-2.520000,-6.440000,-0.840000
89.452336,0.001464,0.004392,0.829112,-4.760000,-4.480000,2.100000
89.456402,-0.014152,0.238144,1.440088,1.540000,7.140000,0.280000
89.460469,-0.046360,0.070272,1.214632,-0.140000,-0.280000,-1.540000
89.464535,-0.035136,-0.238144,0.564128,-3.080000,-7.140000,0.700000
89.468601,-0.123952,0.121024,1.111176,-3.220000,4.620000,0.420000
89.472667,0.054168,0.189832,1.293688,1.820000,1.680000,-2.940000
89.476733,0.081008,0.030256,0.893040,-2.520000,-4.200000,-1.820000
89.480799,-0.171776,-0.019032,0.771528,-1.540000,0.980000,0.420000
89.484865,-0.067832,0.085888,0.953064,2.100000,0.980000,-0.420000
89.488931,0.142496,-0.110776,0.977464,-1.960000,-8.400000,0.560000
89.492997,0.013176,0.124928,1.225368,-3.920000,5.740000,-0.700000
89.497063,-0.090768,0.181536,1.077504,2.100000,6.020000,-3.500000
89.501129,-0.153720,-0.129320,0.765672,-0.280000,-4.200000,-1.680000
89.505195,-0.035136,-0.171288,0.897432,-4.060000,-4.340000,1.820000
89.509261,0.026352,0.387960,1.323944,-2.380000,6.580000,0.420000
89.513327,-0.008784,0.118096,1.031632,3.640000,-1.400000,-2.380000
89.517393,-0.081008,-0.241072,0.723216,-3.780000,-5.040000,0.980000
89.521460,-0.047824,0.113704,0.842288,-1.820000,4.760000,1.540000
89.525526,0.034648,0.127368,1.240496,-0.840000,0.000000,0.000000
89.529592,0.076616,-0.091744,1.231712,-1.260000,-5.740000,-1.820000
89.533658,-0.119560,0.132736,0.860832,-3.780000,5.180000,-0.840000
89.537724,-0.096624,0.052216,0.938424,0.000000,-0.980000,-1.820000
89.541790,-0.032208,-0.162016,1.088728,-4.480000,-6.160000,0.000000
89.545856,0.076128,0.213744,1.034072,-3.780000,4.340000,-0.700000
89.549922,0.001952,0.272304,1.088240,-0.420000,5.600000,-1.680000
89.553988,-0.156160,-0.206912,0.860344,0.280000,-5.460000,-0.840000
89.558054,-0.015616,-0.173240,0.753960,-4.900000,-2.800000,2.520000
89.562120,0.046360,0.316224,1.221952,-0.700000,4.620000,0.280000
89.566186,-0.040992,0.102480,1.485472,0.000000,0.560000,-2.800000
89.570252,-0.133712,-0.195688,0.711992,-1.820000,-6.440000,-0.280000
89.574318,-0.010248,0.162016,0.640744,-3.360000,3.640000,0.980000
89.578385,0.015616,0.080520,1.362008,-2.240000,1.960000,-0.980000
89.582451,0.052216,-0.040016,1.235616,0.280000,-4.340000,-2.240000
89.586517,-0.065392,0.114680,0.709064,-1.400000,5.040000,-0.980000
89.590583,-0.127368,0.011712,1.005280,-0.980000,0.560000,0.140000
89.594649,-0.054656,-0.108336,1.217072,-1.680000,-8.400000,1.260000
89.598715,0.067344,0.188856,0.863760,-2.100000,2.100000,-0.140000
89.602781,0.014640,0.224480,1.073600,0.280000,4.760000,-2.380000
89.606847,-0.076616,-0.145424,1.088728,-2.800000,-6.020000,-1.540000
89.610913,-0.096136,-0.093696,0.557296,-2.800000,-2.100000,1.540000
89.614979,0.032208,0.165920,1.166808,0.140000,4.620000,-0.140000
89.619045,-0.002440,0.059048,1.569408,-0.560000,-3.080000,-2.520000
89.623111,-0.101504,-0.017568,0.854488,-1.680000,-4.760000,0.000000
89.627177,-0.099064,0.076616,0.501176,-1.120000,1.680000,0.980000
89.631243,0.010248,-0.003904,1.402024,0.280000,-3.360000,-0.140000
89.635309,0.165920,0.068808,1.173152,-2.100000,-4.200000,-0.420000
89.639376,-0.082472,0.195688,0.715408,0.840000,5.740000,-0.980000
89.643442,-0.140056,-0.133224,1.092632,1.820000,-1.120000,-1.400000
89.647508,0.032208,-0.102480,1.105808,-3.360000,-7.420000,0.280000
89.651574,-0.035136,0.292312,0.784704,-1.260000,5.040000,-0.140000
89.655640,-0.040504,0.115168,1.361032,1.680000,3.500000,-2.800000
89.659706,-0.083448,-0.096624,0.905240,-1.260000,-8.540000,-0.140000
89.663772,0.053192,0.039040,0.498248,-5.040000,0.980000,2.800000
89.667838,-0.038552,0.061976,1.197552,-0.280000,5.180000,0.000000
89.671904,0.013664,-0.023912,1.420568,3.780000,-3.780000,-3.080000
89.675970,-0.044896,0.089304,0.739320,-1.960000,0.420000,-0.840000
89.680036,-0.159576,0.036600,0.833504,-1.120000,3.080000,0.280000
89.684102,-0.082960,-0.056120,1.306376,0.280000,-4.760000,-0.980000
89.688168,0.141520,0.089304,0.942328,-3.080000,-1.960000,-0.140000
89.692234,-0.041968,0.289384,0.988200,0.420000,7.840000,-2.380000
89.696300,-0.131272,-0.140056,1.067256,0.420000,-4.900000,-1.820000
89.700367,0.028792,-0.099552,0.681736,-2.940000,-4.200000,0.420000
89.704433,0.066368,0.147376,1.006256,-1.960000,5.180000,0.000000
89.708499,-0.102480,0.145912,1.580144,1.960000,2.660000,-3.220000
89.712565,-0.068320,-0.149816,0.803248,-0.980000,-5.040000,-1.540000
89.716631,0.006832,0.049776,0.718824,-5.320000,1.120000,0.980000
89.720697,-0.131760,0.156648,1.347368,0.000000,4.340000,-1.680000
89.724763,0.081008,0.025376,1.082384,1.680000,-2.940000,-3.080000
89.728829,0.009760,0.123464,0.594872,-2.800000,0.980000,-1.260000
89.732895,-0.124440,0.051240,1.059936,0.700000,1.820000,-0.420000
89.736961,0.014640,-0.148840,1.041880,-2.240000,-4.200000,-0.840000
89.741027,0.026352,0.072712,0.819840,-1.400000,3.360000,-0.700000
89.745093,-0.050264,0.160552,1.447408,1.680000,8.260000,-2.520000
89.749159,-0.114680,-0.041968,1.030656,0.140000,-4.900000,-1.120000
89.753225,-0.065392,-0.060024,0.582184,-1.120000,-0.420000,0.140000
89.757292,0.033672,0.085400,1.193160,-1.960000,6.020000,-0.420000
89.761358,-0.028304,0.246928,1.418128,1.540000,1.960000,-4.620000
89.765424,-0.061488,-0.047824,0.683200,-1.260000,-2.240000,-1.400000
89.769490,-0.079056,-0.005856,0.681736,-3.360000,2.520000,0.700000
89.773556,0.017080,0.069296,1.322968,-2.660000,-0.980000,0.560000
89.777622,0.064416,0.046848,1.033096,0.560000,0.280000,-1.820000
89.781688,-0.021960,0.005368,0.841312,-0.980000,2.940000,-0.560000
89.785754,-0.132248,0.097600,1.242448,-0.700000,3.080000,-0.840000
89.789820,-0.026840,-0.080032,1.055056,-3.360000,-4.200000,0.560000
89.793886,-0.061000,0.001952,0.844728,-1.120000,1.820000,0.280000
89.797952,-0.042944,0.243512,1.342000,2.800000,5.880000,-0.980000
89.802018,-0.028304,0.091744,1.167296,0.560000,-4.900000,-0.700000
89.806084,-0.006832,-0.145424,0.559736,-5.320000,-3.640000,1.960000
89.810150,0.011224,0.071248,0.973072,-0.280000,5.740000,-0.700000
89.814216,0.065392,0.261568,1.480592,0.560000,5.320000,-3.920000
89.818283,-0.090280,-0.052704,0.823256,0.560000,-3.080000,-2.380000
89.822349,-0.096136,-0.135176,0.621224,-4.620000,-2.940000,1.680000
89.826415,-0.042944,0.158112,1.337120,-0.140000,1.120000,0.000000
89.830481,0.059536,0.131272,1.272216,1.120000,-1.260000,-0.700000
89.834547,-0.092720,-0.040504,0.909632,1.120000,-1.120000,-0.420000
89.838613,-0.113216,0.103944,0.986248,-3.500000,4.060000,0.560000
89.842679,0.039040,0.032208,1.073600,0.280000,-3.360000,-0.280000
89.846745,0.022448,-0.047824,0.885232,-1.120000,-0.840000,-1.120000
89.850811,-0.020496,0.181048,1.138016,1.680000,5.460000,-2.940000
89.854877,-0.013664,0.150304,1.177544,0.280000,-1.960000,-2.520000
89.858943,-0.068320,-0.203008,0.702232,-3.920000,-8.120000,0.840000
89.863009,-0.095160,0.021472,0.913536,-2.240000,3.080000,1.960000
89.867075,0.086864,0.253272,1.426424,0.140000,4.760000,-1.120000
89.871141,-0.055632,0.028304,1.141920,1.260000,-3.920000,-1.820000
89.875208,-0.140544,-0.156648,0.697352,-2.660000,-2.520000,1.120000
89.879274,-0.031720,0.172264,0.948672,-1.120000,1.820000,0.840000
89.883340,0.092232,0.137128,1.285880,2.520000,-2.100000,-1.820000
89.887406,-0.053680,-0.009272,1.098488,0.000000,-1.120000,-2.240000
89.891472,-0.060024,0.078568,0.754448,-1.540000,3.360000,-1.260000
89.895538,0.031720,0.052704,1.014064,-2.940000,-2.380000,0.000000
89.899604,-0.092720,-0.135176,1.081896,-1.960000,-0.560000,-0.140000
89.903670,0.011712,0.167384,1.105808,-0.560000,5.040000,-0.840000
89.907736,0.014152,0.170800,1.212192,-0.140000,-0.700000,-1.960000
89.911802,-0.135176,-0.128832,0.907680,-3.360000,-6.300000,-0.420000
89.915868,-0.097112,-0.011712,0.812032,-2.240000,-0.700000,1.260000
89.919934,0.092720,0.293288,1.121912,0.140000,5.880000,-1.260000
89.924000,0.005856,0.012200,1.299544,0.560000,-2.660000,-2.100000
89.928066,-0.164456,-0.068320,0.636840,-2.940000,-2.380000,0.560000
89.932132,0.024400,0.057096,0.825696,-2.240000,3.500000,0.840000
89.936199,0.056120,0.036600,1.346880,-0.420000,-1.400000,-1.400000
89.940265,-0.052704,-0.008296,1.245376,-0.420000,-2.520000,-1.540000
89.944331,-0.130296,0.156648,0.808616,0.000000,3.220000,-0.840000
89.948397,0.023912,0.002928,1.045784,-1.540000,-2.240000,-0.280000
89.952463,-0.007320,-0.069784,1.095560,-4.060000,-5.600000,0.420000
89.956529,-0.021960,0.200080,0.926712,1.120000,7.700000,-1.820000
89.960595,0.043920,0.152256,1.097512,0.840000,3.500000,-2.800000
89.964661,-0.092232,-0.113704,0.966240,-2.800000,-4.200000,-0.420000
89.968727,-0.081008,-0.062464,0.659288,-3.220000,-0.280000,1.540000
89.972793,0.053680,0.212768,1.149240,1.400000,7.000000,-1.680000
89.976859,0.004880,0.012688,1.414224,1.260000,-3.220000,-2.940000
89.980925,-0.094184,-0.083448,0.900848,-1.960000,-4.480000,-0.700000
89.984991,-0.051240,0.075152,0.734440,-1.120000,3.920000,-0.140000
89.989057,0.008784,0.108824,1.401048,-0.840000,2.940000,-2.520000
89.993123,0.000976,0.027816,1.112152,-2.240000,-4.200000,-1.960000
89.997190,-0.123464,0.181536,0.689544,-1.960000,4.620000,-0.140000
90.001256,-0.017080,-0.037088,0.928176,-2.380000,-0.980000,1.540000
90.005322,0.014640,-0.032696,1.184376,-2.940000,-6.300000,0.420000
90.009388,0.047824,0.083448,0.835456,0.140000,2.240000,-1.120000
90.013454,-0.095648,0.159088,1.081408,3.920000,7.140000,-1.960000
90.017520,-0.070272,-0.088816,1.208776,-2.100000,-7.840000,0.140000
90.021586,-0.002440,-0.075640,0.771040,-3.640000,-7.980000,1.260000
90.025652,-0.002440,0.158112,0.956968,-0.840000,4.620000,-0.420000
90.029718,-0.052704,0.142008,1.545496,2.240000,-1.540000,-3.920000
90.033784,-0.041968,-0.020008,0.889136,-5.040000,-9.940000,-1.680000
90.037850,-0.101992,-0.027816,0.551928,-3.360000,-3.080000,0.560000
90.041916,-0.136152,0.138592,1.203408,0.420000,-2.940000,-0.420000
90.045982,0.102480,0.077592,1.386408,2.520000,-16.660000,-1.680000
90.050048,-0.033672,0.053192,0.587552,-1.960000,-11.900000,0.140000
90.054115,-0.044896,-0.020984,0.735904,1.260000,-8.820000,0.700000
90.058181,0.038552,0.006832,1.363472,-0.280000,-5.040000,-0.280000
90.062247,0.047824,0.039528,0.882304,0.280000,-7.280000,-0.280000
90.066313,-0.067832,0.060512,1.021384,3.080000,2.240000,-1.120000
90.070379,-0.025376,0.002928,1.132160,-1.960000,-7.560000,0.000000
90.074445,-0.034160,-0.012200,0.800320,-1.120000,-9.660000,1.120000
90.078511,-0.070272,0.018544,0.907680,1.120000,-2.240000,0.280000
90.082577,0.032696,0.149328,1.475224,2.520000,-5.180000,-2.240000
90.086643,-0.110288,0.067832,0.900360,-0.560000,-7.420000,-0.700000
90.090709,-0.042456,-0.071248,0.678808,-0.560000,-7.700000,2.240000
90.094775,0.000976,0.166896,1.188280,0.560000,1.820000,0.420000
90.098841,0.006344,0.107848,1.055056,1.540000,-5.040000,-2.800000
90.102907,-0.022936,-0.052216,0.948184,2.380000,-9.940000,-1.540000
90.106973,-0.141032,0.123952,0.768600,-2.520000,0.000000,0.980000
90.111039,0.066368,0.064904,1.144848,-2.240000,-13.160000,1.260000
90.115106,-0.033184,-0.063440,0.922320,0.980000,-8.540000,-0.700000
90.119172,-0.021472,0.087352,0.930616,1.820000,-6.580000,-1.680000
90.123238,0.058560,0.086376,1.171200,-0.840000,-13.300000,-0.980000
90.127304,-0.121512,-0.142008,0.897432,-2.800000,-12.180000,1.120000
90.131370,-0.037576,0.053192,0.860344,0.420000,-6.580000,1.820000
90.135436,-0.001464,0.205448,1.287832,0.420000,-4.200000,-0.280000
90.139502,-0.086376,-0.055632,1.203408,-0.700000,-14.420000,0.280000
90.143568,0.022936,-0.044408,0.608048,-3.360000,-11.900000,2.800000
90.147634,-0.057096,0.261568,0.997960,-2.660000,-2.660000,1.400000
90.151700,0.019032,-0.027328,1.355176,3.220000,-11.480000,-1.680000
90.155766,-0.097600,0.008296,0.761768,-1.120000,-7.560000,-0.700000
90.159832,0.007808,0.119560,0.791536,-1.680000,-9.940000,1.120000
90.163898,-0.002928,-0.001464,1.413248,-2.660000,-11.200000,1.540000
90.167964,-0.011712,-0.029768,0.781776,0.700000,-11.900000,0.980000
90.172030,-0.082472,0.119560,0.860344,0.840000,-0.280000,-0.700000
90.176097,-0.000488,-0.056608,1.545008,0.420000,-14.280000,-1.120000
90.180163,0.005368,0.058072,0.971120,-3.780000,-14.420000,1.120000
90.184229,-0.099064,0.158112,0.566080,-3.360000,-3.500000,2.520000
90.188295,0.014152,0.087840,1.410320,1.820000,-3.640000,-1.260000
90.192361,0.014640,-0.018544,0.946720,-0.140000,-13.440001,-0.980000
90.196427,-0.070272,0.051728,0.568032,-3.640000,-9.240000,2.660000
90.200493,-0.009760,0.016592,1.358592,-2.380000,-8.960000,2.240000
90.204559,0.037576,0.103456,1.116544,-1.400000,-10.360000,0.560000
90.208625,-0.097600,-0.061976,0.579744,0.700000,-10.360000,-0.140000
90.212691,-0.140544,0.050264,1.345416,0.700000,-8.820000,-0.560000
90.216757,0.084912,0.037576,1.260016,-4.340000,-15.540000,0.700000
90.220823,0.018056,0.192760,0.625616,-2.800000,-10.920000,2.380000
90.224889,-0.110776,-0.023424,0.945744,2.240000,0.140000,-1.120000
90.228955,-0.013664,-0.032208,1.262456,0.980000,-12.740000,-1.400000
90.233022,0.090768,0.037576,0.746152,-2.660000,-15.540000,1.820000
90.237088,-0.095160,0.061488,1.152656,-3.360000,-4.900000,2.800000
90.241154,-0.101992,0.084424,1.301008,1.680000,-8.120000,-0.980000
90.245220,0.039528,-0.063440,0.784704,0.140000,-16.520000,-0.280000
90.249286,-0.104432,0.073688,0.925248,-3.360000,-7.280000,1.820000
90.253352,0.031232,0.212768,1.348344,-2.380000,-8.260000,-0.140000
90.257418,0.154696,0.069296,0.767136,-2.240000,-9.520000,-1.260000
90.261484,-0.125416,-0.074176,0.697840,-0.840000,-1.680000,-0.700000
90.265550,-0.168360,-0.013176,1.283928,1.120000,-8.400000,-0.560000
90.269616,0.081984,0.025864,1.023336,-3.640000,-15.680000,2.240000
90.273682,-0.006832,0.084912,0.947208,-2.800000,-9.240000,4.060000
90.277748,-0.120048,0.112240,1.210240,0.700000,-0.560000,-0.140000
90.281814,-0.049776,-0.045872,0.931592,1.960000,-14.000000,-1.540000
90.285880,0.068808,0.035624,0.638304,-3.500000,-9.940000,1.540000
90.289946,0.031720,0.170312,1.362496,-4.760000,-4.620000,0.840000
90.294013,-0.065392,0.139568,1.037488,1.120000,-6.580000,-1.960000
90.298079,-0.049776,-0.175680,0.398696,1.120000,-9.380000,-0.980000
90.302145,-0.019032,-0.049776,1.270264,-3.360000,-10.920000,0.560000
90.306211,-0.005856,0.131760,1.508408,-3.360000,-9.800000,0.280000
90.310277,0.007320,0.146400,0.707112,-2.660000,-2.520000,0.420000
90.314343,-0.081008,-0.001464,0.927688,-1.260000,5.040000,-1.120000
90.318409,-0.077592,-0.017080,1.183400,0.420000,-8.400000,-0.700000
90.322475,0.085400,0.067344,0.776408,-2.240000,-7.840000,2.100000
90.326541,0.045384,0.132736,0.917928,-1.680000,1.540000,1.540000
90.330607,-0.038552,-0.017568,1.362984,1.260000,-2.520000,-1.960000
90.334673,-0.111264,-0.084424,0.810568,0.560000,-3.220000,-0.980000
90.338739,-0.028304,0.058560,0.896944,-3.080000,3.220000,1.120000
90.342805,0.054656,0.137128,1.524024,-5.180000,0.000000,0.420000
90.346871,-0.030744,0.102480,0.785680,0.420000,4.340000,-1.400000
90.350937,-0.063440,0.072712,0.572424,2.100000,9.520000,-2.100000
90.355004,-0.046848,-0.115656,1.150216,-1.120000,-3.080000,-1.680000
90.359070,0.121512,0.040992,1.227808,-5.320000,-6.720000,0.980000
90.363136,-0.072712,0.209840,0.685640,0.280000,9.800000,-0.140000
90.367202,-0.075640,-0.024888,1.182424,3.500000,3.220000,-2.800000
90.371268,-0.069784,-0.219112,1.182424,-2.660000,-7.840000,-0.980000
90.375334,-0.004880,0.146888,0.883280,-5.320000,0.700000,1.680000
90.379400,-0.047824,0.345992,1.099952,-0.420000,5.880000,-0.140000
90.383466,-0.001952,-0.126392,0.976000,0.700000,0.000000,-1.260000
90.387532,-0.022936,-0.017080,0.759328,0.560000,-0.140000,-0.700000
90.391598,-0.009760,0.172752,0.952088,-0.420000,1.820000,-1.120000
90.395664,0.032696,-0.046848,1.211704,-1.960000,-3.500000,-0.280000
90.399730,-0.074664,-0.082960,0.855952,-1.400000,0.840000,1.120000
90.403796,-0.084424,0.226920,1.198040,2.940000,7.560000,-1.960000
90.407862,-0.057584,-0.052216,1.078480,0.980000,-4.060000,-1.820000
90.411929,0.008296,-0.063928,0.918904,-4.900000,-4.480000,1.820000
90.415995,-0.068808,0.198616,1.013088,-4.060000,8.680000,0.840000
90.420061,0.032208,0.183488,1.068232,4.060000,3.500000,-3.500000
90.424127,-0.015128,-0.137128,0.744200,1.400000,-1.400000,-1.260000
90.428193,-0.042944,0.016592,1.051152,-5.180000,0.980000,1.120000
90.432259,-0.022936,0.050264,1.095560,-1.120000,-0.980000,-0.280000
90.436325,-0.020496,-0.005368,0.861808,0.560000,-0.700000,-0.560000
90.440391,-0.032696,0.086864,1.319552,-0.700000,4.900000,-1.400000
90.444457,-0.097600,0.098088,1.325896,-1.960000,-1.260000,-2.520000
90.448523,-0.093696,-0.076128,0.485560,-2.240000,-7.560000,0.280000
90.452589,0.044408,0.090768,0.882304,-2.100000,1.680000,1.540000
90.456655,0.122976,0.179096,1.427888,1.820000,4.060000,-2.240000
90.460721,-0.086376,0.061488,0.813008,1.680000,0.700000,-1.960000
90.464787,-0.087352,-0.128832,0.672464,0.280000,0.840000,0.560000
90.468853,-0.066368,-0.061000,1.258064,-1.400000,-1.260000,0.980000
90.472920,-0.017080,0.101504,1.299056,0.280000,-5.740000,0.840000
90.476986,-0.029768,0.229848,0.805200,0.140000,4.340000,1.260000
90.481052,-0.033672,0.068320,1.118496,0.140000,1.680000,-0.700000
90.485118,-0.043432,-0.181048,0.894016,-2.380000,-7.140000,-1.120000
90.489184,0.026840,0.110776,0.728096,-0.980000,0.280000,-0.560000
90.493250,0.051240,0.206424,1.187792,0.560000,7.560000,-1.120000
90.497316,-0.051240,0.004392,1.249768,-0.280000,-2.940000,-1.680000
90.501382,-0.180072,-0.135176,0.644160,0.980000,-3.500000,-0.140000
90.505448,-0.000976,0.014640,0.976976,-1.120000,-1.680000,0.140000
90.509514,0.021960,0.079056,1.508896,-2.940000,-4.900000,0.140000
90.513580,0.000000,0.159088,0.977464,-1.120000,0.840000,0.560000
90.517646,-0.133712,0.163480,0.712480,2.800000,6.860000,-2.380000
90.521712,0.023912,-0.191296,0.999424,-0.560000,-6.020000,-2.660000
90.525778,0.072224,-0.055144,1.076040,-4.060000,-6.300000,-0.700000
90.529844,-0.044896,0.281576,1.022360,-0.980000,5.740000,-0.840000
90.533910,-0.064416,0.136640,1.253672,2.800000,3.780000,-2.940000
90.537977,-0.103944,-0.301096,0.816912,-0.560000,-6.020000,-0.980000
90.542043,-0.078568,0.104920,0.983808,-3.220000,-2.520000,0.840000
90.546109,0.058560,0.264984,1.196576,-0.840000,0.980000,-0.140000
90.550175,0.036600,-0.006832,0.985760,-0.980000,-3.220000,0.560000
90.554241,-0.059048,0.022448,0.756888,-0.420000,4.620000,-0.560000
90.558307,-0.047824,0.035624,1.023824,3.080000,2.100000,-3.220000
90.562373,0.018544,-0.128344,1.192672,-1.960000,-10.080000,-0.840000
90.566439,-0.045872,0.147864,0.975024,-4.900000,2.100000,0.420000
90.570505,-0.028304,0.252784,1.136064,-0.560000,9.660000,-2.520000
90.574571,-0.141032,-0.094184,0.898408,1.820000,-4.480000,-3.640000
90.578637,0.006344,-0.109800,0.906216,-3.500000,-4.760000,-0.140000
90.582703,0.073688,0.223504,1.117520,-5.740000,3.920000,0.560000
90.586769,-0.053192,0.096624,1.009184,1.680000,-0.560000,-0.560000
90.590835,-0.047336,-0.104920,0.865224,1.960000,0.840000,-1.120000
90.594901,-0.045384,-0.011712,1.121912,-1.400000,4.480000,-0.840000
90.598968,-0.028792,0.125416,1.205848,-1.260000,-6.860000,-1.680000
90.603034,-0.020496,-0.025864,0.955992,-3.360000,-2.520000,0.000000
90.607100,-0.061976,0.153720,1.017480,-0.560000,9.660000,-1.120000
90.611166,-0.008296,0.126392,1.099952,1.540000,0.560000,-3.080000
90.615232,-0.044408,-0.061976,0.791536,-0.700000,-6.580000,-0.560000
90.619298,0.020496,-0.052216,0.836432,-3.640000,2.100000,2.100000
90.623364,-0.010248,0.193248,1.272704,-1.820000,1.680000,0.980000
90.627430,-0.019032,-0.024400,0.959896,1.960000,0.280000,-1.680000
90.631496,-0.067832,-0.075640,0.987224,-0.280000,1.120000,-0.280000
90.635562,-0.081984,0.133224,1.216584,-2.100000,0.140000,-0.140000
90.639628,0.040992,0.051728,0.996496,-0.840000,-5.320000,-0.140000
90.643694,-0.064904,0.052216,0.764208,-0.280000,3.920000,-1.820000
90.647760,0.021472,0.146400,1.219024,1.260000,4.200000,-3.500000
90.651826,0.008784,0.054168,1.066280,-1.960000,-5.600000,-2.520000
90.655892,-0.074176,-0.163480,0.542656,-3.640000,-1.960000,0.560000
90.659958,-0.036600,0.092720,1.240984,-1.260000,4.900000,-0.980000
90.664025,0.028304,0.165920,1.415200,0.700000,1.260000,-2.940000
90.668091,-0.080520,0.000000,0.821792,-1.400000,-2.520000,-0.700000
90.672157,-0.142984,-0.066856,0.854488,-3.080000,0.560000,0.420000
90.676223,0.017080,0.110288,1.285392,-1.540000,-3.080000,-0.420000
90.680289,0.101016,0.093208,0.818864,-1.260000,-0.420000,-1.400000
90.684355,-0.078568,0.118584,0.972584,-0.560000,5.320000,-1.680000
90.688421,-0.084912,-0.040016,1.108248,-0.280000,-1.400000,-1.400000
90.692487,0.056120,-0.106872,0.805688,-3.220000,-11.340000,1.400000
90.696553,-0.082472,0.087840,0.794464,-3.360000,5.320000,1.260000
90.700619,0.029768,0.161040,1.598688,1.960000,4.480000,-1.400000
90.704685,-0.026352,0.044896,1.016016,-0.840000,-2.240000,-1.120000
90.708751,-0.152256,-0.076616,0.437736,-2.380000,-1.260000,1.120000
90.712817,-0.052216,0.067832,1.188768,-0.840000,3.500000,0.280000
90.716883,0.095160,0.115168,1.423008,0.140000,-3.500000,-1.540000
90.720949,0.064416,0.133224,0.780312,-2.660000,-2.240000,-1.260000
90.725015,-0.184464,-0.006344,0.739808,0.140000,3.920000,-2.100000
90.729082,-0.031720,-0.174704,1.197064,-1.120000,-4.060000,-1.960000
90.733148,0.053680,0.073200,1.036512,-3.360000,-6.300000,0.560000
90.737214,0.020984,0.315736,1.047248,-2.660000,9.520000,-0.560000
90.741280,-0.146400,-0.058560,1.178032,0.560000,1.260000,-2.380000
90.745346,-0.070760,-0.162504,0.691008,-0.140000,-7.420000,-0.560000
90.749412,0.070760,0.184952,0.899384,-4.760000,3.080000,1.120000
90.753478,0.043920,0.206424,1.362496,0.700000,4.060000,-2.240000
90.757544,-0.055144,-0.131760,0.907192,0.140000,-3.360000,-2.100000
90.761610,-0.143472,0.001464,0.631472,-0.980000,-1.260000,1.120000
90.765676,0.020496,0.076128,1.084824,-0.980000,3.080000,0.280000
90.769742,0.022936,-0.027328,1.370304,-2.100000,-5.740000,-0.420000
90.773808,-0.026352,0.164456,0.930616,-3.500000,1.680000,-0.280000
90.777874,-0.136640,0.114192,0.761280,0.560000,5.320000,-0.700000
90.781940,-0.051728,-0.178608,0.992104,0.000000,-7.420000,-1.260000
90.786006,0.046848,0.042944,1.177056,-3.080000,-6.440000,1.540000
90.790073,0.115168,0.345992,1.042368,-1.540000,9.100000,-0.420000
90.794139,-0.086376,-0.017568,0.970144,3.080000,0.560000,-4.200000
90.798205,-0.142008,-0.271816,0.775432,0.000000,-5.740000,-1.960000
90.802271,0.017568,0.134688,1.091168,-4.760000,1.120000,0.840000
90.806337,0.098088,0.264984,1.341512,-2.520000,1.540000,-1.120000
90.810403,-0.159088,-0.066368,0.882304,0.000000,-0.280000,-1.820000
90.814469,-0.106872,-0.028304,0.711504,-0.420000,0.420000,0.140000
90.818535,0.071248,0.160064,1.034560,-2.100000,1.260000,0.000000
90.822601,0.100528,-0.033672,1.130696,-2.660000,-4.760000,-0.420000
90.826667,-0.069784,0.069784,0.881816,-1.400000,5.600000,-1.540000
90.830733,-0.096136,0.108824,0.959408,3.080000,4.340000,-2.800000
90.834799,-0.035624,-0.169824,0.930128,-1.680000,-6.020000,-1.960000
90.838865,-0.079544,0.000000,1.128256,-2.940000,-4.200000,0.140000
90.842931,0.089304,0.339648,1.237080,-1.260000,5.880000,-1.120000
90.846997,-0.123464,0.052704,0.869128,-0.700000,-0.280000,-1.260000
90.851063,-0.142984,-0.253760,0.640744,-1.540000,-5.040000,0.280000
90.855130,0.075152,0.111752,1.156560,-3.220000,0.280000,1.960000
90.859196,0.136640,0.267912,1.267824,-1.820000,0.700000,0.000000
90.863262,-0.043432,-0.118584,0.833016,0.140000,-2.940000,-1.540000
90.867328,-0.229848,-0.033184,0.860344,2.240000,2.240000,-1.400000
90.871394,0.087840,0.094184,1.213656,-0.700000,-2.100000,-1.400000
90.875460,0.067832,0.056608,1.117032,-5.320000,-7.700000,-0.140000
90.879526,-0.131760,0.145424,0.872544,-1.120000,6.720000,-2.660000
90.883592,-0.047824,0.065392,0.874984,0.700000,5.180000,-3.220000
90.887658,-0.013664,-0.088816,0.857416,-1.680000,-7.980000,-0.700000
90.891724,-0.050264,-0.041968,1.061888,-3.920000,-0.980000,1.960000
90.895790,0.056120,0.240584,1.202432,-0.560000,5.740000,-0.560000
90.899856,-0.023424,0.031720,1.050664,1.680000,-2.380000,-1.960000
90.903922,-0.188856,-0.213744,0.783240,-1.400000,-1.400000,-0.560000
90.907988,-0.025864,0.090280,1.112152,-1.540000,2.240000,0.000000
90.912054,0.145424,0.285968,1.256600,-1.540000,-2.520000,-0.700000
90.916120,-0.037088,0.002928,0.849608,-2.240000,-0.980000,-1.260000
90.920187,-0.195688,-0.056120,0.718824,0.980000,2.800000,-0.980000
90.924253,0.069296,0.038552,0.991616,-0.280000,-1.960000,-1.120000
90.928319,0.136152,0.005368,1.242448,-5.460000,-7.560000,1.540000
90.932385,-0.144936,0.116632,1.004304,-0.140000,7.700000,-0.140000
90.936451,-0.108824,0.072712,0.926712,3.360000,5.320000,-1.960000
90.940517,-0.007320,-0.119560,0.929152,-0.560000,-6.580000,-0.700000
90.944583,-0.025864,-0.006832,1.178520,-3.500000,-4.480000,1.400000
90.948649,0.027816,0.339648,1.032120,0.980000,7.280000,-1.400000
90.952715,-0.027328,0.048800,0.912560,2.800000,-0.700000,-3.220000
90.956781,-0.059536,-0.214232,0.781288,-1.680000,-6.300000,0.280000
90.960847,-0.007808,0.070272,0.980880,-1.540000,2.940000,0.140000
90.964913,0.110288,0.207400,1.282464,-2.520000,0.980000,-1.540000
90.968979,-0.018056,-0.098576,1.015040,-2.660000,-0.560000,-1.680000
90.973045,-0.238632,0.056120,0.819352,1.680000,6.720000,-1.400000
