Time [s],lsm6dsv16x_acc_x [g],lsm6dsv16x_acc_y [g],lsm6dsv16x_acc_z [g],lsm6dsv16x_gyro_x [dps],lsm6dsv16x_gyro_y [dps],lsm6dsv16x_gyro_z [dps]
8.658475,-0.061488,0.325008,1.010160,0.140000,1.960000,-1.260000
8.662541,0.098576,0.194712,0.752008,-0.420000,-5.040000,0.840000
8.666607,-0.017080,0.508984,1.093120,-0.420000,1.400000,0.840000
8.670673,-0.037576,0.254736,0.991128,-1.400000,1.960000,-2.380000
8.674739,0.141032,0.247904,0.879376,1.540000,-4.620000,0.700000
8.678805,-0.082960,0.492392,1.023824,1.680000,4.200000,0.420000
8.682871,0.011224,0.293288,0.942328,-1.120000,0.000000,-2.240000
8.686937,0.142496,0.267424,0.826184,0.420000,-7.280000,-0.140000
8.691003,-0.082472,0.470920,1.101904,1.260000,2.100000,-1.120000
8.695069,-0.027816,0.221064,0.870592,-0.140000,2.380000,-1.820000
8.699135,0.064416,0.323544,0.880352,0.700000,-1.540000,1.120000
8.703201,-0.061000,0.499712,1.062376,0.700000,1.260000,0.140000
8.707267,0.027328,0.210328,0.825208,-2.240000,-1.680000,-1.400000
8.711333,0.090280,0.348432,0.995032,2.100000,-2.100000,0.560000
8.715399,-0.107360,0.404552,1.083848,2.800000,4.340000,-0.140000
8.719465,0.059536,0.224480,0.755912,-1.820000,-1.960000,-1.120000
8.723531,0.073200,0.434320,0.986248,0.980000,-4.480000,1.400000
8.727597,-0.096624,0.406992,1.148752,1.960000,4.200000,-1.540000
8.731663,0.074176,0.229848,0.667096,0.280000,-1.680000,-0.140000
8.735729,0.044896,0.463600,1.003328,1.120000,0.140000,-0.140000
8.739795,-0.075640,0.337696,1.026264,0.000000,-0.140000,-1.400000
8.743861,0.046360,0.207400,0.789584,0.280000,-2.520000,-1.120000
8.747927,0.033184,0.483120,1.053592,2.380000,1.960000,1.120000
8.751993,-0.116144,0.319640,0.828136,-2.100000,2.240000,-2.100000
8.756059,0.118584,0.295240,0.823744,-0.140000,-7.420000,0.280000
8.760125,-0.029280,0.455792,1.205848,1.820000,2.380000,-0.560000
8.764191,-0.017568,0.245952,0.845704,-0.840000,1.540000,-1.680000
8.768257,0.083448,0.345016,0.766648,-0.280000,-6.720000,0.560000
8.772323,-0.027816,0.453352,1.160952,-0.560000,-0.140000,-0.280000
8.776389,0.011712,0.237168,0.878888,-1.960000,0.000000,-1.260000
8.780455,0.053680,0.382104,0.871080,0.980000,-0.420000,0.560000
8.784521,-0.099552,0.449448,1.055544,-1.540000,2.100000,-0.280000
8.788587,0.063440,0.200080,0.768112,-5.180000,-4.060000,-1.400000
8.792653,0.074176,0.419680,0.961848,0.560000,-3.500000,0.560000
8.796719,-0.077592,0.410408,1.130696,-2.380000,4.480000,-1.680000
8.800785,0.092232,0.191296,0.841312,-2.100000,-2.800000,-0.840000
8.804851,-0.029768,0.408456,0.885232,0.980000,-0.700000,1.260000
8.808917,-0.066368,0.397720,1.179496,-3.500000,4.200000,-0.980000
8.812983,0.088816,0.223504,0.727608,-3.080000,-4.060000,0.280000
8.817049,0.002928,0.420656,1.017968,1.400000,-1.400000,0.560000
8.821115,-0.061488,0.370392,1.102392,-0.420000,3.220000,-2.100000
8.825181,0.117608,0.201544,0.789096,-1.120000,-3.360000,-0.280000
8.829247,0.001464,0.446032,0.873520,0.840000,-1.400000,0.980000
8.833313,-0.037576,0.380640,1.160952,-2.660000,3.220000,-1.960000
8.837379,0.058560,0.244976,0.737368,-2.240000,-1.960000,0.420000
8.841445,-0.010248,0.428952,1.017480,0.420000,1.680000,0.700000
8.845511,-0.033184,0.300120,1.088240,-2.240000,0.420000,-2.520000
8.849577,0.102480,0.246440,0.804224,-1.120000,-5.740000,-0.280000
8.853643,-0.070272,0.421144,1.005768,1.260000,1.260000,0.000000
8.857709,0.006344,0.356728,1.052128,-1.540000,2.380000,-1.820000
8.861775,0.089792,0.262544,0.741272,-1.120000,-4.200000,0.980000
8.865841,-0.060512,0.478728,1.084336,0.700000,0.840000,-0.840000
8.869907,0.018056,0.248392,1.045784,0.000000,0.840000,-2.100000
8.873973,0.065880,0.279136,0.708576,-1.120000,-2.240000,1.960000
8.878039,-0.074664,0.486536,1.078968,1.820000,2.240000,-1.260000
8.882105,0.038064,0.285968,0.988200,-0.560000,-1.960000,-1.540000
8.886171,0.056120,0.297680,0.753960,-0.840000,-3.360000,1.120000
8.890237,-0.095160,0.466040,1.110200,2.940000,3.780000,-0.560000
8.894303,0.054656,0.215696,0.992104,-0.840000,-0.700000,-1.820000
8.898369,0.073200,0.328424,0.734928,1.260000,-5.460000,1.400000
8.902435,-0.088328,0.482144,1.081408,1.960000,2.520000,-1.400000
8.906501,0.078568,0.205448,0.909144,-2.380000,-1.400000,-0.560000
8.910567,-0.013176,0.402600,0.816912,1.960000,-1.120000,0.700000
8.914633,-0.025864,0.433344,1.130696,1.260000,2.240000,-1.260000
8.918699,0.089792,0.244488,0.777384,-4.200000,-2.660000,-0.980000
8.922765,0.008296,0.429440,0.905240,0.980000,-2.520000,0.420000
8.926831,-0.064904,0.340136,1.166808,1.540000,3.640000,-1.680000
8.930897,0.113704,0.264008,0.715896,-3.920000,-1.960000,0.280000
8.934963,-0.049288,0.444080,0.891576,0.560000,-0.840000,0.140000
8.939029,-0.067832,0.381616,1.179984,-0.420000,2.520000,-1.540000
8.943095,0.125904,0.229360,0.767624,-2.940000,-3.500000,0.140000
8.947161,-0.002440,0.429928,0.858392,1.540000,-0.560000,-0.140000
8.951227,-0.076128,0.307440,1.279048,1.960000,0.840000,-3.080000
8.955293,0.094672,0.271328,0.712968,-2.380000,-2.800000,0.280000
8.959359,-0.028304,0.456768,0.910120,0.980000,-0.140000,0.840000
8.963425,-0.047824,0.325496,1.182424,0.560000,1.820000,-1.400000
8.967491,0.103456,0.267912,0.713944,-1.960000,-2.940000,0.280000
8.971557,-0.046360,0.468480,1.013088,2.100000,3.080000,-0.140000
8.975623,-0.036600,0.272792,1.150704,0.840000,1.400000,-1.120000
8.979689,0.097600,0.227408,0.761280,0.280000,-3.920000,0.980000
8.983755,-0.028792,0.489464,0.960872,2.380000,1.680000,-0.280000
8.987821,-0.033184,0.306464,1.103368,-0.280000,1.400000,-2.520000
8.991887,0.117608,0.252784,0.788120,1.120000,-3.920000,1.260000
8.995953,-0.095648,0.464576,1.071160,3.500000,5.320000,0.000000
9.000019,0.045872,0.256688,0.903288,-1.400000,-1.400000,-1.400000
9.004085,0.129808,0.323544,0.837408,0.280000,-5.180000,0.140000
9.008151,-0.089792,0.473848,1.186816,4.200000,4.900000,-1.120000
9.012217,-0.014640,0.249856,0.860344,0.560000,1.680000,-0.980000
9.016283,0.057096,0.353800,0.691496,0.700000,-3.360000,1.120000
9.020349,-0.063440,0.482632,1.094584,-0.280000,-0.420000,-1.540000
9.024415,0.040504,0.222040,0.906216,-2.520000,-2.660000,-2.100000
9.028481,0.020984,0.415776,0.898896,3.220000,0.280000,0.980000
9.032547,-0.108336,0.385032,1.042368,2.100000,4.480000,-0.980000
9.036613,0.082960,0.260104,0.687104,-4.200000,-5.180000,-0.420000
9.040679,0.077104,0.437248,1.005768,0.420000,-4.760000,-0.280000
9.044745,-0.076128,0.351848,1.142408,0.420000,3.360000,-1.820000
9.048811,0.026840,0.260104,0.662704,-2.240000,-0.840000,-0.700000
9.052877,0.050752,0.447008,0.930616,0.000000,-2.100000,0.560000
9.056943,-0.078080,0.338672,1.111664,-3.080000,-0.560000,-1.820000
9.061009,0.093208,0.260592,0.769576,-3.080000,-2.660000,0.140000
9.065075,0.023424,0.415776,1.002352,-0.420000,2.240000,0.420000
9.069141,-0.062952,0.308416,1.218536,-0.840000,1.540000,-2.380000
9.073207,0.100528,0.287432,0.740784,0.980000,-6.860000,0.140000
9.077273,-0.017080,0.355752,0.875960,0.000000,0.000000,-0.420000
9.081339,-0.081984,0.398696,1.172176,-1.260000,-0.140000,-1.820000
9.085405,0.106384,0.294752,0.698328,-1.120000,-4.620000,0.560000
9.089471,0.014640,0.482144,0.965264,-0.560000,3.220000,0.420000
9.093537,-0.075640,0.313296,1.070184,-2.380000,2.100000,-2.100000
9.097603,0.100528,0.258152,0.754448,-2.660000,-3.640000,0.840000
9.101669,-0.011712,0.410896,1.034560,-0.980000,3.080000,0.140000
9.105735,-0.086376,0.367952,1.193648,-0.700000,1.120000,-2.380000
9.109801,0.128344,0.196176,0.783728,1.820000,-6.020000,0.000000
9.113867,-0.053192,0.409432,0.848144,1.680000,0.280000,0.280000
9.117933,-0.037576,0.382592,1.179496,0.840000,1.680000,-2.660000
9.121999,0.112240,0.285480,0.676368,-0.980000,-4.900000,0.140000
9.126065,-0.001464,0.471896,1.052616,1.120000,0.420000,-0.280000
9.130131,-0.008784,0.228872,1.029192,-1.820000,0.840000,-1.680000
9.134197,0.046848,0.321104,0.774456,-1.960000,-1.400000,0.000000
9.138264,-0.051728,0.447984,1.181936,2.520000,2.100000,0.280000
9.142330,0.026840,0.220576,0.874984,-3.220000,0.700000,-1.120000
9.146396,0.070272,0.325496,0.854488,0.840000,-5.180000,0.280000
9.150462,-0.084424,0.448960,1.125816,4.620000,2.100000,-1.260000
9.154528,0.047824,0.271328,0.896944,-1.960000,0.280000,-1.540000
9.158594,0.094184,0.355264,0.770552,0.980000,-4.760000,0.980000
9.162660,-0.091256,0.447496,1.131184,2.240000,2.660000,-0.980000
9.166726,0.040504,0.220576,0.823256,-1.540000,0.560000,-1.680000
9.170792,0.037576,0.436760,0.802272,-0.280000,-2.100000,0.840000
9.174858,-0.043920,0.433832,1.219024,0.420000,1.960000,-1.400000
9.178924,0.047824,0.192760,0.782264,-2.240000,-2.100000,-0.420000
9.182990,0.000976,0.395768,0.897432,2.380000,0.140000,0.700000
9.187056,-0.081984,0.435296,1.066768,-0.140000,2.380000,-1.120000
9.191122,0.123464,0.211304,0.907680,-2.520000,-3.920000,-0.980000
9.195188,0.023912,0.430416,0.857904,4.060000,-0.840000,0.140000
9.199254,-0.127856,0.380640,1.100440,-0.840000,4.340000,-2.240000
9.203320,0.140056,0.245952,0.774944,-3.360000,-4.480000,0.280000
9.207386,-0.004392,0.412848,1.016992,2.100000,-1.260000,-0.140000
9.211452,-0.058072,0.350384,1.083848,1.540000,3.640000,-1.960000
9.215518,0.081008,0.218624,0.726144,-3.080000,-2.100000,0.000000
9.219584,-0.025864,0.458720,1.044320,1.120000,-1.960000,0.280000
9.223650,-0.037576,0.374296,1.067256,-0.560000,1.540000,-1.400000
9.227716,0.123952,0.224968,0.715896,-1.400000,-3.500000,0.140000
9.231782,-0.082472,0.477264,1.022360,1.120000,1.960000,-0.560000
9.235848,0.011712,0.296704,1.126304,-0.140000,0.280000,-1.540000
9.239914,0.079544,0.227408,0.772504,0.560000,-2.380000,1.120000
9.243980,-0.058072,0.497272,1.003816,1.260000,1.960000,-0.280000
9.248046,0.021960,0.309880,1.010648,-2.240000,0.420000,-1.820000
9.252112,0.091744,0.281088,0.770064,-0.280000,-4.900000,0.560000
9.256178,-0.107360,0.453352,1.162904,4.060000,5.040000,-0.560000
9.260244,0.069296,0.293776,0.875472,-1.120000,1.120000,-0.700000
9.264310,0.048312,0.291336,0.814960,0.000000,-4.620000,0.280000
9.268376,-0.068808,0.473360,1.103368,4.480000,2.100000,-0.980000
9.272442,0.015616,0.262056,0.893528,-1.400000,1.400000,-1.260000
9.276508,0.069784,0.377224,0.731512,-0.560000,-3.360000,0.700000
9.280574,-0.070272,0.442616,1.230248,3.080000,1.820000,-1.960000
9.284640,0.033672,0.175680,0.868152,0.000000,-0.700000,-0.980000
9.288706,0.049776,0.350384,0.749568,1.540000,-1.400000,1.680000
9.292772,-0.095160,0.544120,1.085800,1.120000,1.400000,-1.400000
9.296838,0.089792,0.201056,0.901824,-2.100000,-4.480000,-1.400000
9.300904,0.069784,0.387960,0.937448,4.060000,-0.700000,0.000000
9.304970,-0.096136,0.427000,1.092144,1.820000,6.580000,-0.980000
9.309036,0.062952,0.212280,0.724680,-2.800000,-4.060000,-0.560000
9.313102,0.033184,0.441152,0.975024,1.820000,-3.780000,0.140000
9.317168,-0.097112,0.393816,1.173640,1.540000,3.640000,-1.820000
9.321234,0.082472,0.208864,0.678320,-1.680000,-1.960000,0.420000
9.325300,-0.009272,0.437736,1.057496,2.660000,-1.680000,0.000000
9.329366,-0.074176,0.369416,1.070184,1.120000,1.680000,-1.260000
9.333432,0.082960,0.231800,0.648552,-1.820000,-2.660000,0.700000
9.337498,0.021472,0.493856,1.039928,0.980000,-0.280000,-0.140000
9.341564,-0.024400,0.307928,1.125328,-0.140000,0.000000,-1.960000
9.345630,0.058560,0.224480,0.777384,1.260000,-1.540000,0.280000
9.349696,-0.010248,0.505568,0.969168,1.540000,2.380000,0.700000
9.353762,-0.018056,0.289384,1.009184,-1.680000,0.700000,-2.520000
9.357828,0.097112,0.270840,0.814472,0.280000,-6.160000,0.420000
9.361894,-0.048312,0.463600,1.116056,2.940000,4.060000,-0.560000
9.365960,-0.013664,0.297192,0.920856,-0.560000,2.660000,-2.100000
9.370026,0.051240,0.248392,0.822768,1.820000,-6.160000,0.560000
9.374092,-0.039040,0.481656,1.076040,2.660000,0.840000,-0.140000
9.378158,-0.002440,0.286456,0.904264,-1.260000,2.100000,-1.960000
9.382224,0.099552,0.345992,0.807640,0.840000,-3.080000,1.400000
9.386290,-0.116144,0.439688,1.213656,4.760000,3.080000,-0.420000
9.390356,0.085888,0.234728,0.770064,-1.540000,0.000000,-0.840000
9.394422,0.061488,0.398208,0.869128,0.700000,-4.340000,0.280000
9.398488,-0.074176,0.440664,1.130696,3.640000,2.100000,-1.540000
9.402554,0.075640,0.238144,0.858392,-0.700000,0.980000,-1.400000
9.406620,0.042456,0.406016,0.785680,2.520000,-1.680000,0.980000
9.410686,-0.100040,0.413336,1.121424,2.240000,2.940000,-1.960000
9.414752,0.055632,0.212768,0.845704,0.000000,-3.220000,-0.840000
9.418818,0.037576,0.439200,0.851072,2.800000,0.000000,0.840000
9.422884,-0.105896,0.423096,1.136552,1.820000,3.080000,-1.680000
9.426950,0.051728,0.202520,0.770064,-1.120000,-3.500000,-0.700000
9.431016,0.056608,0.449936,1.016016,4.900000,-1.400000,0.420000
9.435082,-0.062952,0.389424,1.073112,0.980000,3.500000,-1.820000
9.439148,0.085400,0.231800,0.771528,-0.840000,-5.180000,-0.700000
9.443214,-0.016104,0.436760,1.029680,5.740000,-0.420000,0.280000
9.447280,-0.060512,0.355264,1.054080,0.980000,4.480000,-1.120000
9.451346,0.087840,0.255224,0.744688,-0.560000,-3.220000,-0.140000
9.455412,0.015616,0.475312,1.039928,3.360000,-1.260000,0.980000
9.459478,-0.071248,0.314272,1.096048,1.260000,3.220000,-1.540000
9.463544,0.077104,0.240584,0.685152,1.820000,-1.120000,0.140000
9.467610,-0.004392,0.476776,0.974048,3.220000,0.420000,0.560000
9.471676,-0.056120,0.290848,1.023336,-0.420000,0.700000,-1.960000
9.475742,0.124440,0.280600,0.833504,3.080000,-4.060000,0.280000
9.479808,-0.079056,0.499224,1.056032,4.480000,3.920000,0.420000
9.483874,-0.014640,0.303536,0.874496,0.420000,1.120000,-2.100000
9.487940,0.107360,0.277184,0.813008,2.100000,-7.420000,-0.140000
9.492006,-0.010736,0.468968,1.197064,4.480000,2.100000,0.000000
9.496072,-0.076128,0.267424,0.822768,0.140000,2.520000,-1.680000
9.500138,0.146400,0.354776,0.818376,1.960000,-4.760000,0.280000
9.504204,-0.081984,0.467504,1.166320,3.640000,0.840000,0.140000
9.508270,0.000000,0.249368,0.853024,1.960000,1.680000,-1.680000
9.512336,0.088328,0.344040,0.761280,3.080000,-2.940000,0.840000
9.516402,-0.059048,0.525576,1.138504,1.400000,1.260000,-1.260000
9.520468,0.022448,0.211304,0.874496,-0.280000,-3.360000,-1.400000
9.524534,0.080032,0.390888,0.970144,4.480000,-0.280000,0.280000
9.528600,-0.098576,0.418704,1.068232,2.660000,5.880000,-0.420000
9.532666,0.028792,0.238632,0.747616,-0.560000,-3.920000,-1.260000
9.536732,0.096624,0.391376,1.007720,3.500000,-5.600000,0.000000
9.540798,-0.093208,0.420656,1.126792,2.940000,5.040000,-1.400000
9.544864,0.044408,0.241560,0.785192,1.820000,-0.840000,-0.560000
9.548930,0.079544,0.430904,0.869128,3.920000,-2.800000,0.280000
9.552996,-0.101992,0.377224,1.103368,1.400000,1.960000,-2.520000
9.557062,0.057096,0.240584,0.769088,2.380000,-2.380000,-0.700000
9.561128,0.037576,0.474336,0.999424,3.500000,0.700000,0.140000
9.565194,-0.097112,0.398208,0.907680,0.280000,2.240000,-1.400000
9.569260,0.060024,0.251808,0.768600,0.560000,-5.320000,-0.980000
9.573326,0.059536,0.432368,1.131184,4.060000,-0.420000,0.280000
9.577392,-0.143472,0.359168,0.961848,1.120000,4.900000,-1.400000
9.581458,0.124440,0.290848,0.710040,0.840000,-6.300000,-0.420000
9.585524,0.052216,0.494832,1.024800,1.960000,-3.640000,0.280000
9.589590,-0.085400,0.345016,1.075064,1.820000,3.780000,-3.080000
9.593656,0.109800,0.254736,0.691496,0.980000,-2.800000,-0.840000
9.597722,0.002440,0.491416,1.093120,1.960000,-0.840000,0.140000
9.601788,-0.104432,0.329888,1.003816,0.560000,1.960000,-1.540000
9.605854,0.097600,0.195688,0.823744,-0.700000,-2.240000,-0.560000
9.609920,0.021472,0.503616,1.030656,0.980000,-0.140000,0.140000
9.613986,-0.062464,0.305976,1.094096,0.560000,2.940000,-3.640000
9.618052,0.091744,0.261080,0.854488,3.920000,-4.760000,-0.560000
9.622118,0.007808,0.431880,0.959408,3.780000,0.280000,0.000000
9.626184,-0.083448,0.333792,1.010648,1.540000,2.520000,-2.240000
9.630250,0.153720,0.295728,0.864736,2.800000,-5.740000,-0.840000
9.634316,-0.043920,0.512400,0.909632,1.680000,2.520000,0.280000
9.638382,-0.094184,0.322568,0.970144,0.700000,4.620000,-2.660000
9.642448,0.102480,0.271816,0.857416,1.680000,-5.040000,0.560000
9.646514,-0.018544,0.463112,1.164368,4.480000,1.820000,-0.140000
9.650580,-0.081008,0.291824,0.811056,1.540000,3.500000,-1.960000
9.654646,0.167384,0.297192,0.943304,2.660000,-4.200000,0.000000
9.658712,-0.081496,0.485560,0.996496,5.180000,2.520000,0.980000
9.662778,-0.073200,0.313296,0.847656,2.240000,3.780000,-2.240000
9.666844,0.160552,0.330864,0.859856,2.940000,-5.040000,0.840000
9.670910,-0.076128,0.483120,1.122888,3.780000,2.520000,-1.540000
9.674976,-0.018056,0.228872,0.866688,4.060000,0.140000,-1.540000
9.679042,0.112728,0.343552,0.812520,3.080000,-1.120000,1.540000
9.683108,-0.096136,0.531432,1.039928,2.940000,3.080000,-0.140000
9.687174,0.032208,0.231312,0.752008,0.840000,-2.660000,-2.240000
9.691240,0.071248,0.443592,1.043832,3.640000,-1.680000,0.280000
9.695306,-0.130296,0.380152,1.035536,3.780000,4.620000,-1.120000
9.699372,0.059048,0.249368,0.778360,1.400000,-3.640000,-0.280000
9.703438,0.065392,0.495808,0.915000,1.960000,-4.900000,0.980000
9.707504,-0.060024,0.360144,1.074088,1.260000,1.960000,-3.080000
9.711570,0.120048,0.264984,0.911096,2.240000,-2.240000,-1.120000
9.715636,-0.015128,0.466040,0.983320,5.460000,2.100000,1.400000
9.719702,-0.085888,0.349408,0.819352,0.280000,3.500000,-2.380000
9.723768,0.149328,0.271328,0.866200,-0.420000,-7.700000,-0.560000
9.727834,-0.022936,0.516792,1.118984,3.080000,1.680000,-0.560000
9.731900,-0.113216,0.284992,0.954528,1.260000,6.160000,-1.960000
9.735966,0.149328,0.298168,0.766648,1.400000,-3.640000,1.120000
9.740032,-0.099064,0.486536,1.008696,2.240000,1.260000,-0.420000
9.744098,-0.047336,0.305000,0.907192,1.120000,0.420000,-2.240000
9.748164,0.166896,0.327936,0.863760,1.400000,-3.640000,0.840000
9.752230,-0.114192,0.484584,1.041392,3.500000,3.360000,-0.980000
9.756296,-0.025376,0.280112,0.888648,3.360000,-1.540000,-2.380000
9.760362,0.154696,0.340136,0.805688,0.700000,-4.480000,0.840000
9.764428,-0.087840,0.525088,1.056520,0.700000,4.060000,-0.560000
9.768494,-0.005368,0.232288,0.875960,0.980000,-0.980000,-1.680000
9.772560,0.082960,0.399184,0.910120,2.800000,-2.100000,0.980000
9.776626,-0.097112,0.465064,1.069696,1.680000,3.920000,-1.400000
9.780692,0.059048,0.196664,0.820816,0.000000,-4.200000,-1.540000
9.784758,0.079544,0.443592,0.947696,3.640000,-3.500000,1.120000
9.788824,-0.120536,0.428952,1.056032,1.960000,4.620000,-1.680000
9.792890,0.084424,0.222040,0.826672,1.400000,-1.680000,-0.420000
9.796956,0.025864,0.464088,0.989664,3.640000,-1.540000,1.400000
9.801022,-0.106384,0.433832,0.973072,0.840000,2.940000,-1.820000
9.805088,0.138592,0.200080,0.840824,0.140000,-4.900000,-0.840000
9.809154,0.001952,0.497760,1.103368,5.320000,0.000000,0.560000
9.813220,-0.135664,0.329888,0.963800,2.660000,6.580000,-1.820000
9.817286,0.115656,0.293288,0.708088,0.420000,-4.760000,0.560000
9.821352,0.004880,0.472872,1.139480,2.520000,-0.980000,0.840000
9.825418,-0.061000,0.342576,0.978928,2.660000,3.500000,-2.100000
9.829484,0.097600,0.294752,0.711504,2.940000,-0.840000,0.560000
9.833550,-0.039040,0.477752,1.097024,3.220000,1.680000,-0.280000
9.837616,-0.017568,0.276208,0.954040,1.960000,-1.960000,-2.100000
9.841682,0.089304,0.327936,0.837408,4.340000,-2.660000,0.700000
9.845748,-0.057096,0.487512,1.081896,4.060000,4.060000,-0.420000
9.849814,-0.021960,0.272304,0.805200,1.960000,-1.680000,-2.100000
9.853880,0.132248,0.381616,0.975512,4.480000,-4.900000,0.420000
9.857946,-0.087352,0.433832,1.095072,4.620000,4.200000,-0.560000
9.862012,0.000976,0.225456,0.698816,1.680000,-1.260000,-1.120000
9.866078,0.089792,0.523624,0.918416,2.800000,-3.360000,1.120000
9.870144,-0.050752,0.432368,1.024800,1.260000,2.940000,-1.540000
9.874210,0.013176,0.247904,0.775432,2.520000,-0.700000,-1.400000
9.878276,0.059048,0.451888,1.079456,4.760000,0.560000,0.840000
9.882342,-0.157624,0.356728,0.913048,0.980000,4.060000,-1.120000
9.886408,0.136640,0.349408,0.736880,1.260000,-5.460000,-0.140000
9.890474,0.032208,0.452376,1.166808,2.380000,-0.560000,0.140000
9.894540,-0.103944,0.294752,0.991128,3.920000,3.780000,-2.940000
9.898606,0.128344,0.292312,0.813496,5.880000,-2.520000,0.560000
9.902672,-0.057584,0.523136,0.967704,1.960000,0.980000,0.000000
9.906738,0.003416,0.270840,0.891576,1.260000,-2.380000,-2.520000
9.910804,0.118096,0.348432,0.910608,3.080000,-2.380000,0.000000
9.914870,-0.094184,0.531432,1.145336,4.900000,7.420000,-0.140000
9.918936,-0.020008,0.221552,0.659776,1.260000,0.140000,-1.400000
9.923002,0.102480,0.455792,1.006256,1.120000,-5.180000,-0.420000
9.927068,-0.058072,0.431880,1.088240,2.660000,1.820000,-1.680000
9.931134,-0.008784,0.211304,0.730048,1.400000,0.280000,-0.980000
9.935200,0.069296,0.476288,1.013088,4.760000,-0.840000,0.980000
9.939266,-0.125416,0.380152,0.913536,0.420000,1.260000,-1.400000
9.943332,0.085400,0.296704,0.805688,2.520000,-6.160000,-0.840000
9.947398,0.020008,0.533872,1.001376,3.220000,1.960000,0.140000
9.951464,-0.062952,0.348920,0.879864,-0.700000,2.380000,-2.380000
9.955530,0.076616,0.307440,0.753472,0.980000,-4.200000,0.560000
9.959596,-0.030744,0.499712,1.267336,2.520000,2.520000,0.420000
9.963662,-0.036600,0.239608,0.785680,-0.140000,1.400000,-1.260000
9.967728,0.107848,0.365024,0.880352,2.380000,-4.480000,-0.560000
9.971794,-0.063440,0.487512,1.228784,5.600000,1.260000,-0.560000
9.975860,0.006344,0.248392,0.737856,0.000000,1.820000,-1.120000
9.979926,0.098576,0.396744,0.903288,3.080000,-4.760000,0.560000
9.983992,-0.082472,0.433344,1.179008,4.620000,0.840000,-1.540000
9.988058,0.062464,0.270840,0.722728,1.540000,-0.980000,-1.120000
9.992124,0.037088,0.483608,0.918904,2.940000,0.000000,0.280000
9.996190,-0.051728,0.398208,1.122888,2.520000,2.660000,-0.840000
10.000256,0.046848,0.244000,0.658800,0.840000,-2.520000,-0.420000
10.004322,-0.035624,0.516792,1.083360,3.920000,2.240000,0.000000
10.008388,-0.021472,0.362584,0.950624,0.420000,2.380000,-1.260000
10.012454,0.069296,0.285968,0.803248,0.700000,-3.780000,-0.140000
10.016520,-0.052216,0.467504,1.062864,7.280000,0.980000,0.000000
10.020586,-0.031720,0.314760,0.927688,0.840000,2.240000,-1.820000
10.024652,0.102968,0.376248,0.728096,0.700000,-5.320000,0.980000
10.028718,-0.062952,0.490440,1.218048,4.760000,2.240000,-1.400000
10.032784,0.058560,0.253760,0.823256,1.400000,0.000000,-0.840000
10.036850,0.015128,0.402600,0.708576,2.100000,-1.260000,1.400000
10.040916,-0.003416,0.491904,1.184376,3.220000,1.680000,-1.960000
10.044982,0.036600,0.223504,0.791048,0.000000,-2.660000,-0.980000
10.049048,-0.010248,0.481168,0.929152,5.460000,1.680000,0.840000
10.053114,-0.117120,0.422120,1.009184,1.820000,3.920000,-0.560000
10.057180,0.149328,0.294264,0.776408,-2.380000,-7.700000,-0.980000
10.061246,-0.027328,0.520208,1.016016,3.920000,-1.820000,-1.120000
10.065312,-0.039040,0.312808,1.118496,3.360000,4.620000,-2.380000
10.069378,0.084424,0.276208,0.653432,0.700000,-1.120000,1.820000
10.073444,-0.073200,0.543144,0.978928,2.240000,1.260000,0.140000
10.077510,0.013176,0.334768,0.996496,-0.420000,-1.400000,-1.400000
10.081576,0.051728,0.329400,0.735416,-0.840000,-0.980000,0.420000
10.085642,-0.103456,0.496296,1.150704,3.920000,5.180000,-0.140000
10.089708,0.070272,0.261080,0.886208,-0.700000,-2.240000,-2.240000
10.093774,0.082472,0.327936,0.857904,3.360000,-7.280000,0.000000
10.097840,-0.113704,0.496296,1.104832,6.020000,2.380000,-1.540000
10.101906,0.067832,0.259128,0.824232,-0.140000,-0.980000,-1.400000
10.105972,0.071248,0.426024,0.797392,2.240000,-3.920000,0.560000
10.110038,-0.090768,0.494832,1.264896,4.340000,2.520000,-1.260000
10.114104,0.025376,0.205936,0.624152,-1.960000,1.820000,0.420000
10.118170,-0.005368,0.531920,0.973560,0.980000,0.000000,1.260000
10.122236,0.010736,0.377712,1.065792,0.000000,-1.120000,-1.960000
10.126302,0.088328,0.261080,0.816424,0.560000,-4.620000,-1.400000
10.130368,-0.046360,0.471896,1.027728,6.860000,2.940000,-0.280000
10.134434,-0.055632,0.347456,0.980392,2.380000,2.660000,-2.100000
10.138500,0.117120,0.385520,0.671488,1.120000,-7.840000,0.420000
10.142566,-0.044408,0.497272,1.028216,2.940000,0.280000,-1.540000
10.146632,0.024400,0.326960,1.010160,1.680000,2.520000,-2.240000
10.150698,-0.019520,0.339648,0.681248,0.420000,-0.280000,1.260000
10.154764,-0.029768,0.541192,1.097512,1.680000,3.500000,-0.280000
10.158830,0.054656,0.213744,0.811544,-3.920000,-3.780000,-1.260000
10.162896,0.029768,0.450424,0.890600,0.280000,-2.100000,-0.420000
10.166962,-0.040016,0.414312,1.235616,3.500000,3.500000,-1.260000
10.171028,0.047336,0.224480,0.785192,-0.420000,-1.540000,-1.120000
10.175094,0.005368,0.481168,0.835944,3.360000,-3.640000,0.000000
10.179160,-0.050264,0.428464,1.084824,0.140000,0.700000,-2.660000
10.183226,0.097600,0.291336,0.813008,-1.960000,-2.520000,-0.140000
10.187292,-0.041480,0.507032,0.983320,4.340000,3.360000,-0.420000
10.191358,-0.024400,0.338672,1.006256,0.700000,3.080000,-1.400000
10.195424,0.034648,0.363560,0.553880,-3.780000,-5.040000,0.560000
10.199490,-0.023424,0.525088,1.108248,1.680000,0.840000,-1.120000
10.203556,0.040504,0.245464,1.098976,-0.980000,0.420000,-1.960000
10.207622,0.025864,0.386496,0.712968,1.820000,-1.540000,-0.280000
10.211688,-0.123952,0.489952,0.955016,3.080000,2.100000,-1.120000
10.215754,0.092232,0.276208,0.941840,-3.640000,-5.600000,-1.680000
10.219820,0.074176,0.409920,0.886208,-0.280000,-4.200000,0.280000
10.223886,-0.107848,0.493368,1.174128,3.500000,6.720000,-0.980000
10.227952,0.075152,0.197152,0.746640,-3.220000,-0.560000,0.420000
10.232018,0.008784,0.498736,0.841800,-0.700000,-2.380000,0.420000
10.236084,-0.055144,0.425048,1.142896,0.420000,0.980000,-2.240000
10.240150,0.105408,0.229360,0.814472,-1.680000,-2.240000,-0.140000
10.244216,-0.064904,0.511912,0.876448,1.820000,1.960000,0.140000
10.248282,-0.039040,0.386984,1.022848,-0.420000,1.400000,-1.960000
10.252348,0.097600,0.313296,0.728096,-2.800000,-6.300000,0.700000
10.256414,-0.099064,0.522648,1.065304,2.660000,2.240000,-0.420000
10.260480,-0.012200,0.311344,0.994056,0.840000,1.960000,-1.820000
10.264546,0.094184,0.341600,0.638792,-2.940000,-6.440000,1.120000
10.268612,-0.061488,0.558272,1.098000,0.560000,0.700000,-1.400000
10.272678,0.065880,0.230824,1.035048,-1.540000,-1.680000,-1.820000
10.276744,0.052704,0.355752,0.781288,0.700000,-0.560000,0.560000
10.280810,-0.121512,0.490928,1.035536,2.380000,3.920000,-1.400000
10.284876,0.058560,0.283528,0.847168,-4.200000,-4.060000,-0.420000
10.288942,0.074664,0.426024,0.911096,-0.560000,-3.080000,0.700000
10.293008,-0.074176,0.432856,1.205848,3.080000,5.600000,-2.100000
10.297074,0.092232,0.235216,0.754448,-1.540000,-0.980000,0.140000
10.301140,-0.039528,0.504104,0.826184,-0.420000,-1.680000,0.700000
10.305206,-0.044408,0.395280,1.096536,-1.680000,0.980000,-2.380000
10.309272,0.132736,0.261568,0.830088,-1.540000,-4.060000,0.700000
10.313338,-0.084424,0.510936,0.995520,3.500000,5.180000,0.000000
10.317404,-0.024400,0.352824,0.952088,0.000000,2.800000,-1.540000
10.321470,0.088328,0.384056,0.656848,-3.920000,-6.440000,0.980000
10.325536,-0.051728,0.514840,1.079944,0.000000,0.700000,-1.540000
10.329602,0.044408,0.246440,1.039928,0.000000,0.700000,-2.240000
10.333668,0.013664,0.366000,0.738832,0.700000,-1.260000,0.700000
10.337734,-0.138104,0.508496,1.007720,1.120000,4.060000,-0.700000
10.341800,0.114192,0.275232,0.878400,-4.480000,-6.860000,-0.840000
10.345866,0.049776,0.427000,0.906216,-0.700000,-3.080000,-0.420000
10.349932,-0.062464,0.428952,1.218048,2.660000,4.480000,-2.100000
10.353998,0.076128,0.243024,0.711504,-1.400000,-1.120000,0.000000
10.358064,-0.072712,0.510448,0.835456,0.000000,-1.120000,0.560000
10.362130,0.024400,0.384056,1.045296,-2.800000,-0.700000,-2.800000
10.366196,0.121512,0.314760,0.816912,-2.940000,-4.760000,-0.140000
10.370262,-0.126880,0.528992,1.037976,2.800000,5.320000,-0.420000
10.374328,0.003416,0.257664,0.871568,-2.100000,0.980000,-1.120000
10.378394,0.093208,0.426512,0.749568,-4.060000,-6.160000,0.140000
10.382460,-0.094184,0.478728,1.134600,0.280000,1.120000,-2.240000
10.386526,0.063440,0.233752,0.920856,-1.120000,0.420000,-1.820000
10.390592,0.009272,0.441640,0.730536,-1.540000,-1.400000,2.100000
10.394658,-0.128344,0.513864,1.029192,-0.700000,2.800000,-1.820000
10.398724,0.154208,0.229848,0.913048,-4.340000,-7.420000,-1.400000
10.402790,-0.012688,0.464088,0.925248,-0.140000,-0.420000,0.420000
10.406856,-0.117608,0.417728,1.009672,-0.280000,4.060000,-1.820000
10.410922,0.155672,0.255224,0.834480,-4.060000,-6.580000,-0.420000
10.414988,-0.028792,0.522648,0.985272,-0.280000,-1.960000,0.140000
10.419054,-0.071248,0.380640,1.013576,-0.840000,2.520000,-2.660000
10.423120,0.153232,0.264496,0.731024,-3.640000,-5.880000,0.280000
10.427186,-0.089792,0.526064,0.986248,-0.980000,1.680000,-0.560000
10.431252,-0.022448,0.308416,1.088728,-0.840000,0.420000,-2.240000
10.435318,0.101504,0.305000,0.818376,-2.940000,-3.360000,1.260000
10.439384,-0.100040,0.527528,0.953552,-0.840000,3.080000,-0.420000
10.443450,0.031232,0.276208,0.943792,-3.500000,-2.660000,-2.240000
10.447516,0.119072,0.378200,0.915488,-1.260000,-4.060000,0.840000
10.451582,-0.146400,0.466528,1.034072,2.100000,6.160000,-0.840000
10.455648,0.045872,0.255712,0.839360,-2.520000,-1.120000,-1.540000
10.459714,0.098576,0.408944,0.900360,-1.680000,-5.880000,1.400000
10.463780,-0.118096,0.480680,1.098000,0.840000,4.200000,-1.820000
10.467846,0.096136,0.264984,0.825696,-1.400000,-0.420000,-0.140000
10.471912,0.002928,0.473360,0.791536,-0.700000,-1.120000,1.400000
10.475978,-0.105408,0.441640,1.055544,-0.280000,1.960000,-3.220000
10.480044,0.155184,0.250344,0.896944,-2.520000,-5.880000,-0.280000
10.484110,-0.068808,0.483608,0.992592,1.820000,2.240000,0.000000
10.488176,-0.066368,0.379176,0.959896,0.980000,2.940000,-1.820000
10.492242,0.118584,0.297680,0.722240,-4.340000,-6.020000,1.120000
10.496308,-0.040016,0.542656,0.982832,-1.120000,0.000000,-0.700000
10.500374,0.029768,0.275720,1.039440,-2.380000,2.100000,-2.940000
10.504440,0.059536,0.353800,0.791048,-2.520000,-0.840000,0.980000
10.508506,-0.123952,0.493368,1.062376,1.400000,4.760000,-0.280000
10.512572,0.053680,0.282064,0.842288,-4.060000,-1.680000,-1.120000
10.516638,0.092232,0.413824,0.807152,-2.240000,-5.880000,0.700000
10.520704,-0.097112,0.454816,1.129720,1.820000,2.940000,-3.080000
10.524770,0.043432,0.255224,0.997960,0.840000,-1.260000,-2.240000
10.528836,0.074664,0.410408,0.635864,-0.980000,-3.640000,1.960000
10.532902,-0.160552,0.508984,1.080432,-0.840000,1.820000,-2.100000
10.536968,0.155184,0.250832,0.876448,-3.920000,-5.320000,-0.980000
10.541034,0.000488,0.499712,0.976488,-0.420000,2.800000,0.000000
10.545100,-0.112240,0.378200,0.965752,-0.700000,5.320000,-1.120000
10.549166,0.099552,0.287920,0.813984,-4.900000,-5.320000,-0.420000
10.553232,-0.039040,0.487024,1.004792,-0.420000,-2.380000,-0.280000
10.557298,-0.030744,0.305000,1.085800,-0.420000,2.660000,-3.220000
10.561364,0.149816,0.327448,0.759328,-1.820000,-4.200000,0.420000
10.565430,-0.119072,0.525576,0.915976,0.420000,2.100000,-0.420000
10.569496,-0.012688,0.308904,1.037000,-0.140000,-2.520000,-3.220000
10.573562,0.146400,0.329400,0.768112,-2.100000,-4.620000,0.420000
10.577628,-0.142008,0.551928,0.989176,-0.840000,3.360000,-1.120000
10.581694,0.036600,0.242536,0.925248,-2.660000,-1.960000,-1.120000
10.585760,0.093696,0.360632,0.946720,-1.960000,-2.380000,0.980000
10.589826,-0.139568,0.521184,1.037000,0.700000,5.180000,-0.560000
10.593892,0.081984,0.216672,0.802272,-4.060000,-3.640000,-1.120000
10.597958,0.069784,0.426024,1.011624,0.000000,-4.200000,1.540000
10.602024,-0.155184,0.454328,1.017480,1.820000,5.180000,-1.680000
10.606090,0.144448,0.244488,0.835456,-1.680000,-2.800000,-0.560000
10.610156,0.026352,0.497272,0.880352,-0.420000,-2.800000,0.980000
10.614222,-0.116632,0.411872,1.061400,0.560000,3.780000,-2.100000
10.618288,0.119560,0.269376,0.762744,-2.100000,-1.820000,-0.140000
10.622354,-0.046848,0.538264,0.922808,0.560000,1.260000,1.120000
10.626420,-0.043920,0.350384,0.948672,-2.380000,-0.140000,-2.940000
10.630486,0.123952,0.308904,0.939888,-1.120000,-6.020000,-0.140000
10.634552,-0.083936,0.476288,1.023824,2.520000,3.920000,0.140000
10.638618,-0.055632,0.295728,0.862784,-0.980000,1.820000,-2.100000
10.642684,0.109312,0.398696,0.764696,-3.360000,-7.280000,1.400000
10.646750,-0.057584,0.511912,1.143872,-0.700000,1.680000,-1.120000
10.650816,0.028792,0.222528,0.912560,-0.700000,0.280000,-1.680000
10.654882,0.083448,0.376736,0.841800,-0.280000,-1.960000,1.540000
10.658948,-0.130784,0.500200,0.958920,-0.840000,3.780000,-0.700000
10.663014,0.103456,0.241072,0.898408,-3.220000,-4.340000,-1.820000
10.667080,0.064416,0.475312,0.961360,0.700000,-2.800000,0.560000
10.671146,-0.162016,0.428464,1.001376,0.140000,4.900000,-1.820000
10.675212,0.113704,0.266936,0.784216,-2.660000,-5.040000,-0.840000
10.679278,0.052216,0.452376,0.921832,-1.120000,-3.920000,0.700000
10.683344,-0.135664,0.404552,1.060912,0.700000,3.080000,-2.520000
10.687410,0.145424,0.288896,0.771040,-2.520000,-2.800000,-0.560000
10.691476,-0.037088,0.563640,0.936960,-1.960000,0.980000,0.420000
10.695542,-0.082472,0.347456,1.018944,-1.680000,0.980000,-2.660000
10.699608,0.149328,0.234728,0.849120,-2.100000,-5.180000,0.140000
10.703674,-0.096624,0.505568,0.958432,-0.560000,3.360000,0.140000
10.707740,-0.038552,0.338184,1.016016,-1.680000,0.700000,-2.940000
10.711806,0.173728,0.324520,0.885232,-0.980000,-7.000000,1.540000
10.715872,-0.135664,0.506056,1.020408,1.260000,4.200000,-0.700000
10.719938,0.010248,0.293776,0.785680,-1.400000,0.840000,-2.520000
10.724004,0.122000,0.382592,0.884744,-2.380000,-5.600000,0.980000
10.728070,-0.107360,0.499712,1.118984,-0.140000,3.640000,-1.260000
10.732136,0.055632,0.217160,0.902800,-0.840000,0.420000,-1.680000
10.736202,0.062952,0.389912,0.828136,-0.840000,-1.960000,1.960000
10.740268,-0.159088,0.496784,1.053592,-0.140000,3.220000,-1.260000
10.744334,0.096136,0.225456,0.897432,-0.420000,-3.360000,-1.120000
10.748400,0.058072,0.450424,0.955016,1.680000,-1.540000,1.120000
10.752466,-0.118096,0.444568,0.963312,1.540000,3.500000,-2.100000
10.756532,0.116632,0.258640,0.813008,-0.980000,-5.180000,-0.840000
10.760598,0.000000,0.467992,1.026264,1.400000,-0.140000,0.420000
10.764664,-0.086376,0.397232,0.983320,1.680000,3.780000,-1.120000
10.768730,0.110288,0.255712,0.730048,-1.540000,-3.360000,0.140000
10.772796,-0.049288,0.570960,0.982832,-0.140000,-1.120000,0.140000
10.776862,-0.024400,0.327936,1.020896,-0.280000,0.420000,-2.660000
10.780928,0.153232,0.295240,0.846680,0.420000,-3.920000,0.420000
10.784994,-0.149816,0.493856,0.993080,3.220000,2.940000,-0.840000
10.789060,0.007808,0.318176,0.856928,-1.120000,-0.840000,-2.660000
10.793126,0.149328,0.397232,0.853512,-1.400000,-7.000000,1.400000
10.797192,-0.085400,0.469944,1.121912,0.000000,3.780000,-1.960000
10.801258,0.048312,0.237656,0.894016,0.140000,0.000000,-1.820000
10.805324,0.034160,0.427976,0.824232,0.560000,-1.540000,1.260000
10.809390,-0.134688,0.480192,0.964288,-1.540000,3.080000,-1.680000
10.813456,0.145912,0.239608,0.933056,-3.220000,-4.900000,-1.540000
10.817522,0.028792,0.460184,0.988688,2.240000,-0.140000,0.140000
10.821588,-0.178120,0.395280,0.982832,1.680000,5.740000,-2.240000
10.825654,0.143472,0.303048,0.777384,-1.540000,-4.340000,0.560000
10.829720,-0.006832,0.473360,0.957944,-0.140000,-2.940000,0.280000
10.833786,-0.076128,0.395280,1.082384,1.400000,2.240000,-2.520000
10.837852,0.090768,0.251320,0.774456,-0.420000,-0.560000,0.280000
10.841918,-0.054168,0.559248,0.916464,0.420000,2.240000,1.260000
10.845984,-0.043920,0.320128,0.951112,-1.120000,-0.980000,-2.660000
10.850050,0.162504,0.312808,0.916464,0.140000,-6.020000,0.420000
10.854116,-0.120536,0.512888,1.007232,2.940000,4.760000,-0.700000
10.858182,-0.025864,0.313296,0.864736,-0.560000,0.840000,-2.100000
10.862248,0.153720,0.372344,0.794952,-2.240000,-6.720000,0.560000
10.866314,-0.060512,0.503616,1.091168,0.140000,1.400000,-2.100000
10.870380,0.041480,0.209352,0.976000,-0.700000,1.260000,-1.960000
10.874446,0.040504,0.422608,0.833504,0.140000,0.000000,1.680000
10.878512,-0.164456,0.492392,0.980392,0.140000,3.920000,-1.120000
10.882578,0.133712,0.226920,0.866200,-3.220000,-6.860000,-1.680000
10.886644,0.060024,0.461160,1.024800,0.560000,-2.520000,0.420000
10.890710,-0.173728,0.411872,1.021384,2.660000,6.300000,-1.680000
10.894776,0.113704,0.264496,0.728096,-1.260000,-2.380000,0.140000
10.898842,0.033672,0.554368,0.839360,-1.260000,-1.820000,1.400000
10.902908,-0.099064,0.385032,1.083848,0.000000,2.380000,-3.080000
10.906974,0.124440,0.266448,0.793488,-0.840000,-2.940000,0.280000
10.911040,-0.097112,0.514352,0.967216,0.840000,2.800000,0.420000
10.915106,-0.054168,0.354288,0.917440,-1.540000,-1.260000,-2.660000
10.919172,0.200080,0.313296,0.919880,-1.960000,-8.260000,0.000000
10.923238,-0.107360,0.488976,1.034560,2.240000,3.920000,-1.540000
10.927304,-0.022448,0.305488,0.929640,0.980000,0.700000,-2.940000
10.931370,0.114192,0.344528,0.721264,-2.100000,-5.740000,1.120000
10.935436,-0.079056,0.525088,1.020408,-1.960000,0.700000,-1.680000
10.939502,0.090768,0.249856,0.973560,-2.380000,-3.220000,-2.660000
10.943568,0.047824,0.425536,0.925736,-0.560000,0.700000,0.140000
10.947634,-0.177632,0.432368,0.996496,0.980000,6.300000,-0.700000
10.951700,0.081008,0.251320,0.812520,-4.200000,-4.340000,-0.840000
10.955766,0.095648,0.465552,0.959896,-1.260000,-5.460000,0.980000
10.959832,-0.140056,0.454328,1.022848,-0.560000,4.340000,-2.940000
10.963898,0.124440,0.262056,0.839360,-2.100000,-4.060000,-0.980000
10.967964,0.031720,0.450912,0.905240,0.000000,-0.840000,0.420000
10.972030,-0.177632,0.412360,1.053104,2.660000,3.080000,-3.080000
10.976096,0.152256,0.271816,0.722240,-1.820000,-4.900000,0.000000
10.980162,0.003416,0.526552,1.010160,-1.960000,-0.560000,0.700000
10.984228,-0.088328,0.394304,1.058960,0.840000,2.380000,-2.520000
10.988294,0.102480,0.236192,0.788120,-1.680000,-3.080000,-0.280000
10.992360,-0.028304,0.537776,0.985760,-0.980000,2.380000,0.280000
10.996426,-0.066368,0.311344,1.005768,-1.120000,0.840000,-2.660000
11.000492,0.099064,0.284992,0.900360,0.700000,-4.900000,0.560000
11.004558,-0.061976,0.505568,0.959408,1.120000,3.500000,0.420000
11.008624,-0.056120,0.356240,0.892552,-0.700000,0.560000,-2.660000
11.012690,0.141032,0.315736,0.859856,0.700000,-7.000000,0.980000
11.016756,-0.103944,0.496296,1.078480,1.960000,3.640000,-0.280000
11.020822,0.038552,0.285968,0.781288,-0.980000,-0.280000,-1.400000
11.024888,0.108824,0.424560,0.901824,-0.560000,-4.900000,0.840000
11.028954,-0.066856,0.447984,1.142896,1.120000,2.520000,-1.820000
11.033020,0.029768,0.226432,0.800808,1.120000,-0.280000,-1.400000
11.037086,0.005856,0.470432,0.904264,1.540000,-0.840000,2.100000
11.041152,-0.110776,0.431880,0.959896,-1.820000,1.120000,-1.540000
11.045218,0.174216,0.300120,0.874984,-1.260000,-6.160000,-1.120000
11.049284,-0.021960,0.465064,1.030168,1.960000,1.820000,-0.280000
11.053350,-0.111264,0.345016,0.936472,0.560000,5.320000,-2.100000
11.057416,0.127856,0.330864,0.762744,0.280000,-5.740000,1.120000
11.061482,-0.067832,0.569008,0.898896,-0.980000,-0.280000,-0.420000
11.065548,0.029768,0.290848,1.006256,-1.400000,-0.560000,-3.780000
11.069614,0.140544,0.339648,0.907680,0.560000,-2.660000,-0.140000
11.073680,-0.154696,0.493368,0.994544,1.960000,5.460000,-0.280000
11.077746,-0.027328,0.279624,0.773480,-2.660000,-0.420000,-1.680000
11.081812,0.171288,0.427488,0.932568,-2.520000,-8.400000,0.560000
11.085878,-0.104432,0.462624,1.092632,-0.140000,3.220000,-2.520000
11.089944,0.036112,0.249368,0.946232,-0.840000,0.560000,-2.100000
11.094010,0.069296,0.440664,0.810568,1.680000,-1.820000,1.960000
11.098076,-0.162504,0.454816,0.941840,-1.120000,2.380000,-1.680000
11.102142,0.145424,0.273280,0.912560,-3.780000,-6.720000,-2.520000
11.106208,0.029768,0.463600,0.974048,-0.560000,-0.420000,-0.980000
11.110274,-0.121512,0.400160,1.095072,0.700000,5.740000,-1.820000
11.114340,0.106872,0.257664,0.748592,-0.840000,-4.340000,0.420000
11.118406,-0.041480,0.502640,0.866200,-1.260000,-0.280000,-0.280000
11.122472,-0.077592,0.329400,0.970632,-1.960000,-0.700000,-3.640000
11.126538,0.169824,0.315736,0.964776,-1.680000,-4.620000,0.140000
11.130604,-0.121024,0.518744,0.981856,2.660000,5.740000,0.140000
11.134670,-0.062952,0.311344,0.851072,0.420000,1.960000,-2.660000
11.138736,0.179096,0.363072,0.790560,-2.240000,-9.380000,-0.140000
11.142802,-0.075152,0.515816,1.144848,0.840000,0.840000,-2.100000
11.146868,0.034648,0.238144,0.938912,0.560000,0.840000,-2.240000
11.150934,0.082472,0.404064,0.800320,0.420000,-1.680000,1.260000
11.155000,-0.162016,0.489464,0.993080,0.000000,3.080000,-1.400000
11.159066,0.148840,0.255224,0.887184,-2.240000,-5.740000,-2.100000
11.163132,-0.004392,0.460672,1.007720,-0.420000,-1.120000,0.000000
11.167198,-0.142008,0.404552,1.041880,2.240000,5.180000,-2.100000
11.171264,0.160064,0.237168,0.814960,-0.140000,-5.460000,-0.140000
11.175330,-0.031720,0.538752,0.758352,-1.540000,-1.540000,0.280000
11.179396,-0.071248,0.392840,1.071160,-0.700000,1.260000,-3.220000
11.183462,0.149328,0.274256,0.882792,-0.560000,-3.640000,-0.140000
11.187528,-0.117120,0.522160,0.985272,1.680000,4.340000,0.140000
11.191594,-0.056120,0.354288,0.868640,-0.140000,0.700000,-2.800000
11.195660,0.185440,0.287432,0.898408,-2.660000,-8.540000,-0.280000
11.199726,-0.056120,0.514352,1.073600,1.680000,2.800000,-1.120000
11.203792,-0.082472,0.298656,0.937448,1.400000,4.480000,-2.800000
11.207858,0.156648,0.351360,0.764208,-0.700000,-5.460000,1.260000
11.211924,-0.116632,0.518256,1.047736,0.700000,1.680000,-1.680000
11.215990,0.033184,0.245464,0.949648,0.280000,-2.660000,-2.660000
11.220056,0.060024,0.370392,0.881328,1.400000,-1.260000,0.280000
11.224122,-0.115656,0.496784,0.970632,2.940000,3.640000,-0.420000
11.228188,0.023424,0.264984,0.818376,-1.400000,-3.500000,-1.260000
11.232254,0.110776,0.495808,0.862784,-1.400000,-4.900000,0.420000
11.236320,-0.060512,0.425536,1.081896,-0.840000,2.800000,-2.940000
11.240386,0.108824,0.260592,0.814472,-1.120000,-2.800000,-0.700000
11.244452,-0.060024,0.509960,0.975512,1.960000,1.680000,0.000000
11.248518,-0.095160,0.332328,1.021872,-0.140000,2.520000,-2.520000
11.252584,0.162504,0.314760,0.803736,-0.980000,-6.580000,0.420000
11.256650,-0.076128,0.529968,0.908656,-0.560000,0.980000,0.140000
11.260716,-0.049288,0.331840,1.038952,-0.980000,2.240000,-3.220000
11.264782,0.131272,0.320616,0.874008,0.280000,-4.200000,0.140000
11.268848,-0.117120,0.473360,1.034560,3.360000,3.920000,-0.560000
11.272914,-0.000976,0.285968,0.882304,-0.140000,-0.140000,-1.820000
11.276980,0.127856,0.383080,0.804712,-0.420000,-6.160000,1.120000
11.281046,-0.083936,0.467992,1.113128,1.260000,3.220000,-1.820000
11.285112,0.047824,0.298656,0.932568,1.400000,0.700000,-1.260000
11.289178,0.035624,0.421144,0.838384,1.820000,-0.140000,2.240000
11.293244,-0.146400,0.488000,0.953064,0.980000,3.640000,-1.680000
11.297310,0.150304,0.249368,0.858880,-1.820000,-6.300000,-1.400000
11.301376,0.041968,0.465552,0.971608,1.540000,-0.140000,-0.420000
11.305442,-0.160064,0.422120,1.046760,2.940000,6.580000,-2.100000
11.309508,0.103456,0.275720,0.685152,-0.700000,-3.360000,0.700000
11.313574,0.002928,0.520208,0.862296,-0.840000,-0.560000,0.420000
11.317640,-0.055144,0.366976,1.140944,-0.140000,1.260000,-3.360000
11.321706,0.120536,0.305488,0.832528,0.700000,-2.660000,-0.140000
11.325772,-0.093208,0.453352,0.892552,2.520000,2.940000,0.840000
11.329838,-0.077592,0.386496,0.952088,-1.120000,-0.280000,-2.520000
11.333904,0.205936,0.310368,0.892064,-0.420000,-9.380000,0.140000
11.337970,-0.149816,0.501176,0.963312,3.500000,3.220000,-1.400000
11.342036,0.026352,0.304024,0.976976,0.700000,0.840000,-2.380000
11.346102,0.122976,0.370392,0.804224,-2.240000,-5.880000,1.120000
11.350168,-0.065392,0.521672,1.079456,0.420000,0.000000,-2.100000
11.354234,0.081496,0.218136,0.906704,-0.280000,-2.100000,-2.240000
11.358300,-0.007320,0.420656,0.926712,1.260000,0.560000,0.140000
11.362366,-0.113704,0.448472,0.963312,2.940000,4.900000,-1.540000
11.366432,0.095648,0.329888,0.814472,-3.080000,-5.320000,-0.560000
11.370498,0.024888,0.495320,0.928664,-0.700000,-2.800000,-0.420000
11.374564,-0.080032,0.366000,1.111664,2.240000,4.480000,-2.380000
11.378630,0.079056,0.268400,0.795440,-1.680000,-1.540000,0.700000
11.382696,-0.023424,0.538264,0.807640,0.980000,0.560000,0.980000
11.386762,-0.104432,0.352336,1.057496,0.840000,1.260000,-3.500000
11.390828,0.167872,0.301096,0.892064,0.700000,-5.880000,-0.420000
11.394894,-0.081496,0.524600,0.848144,1.540000,3.080000,0.560000
11.398960,-0.070272,0.391376,1.040904,0.700000,1.540000,-2.660000
11.403026,0.189344,0.242048,0.856928,-1.680000,-8.400000,0.000000
11.407092,-0.073200,0.494832,1.075552,3.080000,2.240000,-1.260000
11.411158,-0.041968,0.309392,0.931592,1.960000,3.360000,-2.940000
11.415224,0.115168,0.373320,0.733952,-2.800000,-4.200000,0.980000
11.419290,-0.076616,0.521672,1.016992,0.000000,1.120000,-1.120000
11.423356,0.080520,0.242048,0.992592,-1.820000,-2.240000,-2.660000
11.427422,0.041968,0.415776,0.811056,0.140000,-0.700000,0.700000
11.431488,-0.138592,0.473848,0.940864,2.100000,5.040000,-1.680000
11.435554,0.081008,0.302072,0.856440,-2.660000,-3.780000,-1.680000
11.439620,0.047336,0.459696,0.841800,0.000000,-4.200000,0.140000
11.443686,-0.106872,0.494344,1.026264,0.000000,3.780000,-2.100000
11.447752,0.106384,0.255224,0.877424,-2.660000,-3.780000,-2.240000
11.451818,0.014640,0.457744,0.863760,-0.140000,-2.380000,0.420000
11.455884,-0.133712,0.406504,1.098976,1.680000,3.360000,-2.660000
11.459950,0.116632,0.274744,0.764696,-2.660000,-5.180000,-0.980000
11.464016,0.003904,0.472872,0.970144,-0.700000,-2.520000,0.140000
11.468082,-0.112240,0.416264,1.096048,1.960000,3.360000,-2.660000
11.472148,0.149328,0.285480,0.819840,-2.380000,-4.200000,-0.700000
11.476214,-0.005856,0.506056,0.928664,1.120000,-1.120000,0.000000
11.480280,-0.101504,0.325984,1.078480,1.400000,1.680000,-3.640000
11.484346,0.131760,0.273280,0.826672,0.140000,-3.500000,-0.700000
11.488412,-0.045872,0.537776,0.933544,0.980000,1.260000,0.140000
11.492478,-0.066368,0.356728,1.052616,0.980000,2.380000,-2.240000
11.496544,0.126880,0.288896,0.768112,0.560000,-5.600000,0.000000
11.500610,-0.088816,0.546560,0.933056,2.240000,2.240000,-0.840000
11.504676,-0.001464,0.318664,0.998448,-0.700000,0.700000,-3.500000
11.508742,0.095648,0.344528,0.856928,0.420000,-4.900000,0.700000
11.512808,-0.109312,0.487512,1.052128,3.640000,3.920000,-0.420000
11.516874,0.008784,0.266448,0.886696,0.840000,0.420000,-2.100000
11.520940,0.110776,0.420656,0.751520,-1.120000,-5.740000,0.980000
11.525006,-0.076616,0.510936,1.094096,0.980000,1.960000,-1.960000
11.529072,0.082472,0.237656,0.871568,-0.700000,-1.540000,-1.820000
11.533138,-0.006832,0.418704,0.881328,1.680000,0.840000,0.980000
11.537204,-0.129320,0.443592,1.037976,2.800000,4.900000,-1.400000
11.541270,0.113704,0.292312,0.840824,-1.540000,-4.340000,0.560000
11.545336,0.019032,0.502640,0.892064,0.980000,-2.660000,0.140000
11.549402,-0.088328,0.405528,1.118008,1.260000,3.220000,-3.640000
11.553468,0.169336,0.264008,0.854976,1.120000,-4.760000,-0.420000
11.557534,-0.089304,0.477752,0.859368,4.480000,1.680000,0.700000
11.561600,-0.060024,0.394792,0.982832,0.000000,1.260000,-2.520000
11.565666,0.166896,0.300120,0.791536,-1.400000,-6.860000,-0.140000
11.569732,-0.051728,0.552416,0.998936,1.960000,1.960000,-1.400000
11.573798,-0.002440,0.327448,1.041392,0.000000,2.660000,-2.380000
11.577864,0.030256,0.353800,0.660264,0.140000,-2.520000,0.560000
11.581930,-0.123952,0.471896,1.113616,3.360000,2.380000,-1.400000
11.585996,0.071736,0.295240,0.870592,-1.540000,-2.380000,-1.820000
11.590062,0.006344,0.429928,0.752496,-0.840000,-4.060000,0.420000
11.594128,-0.060024,0.502640,1.094584,1.120000,3.640000,-1.680000
11.598194,0.081008,0.261568,0.920856,-2.100000,-3.360000,-0.700000
11.602260,0.003416,0.422120,0.862296,1.820000,-0.420000,-0.280000
11.606326,-0.071248,0.439688,1.187792,3.640000,2.380000,-2.100000
11.610392,0.074664,0.228384,0.761768,-2.100000,-3.780000,0.420000
11.614458,0.019032,0.513376,0.832528,0.840000,-1.680000,0.420000
11.618524,-0.031232,0.427000,1.093120,0.000000,2.940000,-3.080000
11.622590,0.070760,0.305488,0.760792,-1.960000,-2.660000,-0.280000
11.626656,-0.074664,0.487512,1.008208,3.920000,3.780000,-0.420000
11.630722,-0.016104,0.336720,0.999912,0.280000,2.800000,-0.840000
11.634788,0.081984,0.351360,0.692472,-2.380000,-6.300000,0.140000
11.638854,-0.029768,0.531432,1.000888,2.240000,-0.980000,-0.980000
11.642920,0.001952,0.343552,1.135576,1.260000,2.240000,-2.800000
11.646986,0.054656,0.324032,0.634888,1.120000,-2.240000,0.140000
11.651052,-0.122976,0.518744,0.991616,2.660000,1.400000,-1.120000
11.655118,0.061000,0.319152,0.869128,-3.920000,-2.940000,-0.700000
11.659184,0.072712,0.407480,0.833504,-2.940000,-2.240000,0.000000
11.663250,-0.051240,0.493368,1.202432,2.100000,4.620000,-1.680000
11.667316,0.061488,0.167872,0.820328,-2.800000,-2.100000,-0.700000
11.671382,-0.035136,0.467992,0.891576,1.400000,-1.260000,0.840000
11.675448,-0.082960,0.442616,1.035048,0.560000,2.240000,-1.540000
11.679514,0.115656,0.313784,0.779336,-4.060000,-4.760000,-0.420000
11.683580,-0.018056,0.480680,0.945744,1.120000,-0.980000,-0.140000
11.687646,-0.027816,0.372832,1.165832,2.520000,2.940000,-1.960000
11.691712,0.080032,0.280112,0.681736,-0.840000,-2.940000,0.700000
11.695778,-0.057584,0.546072,0.892064,1.260000,0.560000,0.280000
11.699844,0.022936,0.381128,1.064816,-1.960000,0.560000,-1.820000
11.703910,0.039528,0.346968,0.746152,-1.820000,-2.800000,0.140000
11.707976,-0.069784,0.496784,1.115080,4.620000,4.340000,-0.840000
11.712042,0.026352,0.276208,0.908656,-1.540000,0.280000,-1.120000
11.716108,0.028792,0.397720,0.702720,-2.100000,-5.040000,1.540000
11.720174,-0.048800,0.488488,1.133624,0.420000,1.820000,-1.820000
11.724240,0.071736,0.268400,0.975024,-1.680000,-0.840000,-0.700000
11.728306,0.000976,0.419192,0.787144,2.520000,0.700000,0.140000
11.732372,-0.072224,0.439688,1.075552,2.240000,2.380000,-0.980000
11.736438,0.099064,0.298168,0.758840,-4.620000,-5.180000,-0.700000
11.740504,0.007808,0.508496,0.935008,1.260000,-2.380000,-1.120000
11.744570,-0.033184,0.371856,1.203896,2.380000,3.640000,-1.820000
11.748636,0.016104,0.271816,0.689544,-0.980000,-0.840000,0.840000
11.752702,-0.056120,0.555344,0.854976,1.540000,0.840000,0.280000
11.756768,0.001952,0.351360,1.000888,-2.520000,-1.960000,-1.680000
11.760834,0.068320,0.345992,0.832040,-0.280000,-5.460000,-0.560000
11.764900,-0.045384,0.478728,1.100440,5.040000,5.040000,-0.560000
11.768966,0.014640,0.268888,0.879376,-0.700000,1.680000,-1.540000
11.773032,0.055632,0.450424,0.628056,-1.820000,-6.300000,0.840000
11.777098,-0.034648,0.510448,1.220000,0.980000,0.980000,-1.960000
11.781164,0.089304,0.257176,0.877424,-1.260000,0.000000,-0.420000
11.785230,-0.082472,0.438224,0.834480,1.400000,2.380000,1.120000
11.789296,-0.037088,0.435296,1.096048,1.260000,1.960000,-0.980000
11.793362,0.111752,0.263032,0.824720,-3.920000,-6.300000,-0.840000
11.797428,-0.039040,0.520696,0.996008,3.080000,-1.120000,-0.280000
11.801494,-0.021960,0.333792,1.073600,1.540000,4.480000,-2.100000
11.805560,0.098088,0.345504,0.691984,-1.260000,-3.920000,0.700000
11.809626,-0.103944,0.578768,0.839848,1.400000,0.560000,-0.980000
11.813692,0.032208,0.286944,1.093120,-1.400000,0.000000,-2.240000
11.817758,0.062952,0.341112,0.773480,0.280000,-2.100000,0.560000
11.821824,-0.093208,0.508008,1.006744,3.780000,3.920000,-0.840000
11.825890,0.034160,0.300120,0.833016,-2.800000,-2.100000,-1.960000
11.829956,0.058072,0.442616,0.792024,-2.380000,-5.880000,-0.280000
11.834022,-0.061488,0.487024,1.194136,0.980000,2.100000,-2.240000
11.838088,0.115168,0.186904,0.898896,-1.540000,-2.520000,-0.840000
11.842154,-0.044408,0.457256,0.879376,2.800000,0.280000,0.840000
11.846220,-0.102480,0.453352,0.956480,0.420000,3.220000,-1.540000
11.850286,0.143960,0.289384,0.849608,-4.340000,-5.880000,-0.140000
11.854352,-0.020008,0.529968,1.021872,1.680000,-0.140000,-0.560000
11.858418,-0.048800,0.315736,1.147288,2.940000,3.640000,-2.380000
11.862484,0.094184,0.299632,0.690520,0.700000,-2.800000,0.840000
11.866550,-0.103456,0.560712,0.878888,1.680000,0.700000,-0.280000
11.870616,0.033672,0.323056,0.971608,-1.260000,-1.400000,-1.820000
11.874682,0.083448,0.380152,0.898896,0.420000,-2.380000,0.420000
11.878748,-0.121512,0.505080,1.063352,4.760000,6.860000,-0.840000
11.882814,0.049776,0.258152,0.735416,-1.260000,-0.700000,-1.120000
11.886880,0.041480,0.477752,0.809592,-1.680000,-5.320000,0.140000
11.890946,-0.037088,0.456768,1.177056,0.980000,1.120000,-2.520000
11.895012,0.089304,0.214720,0.844240,-0.700000,-1.680000,-0.560000
11.899078,-0.078568,0.497272,0.908656,3.780000,2.100000,0.280000
11.903144,-0.090280,0.401136,0.957944,1.960000,2.100000,-1.960000
11.907210,0.144448,0.350384,0.776408,-3.220000,-8.120000,0.000000
11.911276,-0.037576,0.553880,1.072624,1.820000,-0.140000,-1.120000
11.915342,-0.000976,0.260592,1.022360,1.820000,1.680000,-2.380000
11.919408,0.048800,0.342088,0.755424,1.400000,-1.820000,0.980000
11.923474,-0.083936,0.523624,0.967216,1.540000,2.800000,-0.420000
11.927540,0.051240,0.276696,0.839848,-3.500000,-2.940000,-0.980000
11.931606,0.074664,0.472384,0.897432,-0.280000,-2.100000,-0.420000
11.935672,-0.086376,0.449448,1.152168,3.500000,4.620000,-1.960000
11.939738,0.070760,0.241560,0.744200,-0.840000,-2.380000,-0.420000
11.943804,-0.037576,0.530944,0.862296,0.560000,-2.520000,0.840000
11.947870,-0.040992,0.409432,0.969656,-1.540000,0.000000,-2.520000
11.951936,0.120536,0.324032,0.907192,-2.380000,-5.460000,-0.560000
11.956002,-0.042944,0.524600,1.018456,2.940000,2.660000,-0.840000
11.960068,-0.081984,0.308416,0.964776,0.980000,3.080000,-2.520000
11.964134,0.141520,0.342088,0.699304,-1.540000,-7.140000,1.120000
11.968200,-0.068320,0.547048,0.977952,-0.840000,-0.140000,-1.260000
11.972266,0.006832,0.262056,1.029680,-1.680000,-1.120000,-2.660000
11.976332,0.106384,0.411872,0.953064,1.260000,-0.420000,0.280000
11.980398,-0.133712,0.474336,0.950624,2.520000,5.880000,-0.700000
11.984464,0.000000,0.264496,0.832528,-1.680000,-2.380000,-1.540000
11.988530,0.131272,0.419192,0.881816,-0.420000,-6.440000,0.840000
11.992596,-0.108824,0.483608,1.149240,1.820000,4.620000,-2.240000
11.996662,0.055144,0.250832,0.838872,0.840000,-0.420000,-1.260000
12.000728,0.040992,0.460672,0.824232,2.100000,-2.240000,1.120000
12.004794,-0.112240,0.472872,1.028216,0.840000,0.700000,-2.100000
12.008860,0.115168,0.244488,0.845216,-0.700000,-4.480000,-0.980000
12.012926,-0.040016,0.549488,0.971120,3.500000,2.100000,0.840000
12.016992,-0.069296,0.366000,0.973072,2.240000,3.360000,-2.100000
12.021058,0.100528,0.371368,0.703208,-1.540000,-6.160000,1.260000
12.025124,-0.078568,0.527040,1.006744,0.560000,0.420000,-0.700000
12.029190,0.064416,0.300120,0.973560,-0.700000,0.280000,-1.820000
12.033256,0.079056,0.379664,0.865712,0.280000,-1.120000,-0.280000
12.037322,-0.127368,0.493856,1.024312,3.780000,3.780000,-1.540000
12.041388,0.045384,0.218136,0.926224,-1.120000,-2.100000,-1.400000
12.045454,0.079544,0.444080,0.753472,0.700000,-4.200000,1.260000
12.049520,-0.105408,0.485072,1.045784,1.400000,2.660000,-2.660000
12.053586,0.110288,0.301096,0.811056,-2.520000,-3.640000,-1.540000
12.057652,-0.043432,0.533872,0.907192,0.700000,0.840000,-0.140000
12.061718,-0.042456,0.375760,1.151680,1.540000,2.660000,-1.820000
12.065784,0.101992,0.267912,0.785192,-0.700000,-4.060000,0.140000
12.069850,-0.088816,0.511912,0.923784,3.640000,-0.280000,-0.140000
12.073916,-0.055144,0.385032,0.926712,-0.700000,0.980000,-2.520000
12.077982,0.135664,0.368440,0.858880,-1.960000,-6.020000,0.280000
12.082048,-0.056608,0.513376,1.031632,2.800000,2.380000,-0.980000
12.086114,-0.006832,0.246440,1.013576,1.120000,0.980000,-2.520000
12.090180,0.066368,0.370392,0.663680,0.840000,-3.640000,1.400000
12.094246,-0.101016,0.520696,1.030656,1.120000,3.220000,-0.420000
12.098312,0.119072,0.312808,0.854976,-2.660000,-3.640000,-1.400000
12.102378,0.034160,0.489952,0.833016,-0.700000,-1.960000,0.140000
12.106444,-0.084912,0.410408,1.127280,2.100000,4.480000,-2.660000
12.110510,0.104432,0.266936,0.863760,-1.120000,-3.780000,-1.260000
12.114576,-0.030256,0.467504,0.859368,2.660000,-3.360000,0.560000
12.118642,-0.106872,0.462624,0.960872,0.980000,1.820000,-2.100000
12.122708,0.116632,0.332816,0.831064,-3.360000,-5.180000,-1.400000
12.126774,-0.022936,0.553392,0.959408,0.980000,-0.700000,-0.560000
12.130840,-0.017080,0.288408,1.152168,0.420000,2.940000,-2.520000
12.134906,0.055632,0.301584,0.717360,-0.840000,-2.660000,0.280000
12.138972,-0.072224,0.506544,0.993568,1.820000,2.240000,-0.420000
12.143038,0.031232,0.350384,0.933056,-1.680000,-0.700000,-0.980000
12.147104,0.085888,0.395768,0.747128,-1.820000,-4.200000,-0.140000
12.151170,-0.077104,0.485072,1.051640,2.380000,3.360000,-2.100000
12.155236,0.046848,0.286456,1.032120,-0.700000,-0.560000,-2.660000
12.159302,0.043432,0.389912,0.719312,1.820000,-4.620000,1.120000
12.163368,-0.149328,0.495320,0.995032,2.100000,4.340000,-1.400000
12.167434,0.143960,0.318176,0.892064,-2.940000,-4.760000,-1.680000
12.171500,-0.008784,0.476776,0.811056,-0.700000,-2.940000,-0.140000
12.175566,-0.038064,0.473360,1.219512,0.980000,4.200000,-2.800000
12.179632,0.088328,0.231312,0.782752,-2.240000,-3.220000,-0.700000
12.183698,-0.029768,0.431880,0.965264,2.940000,-0.980000,-0.980000
12.187764,-0.050752,0.417728,1.067744,2.380000,2.800000,-1.960000
12.191830,0.044896,0.301096,0.685152,-2.240000,-3.360000,0.140000
12.195896,-0.023912,0.591456,0.883280,1.960000,-1.820000,-0.980000
12.199962,0.007808,0.346968,1.119960,0.280000,-0.700000,-3.080000
12.204028,0.075152,0.321592,0.729072,-0.840000,-3.360000,-1.120000
12.208094,-0.062464,0.528016,0.985760,3.640000,3.360000,-1.120000
12.212160,-0.051728,0.347944,0.948672,-1.680000,0.700000,-0.980000
12.216226,0.097600,0.354288,0.665632,-2.520000,-5.600000,0.700000
12.220292,-0.028304,0.540216,1.133136,0.560000,2.660000,-1.960000
12.224358,0.039040,0.289384,0.880352,-3.360000,0.420000,-2.520000
12.228424,0.026840,0.431392,0.768600,-0.420000,-2.660000,-1.120000
12.232490,-0.058560,0.446032,1.240008,2.380000,1.960000,-2.380000
12.236556,0.002928,0.278648,0.842776,-1.120000,-1.400000,-1.820000
12.240622,0.076616,0.382104,0.706624,0.840000,-3.640000,0.280000
12.244688,-0.112240,0.515328,1.131184,0.140000,1.540000,-2.800000
12.248754,0.089792,0.319152,0.876448,-2.800000,-2.800000,-0.980000
12.252820,0.011224,0.454328,0.881816,2.240000,0.560000,0.560000
12.256886,-0.082960,0.442128,1.118496,1.540000,3.500000,-0.840000
12.260952,0.071248,0.220088,0.663192,-3.920000,-2.800000,-1.260000
12.265018,-0.011712,0.590968,1.064816,2.100000,-0.840000,-0.560000
12.269084,-0.050752,0.371368,1.130696,1.680000,2.800000,-1.400000
12.273150,0.063928,0.251320,0.678320,-0.420000,-2.240000,0.280000
12.277216,-0.046848,0.571448,0.901336,3.780000,0.000000,-0.560000
12.281282,-0.016592,0.340624,0.980880,-1.540000,-1.820000,-2.800000
12.285348,0.074664,0.382104,0.738344,-1.820000,-2.380000,0.280000
12.289414,-0.015616,0.531920,1.157048,2.660000,3.920000,-0.560000
12.293480,-0.002440,0.231312,0.843752,-0.140000,-0.280000,-1.260000
12.297546,0.016104,0.402600,0.800320,1.680000,-3.360000,-0.140000
12.301612,-0.060512,0.525576,1.089704,1.400000,2.240000,-0.560000
12.305678,0.071736,0.265472,0.747128,-4.060000,-4.340000,-0.700000
12.309744,0.029280,0.536312,0.962824,1.540000,-1.680000,-0.420000
12.313810,-0.020496,0.420168,1.184864,1.820000,2.800000,-1.960000
12.317876,0.008784,0.233264,0.648064,-0.840000,-1.680000,-0.560000
12.321942,-0.056120,0.520696,0.973560,2.240000,-0.560000,0.560000
12.326008,0.015128,0.409432,0.959896,-2.660000,-1.260000,-1.120000
12.330074,0.091256,0.358680,0.750056,-2.380000,-4.620000,-0.700000
12.334140,-0.036112,0.508984,1.170712,3.080000,3.780000,-1.820000
12.338206,-0.014152,0.274256,0.894992,-0.980000,2.100000,-1.680000
12.342272,0.024888,0.368440,0.721264,0.280000,-4.340000,0.980000
12.346338,-0.034160,0.529968,1.069208,1.120000,0.700000,-1.120000
12.350404,0.043920,0.314272,0.864736,-3.360000,-2.380000,-2.240000
12.354470,0.037576,0.436760,0.845704,1.540000,-0.980000,-0.420000
12.358536,-0.079544,0.445056,1.212192,3.080000,3.360000,-1.400000
12.362602,0.038064,0.239120,0.673928,-1.400000,-2.240000,-0.700000
12.366668,0.002440,0.522160,0.855952,0.980000,-3.500000,0.420000
12.370734,-0.035624,0.456768,1.136064,-0.840000,0.840000,-2.380000
12.374800,0.114192,0.275720,0.703696,-2.660000,-3.640000,-0.980000
12.378866,-0.049288,0.574864,1.105320,2.660000,1.820000,-1.400000
12.382932,-0.007320,0.298168,1.035048,0.980000,0.140000,-1.820000
12.386998,0.025864,0.299144,0.661240,0.420000,-2.660000,-0.140000
12.391064,-0.047336,0.553880,1.010160,1.820000,1.120000,-0.560000
12.395130,0.014152,0.352824,0.880352,-2.660000,-1.400000,-1.540000
12.399196,0.038552,0.416752,0.812520,-0.980000,-2.800000,-0.140000
12.403262,-0.017080,0.489464,1.247328,2.660000,3.640000,-1.960000
12.407328,0.052704,0.212280,0.728584,-1.680000,-1.540000,-1.400000
12.411394,0.009760,0.416752,0.935984,3.080000,-1.960000,0.140000
12.415460,-0.108824,0.486048,1.035536,2.100000,3.360000,-0.560000
12.419526,0.068808,0.307928,0.703208,-2.940000,-2.520000,-1.120000
12.423592,0.004392,0.575840,0.956480,2.240000,-1.960000,-0.280000
12.427658,-0.031720,0.396256,1.145336,-0.700000,0.840000,-1.820000
12.431724,0.060512,0.256688,0.685152,-1.260000,-1.820000,-0.700000
12.435790,-0.026840,0.515816,1.145824,5.320000,1.680000,-0.140000
12.439856,-0.029280,0.309880,0.891088,0.140000,1.540000,-0.840000
12.443922,0.055632,0.400648,0.673928,-0.560000,-2.940000,-0.280000
12.447988,-0.006344,0.543144,1.095072,2.380000,0.280000,-0.700000
12.452053,0.008784,0.277672,0.838384,-2.380000,-1.260000,-2.240000
12.456119,0.052216,0.434808,0.893040,2.380000,-1.400000,-0.980000
12.460185,-0.059536,0.461160,1.182424,3.640000,3.360000,-1.260000
12.464251,0.000488,0.218136,0.679296,-0.700000,-2.240000,-0.700000
12.468317,0.062952,0.532896,0.957456,2.100000,-4.480000,-0.280000
12.472383,-0.019032,0.431880,1.016016,-0.700000,1.680000,-2.240000
12.476449,0.011224,0.362584,0.655384,-2.240000,-1.680000,-0.980000
12.480515,0.001952,0.549488,1.121912,2.800000,2.240000,-0.980000
12.484581,-0.020008,0.283040,0.985760,-0.420000,1.260000,-1.540000
12.488647,0.002928,0.309392,0.711504,0.840000,-3.080000,-0.140000
12.492713,-0.030744,0.547048,1.043344,2.100000,1.540000,-0.700000
12.496779,0.001464,0.332328,0.856440,-3.500000,-0.980000,-1.260000
12.500845,0.021960,0.449448,0.866688,1.120000,-2.100000,0.560000
12.504911,-0.030256,0.456768,1.239520,3.500000,3.920000,-1.400000
12.508977,0.039040,0.212768,0.678808,-1.120000,-0.980000,-0.140000
12.513043,0.003416,0.523624,0.869616,1.120000,-1.960000,0.840000
12.517109,-0.024888,0.460184,1.131184,1.260000,0.560000,-1.540000
12.521175,0.082472,0.258640,0.732488,-0.420000,-1.540000,-0.700000
12.525241,-0.064416,0.569008,1.112640,5.180000,2.660000,0.140000
12.529307,-0.037576,0.323056,0.883768,0.560000,1.680000,-0.280000
12.533373,0.070272,0.357216,0.642208,-2.800000,-5.040000,0.700000
12.537439,-0.013664,0.556320,1.212680,2.520000,0.560000,-1.400000
12.541505,0.045872,0.233264,0.775920,-1.120000,-0.280000,-1.260000
12.545571,-0.018056,0.472872,0.843752,1.960000,1.540000,0.140000
12.549637,-0.046848,0.497760,1.110200,2.800000,1.400000,-0.280000
12.553703,0.004880,0.244488,0.698816,-2.800000,-4.200000,-1.120000
12.557769,0.038552,0.560712,0.924760,2.940000,-3.220000,0.000000
12.561835,-0.027328,0.413824,1.097512,-0.280000,1.960000,-2.520000
12.565901,0.041480,0.320616,0.607560,-2.380000,-4.060000,-0.140000
12.569967,-0.032696,0.573888,1.151192,1.960000,0.980000,-0.420000
12.574033,0.024400,0.238144,0.938424,-2.380000,0.700000,-1.260000
12.578099,0.035624,0.373808,0.794464,0.840000,-3.220000,0.140000
12.582165,-0.103456,0.532896,1.066280,3.220000,2.240000,-0.700000
12.586231,0.040504,0.313784,0.803248,-4.340000,-1.540000,-0.560000
12.590297,0.101992,0.411872,0.833016,-0.420000,-4.480000,0.420000
12.594363,-0.026840,0.452864,1.274656,3.220000,2.660000,-1.960000
12.598429,0.008784,0.235216,0.751032,-0.980000,0.700000,-0.980000
12.602495,-0.007808,0.524600,0.858880,1.680000,-0.420000,1.260000
12.606561,-0.018544,0.475800,1.064816,-0.140000,0.840000,-1.680000
12.610627,0.077592,0.286944,0.747128,-2.800000,-4.060000,-1.120000
12.614693,-0.012688,0.563640,1.097512,5.180000,3.780000,-0.560000
12.618759,-0.059536,0.309392,0.900848,0.840000,5.040000,-0.840000
12.622825,0.012200,0.365512,0.608536,-2.240000,-3.220000,1.120000
12.626891,-0.004880,0.576328,1.128256,0.840000,0.000000,-1.400000
12.630957,0.043432,0.231800,0.925736,-2.100000,-1.260000,-1.960000
12.635023,0.009272,0.451888,0.814472,1.260000,0.420000,-0.140000
12.639089,-0.060512,0.454816,1.186816,3.500000,2.940000,-1.400000
12.643155,0.061976,0.247904,0.688080,-1.260000,-5.740000,-0.280000
12.647221,-0.063440,0.580232,0.825696,1.260000,-2.660000,0.000000
12.651287,0.006832,0.427976,1.075552,0.140000,0.840000,-2.100000
12.655353,-0.003416,0.345992,0.626592,-2.660000,-3.220000,0.000000
12.659419,-0.034648,0.568520,1.068720,2.660000,0.560000,-0.980000
12.663485,0.065392,0.245464,0.972096,-2.800000,-2.520000,-0.980000
12.667551,0.030744,0.390400,0.790560,-0.420000,-4.340000,-0.420000
12.671617,-0.070272,0.518256,1.088728,3.080000,1.960000,-1.260000
12.675683,0.071736,0.268400,0.834968,-4.760000,-1.540000,-1.120000
12.679749,0.037088,0.496296,0.905240,0.560000,-3.220000,0.560000
12.683815,-0.081984,0.417240,1.152656,1.680000,2.940000,-2.240000
12.687881,0.124928,0.269376,0.736880,-3.640000,-2.940000,-0.420000
12.691947,-0.042456,0.539240,0.861320,0.700000,0.000000,0.140000
12.696013,-0.044896,0.383568,1.169248,0.140000,2.100000,-2.240000
12.700079,0.095160,0.290360,0.797392,0.000000,-2.940000,0.280000
12.704145,-0.104432,0.529968,0.882304,2.660000,2.800000,-0.140000
12.708211,-0.029280,0.394304,1.032120,-0.700000,0.420000,-2.240000
12.712277,0.129808,0.312320,0.761768,-1.400000,-6.440000,0.980000
12.716343,-0.088816,0.549488,1.101904,4.620000,3.780000,-1.400000
12.720409,0.030256,0.317200,0.941840,1.680000,0.560000,-1.680000
12.724475,0.026352,0.382104,0.632448,-0.140000,-3.640000,0.980000
12.728541,-0.061000,0.546072,1.036024,1.540000,1.680000,-1.120000
12.732607,0.089792,0.272304,0.917928,-2.100000,-2.380000,-0.840000
12.736673,0.010248,0.480680,0.827160,0.840000,0.560000,-0.140000
12.740739,-0.062464,0.483120,1.193648,2.940000,3.920000,-2.240000
12.744805,0.111264,0.197640,0.751520,-1.400000,-4.760000,-0.560000
12.748871,-0.052704,0.528504,0.915000,3.780000,-0.980000,0.140000
12.752937,-0.058072,0.396744,1.053592,1.120000,2.520000,-2.240000
12.757003,0.097112,0.353800,0.696376,-2.380000,-3.920000,0.280000
12.761069,-0.084912,0.595360,1.029680,2.940000,2.240000,-0.560000
12.765135,0.038552,0.299144,0.959408,-0.560000,0.560000,-1.540000
12.769201,0.034160,0.349896,0.687104,-0.840000,-3.080000,0.560000
12.773267,-0.082960,0.513864,1.196576,4.340000,3.780000,-1.260000
12.777333,0.068808,0.271816,0.861808,-0.280000,-1.820000,-0.700000
12.781399,-0.023912,0.463600,0.731024,0.980000,-2.240000,1.260000
12.785465,-0.057584,0.517280,1.100928,2.100000,1.820000,-2.100000
12.789531,0.108824,0.234240,0.826184,-2.100000,-4.200000,0.000000
12.793597,-0.019032,0.553392,0.976000,2.660000,1.680000,-0.140000
12.797663,-0.025864,0.344528,1.098000,3.500000,2.660000,-1.540000
12.801729,0.069296,0.311832,0.630008,-1.820000,-4.340000,1.400000
12.805795,-0.089304,0.615856,0.998936,2.800000,0.700000,-0.560000
12.809861,0.064904,0.345504,0.885232,-1.400000,-0.140000,-2.800000
12.813927,0.020984,0.389912,0.780312,-1.120000,-3.080000,-0.140000
12.817993,-0.074664,0.518744,1.139480,3.360000,3.920000,-0.980000
12.822059,0.095648,0.214720,0.850584,-1.820000,-1.960000,-0.980000
12.826125,0.000000,0.451400,0.863272,1.820000,-2.660000,0.000000
12.830191,-0.132736,0.516792,1.091168,3.080000,1.960000,-1.820000
12.834257,0.112240,0.266936,0.711504,-2.940000,-2.660000,0.420000
12.838323,-0.038552,0.542168,0.963312,0.840000,0.000000,0.560000
12.842389,-0.009272,0.391864,1.080432,1.400000,0.980000,-1.400000
12.846455,0.095160,0.288896,0.730048,-1.400000,-2.940000,0.140000
12.850521,-0.110288,0.533872,1.013088,4.340000,2.800000,-0.140000
12.854587,0.036600,0.369904,0.894016,-0.280000,0.280000,-1.260000
12.858653,0.068320,0.402600,0.772504,-1.400000,-4.620000,0.840000
12.862719,-0.052704,0.543144,1.118496,3.360000,2.940000,-1.540000
12.866785,0.026352,0.247416,0.939888,0.280000,0.140000,-1.400000
12.870851,0.036112,0.396256,0.688568,0.980000,-2.100000,0.980000
12.874917,-0.114192,0.544120,1.134112,2.240000,2.800000,-0.840000
12.878983,0.130784,0.241072,0.757864,-3.780000,-4.760000,-1.120000
12.883049,-0.004392,0.559248,0.937936,1.820000,-0.840000,-0.840000
12.887115,-0.051728,0.404552,1.113128,2.520000,2.660000,-2.100000
12.891181,0.082472,0.272792,0.734440,-0.840000,-2.940000,-0.560000
12.895247,-0.049776,0.558760,0.999912,4.340000,0.700000,-0.700000
12.899313,-0.039528,0.361120,1.028704,1.400000,-0.140000,-1.540000
12.903379,0.035624,0.350384,0.657336,-0.140000,-2.520000,0.560000
12.907445,-0.074176,0.558760,1.048712,2.800000,2.940000,0.140000
12.911511,0.043432,0.305976,0.853512,-2.520000,-1.260000,-0.280000
12.915577,0.050264,0.407968,0.832528,-0.560000,-1.820000,0.280000
12.919643,-0.038064,0.530456,1.252696,4.060000,3.920000,-0.980000
12.923709,0.091744,0.198616,0.745664,-1.260000,-2.240000,-0.420000
12.927775,-0.039040,0.491416,0.904752,4.760000,-1.400000,0.000000
12.931841,-0.039528,0.458720,1.087752,3.080000,1.540000,-1.400000
12.935907,0.076128,0.359168,0.640256,-2.660000,-2.380000,0.420000
12.939973,-0.059536,0.593408,0.950136,2.240000,1.540000,-0.560000
12.944039,0.033184,0.292800,1.004304,0.140000,1.540000,-1.120000
12.948105,0.023912,0.335744,0.719800,-0.980000,-0.840000,0.280000
12.952171,-0.076128,0.571448,1.163392,4.760000,4.620000,-0.560000
12.956237,0.033672,0.251320,0.850096,-1.680000,-1.540000,-0.420000
12.960303,0.053680,0.447984,0.787144,1.120000,-3.780000,0.840000
12.964369,-0.093208,0.525088,1.122400,2.800000,2.520000,-2.660000
12.968435,0.083448,0.284016,0.855464,-0.700000,-2.240000,-0.140000
12.972501,-0.008784,0.474336,0.851560,3.920000,0.000000,0.700000
12.976567,-0.081984,0.435784,1.107760,2.800000,2.660000,-1.120000
12.980633,0.099064,0.309880,0.619760,-1.820000,-5.040000,0.560000
12.984699,-0.042944,0.610000,0.976000,2.380000,0.840000,-0.560000
12.988765,0.021472,0.322568,0.962336,-0.420000,1.120000,-1.400000
12.992831,0.007320,0.391864,0.611464,-2.100000,-1.680000,0.280000
12.996897,-0.041968,0.553880,1.166320,2.520000,1.260000,-1.120000
13.000963,0.082472,0.254736,0.894504,-3.220000,-2.520000,-0.700000
13.005029,0.007320,0.428952,0.874008,3.360000,-2.800000,-0.140000
13.009095,-0.127368,0.483120,1.071160,4.060000,2.380000,-1.400000
13.013161,0.067832,0.316224,0.801296,-3.780000,-4.340000,-0.420000
13.017227,0.051728,0.534360,0.888160,0.980000,-4.340000,0.280000
13.021293,0.003416,0.399672,1.162416,0.840000,1.820000,-2.940000
13.025359,0.028304,0.295240,0.612928,-0.840000,-1.120000,0.280000
13.029425,-0.105896,0.539240,0.977952,3.220000,3.780000,0.000000
13.033491,0.037088,0.363072,0.925248,-1.400000,-0.840000,-0.140000
13.037557,0.069296,0.415288,0.738344,-3.500000,-5.740000,-0.420000
13.041623,-0.050264,0.558272,1.127768,2.240000,1.260000,-2.100000
13.045689,0.037088,0.266448,0.954528,-1.960000,-1.120000,-1.820000
13.049755,0.048312,0.380640,0.793000,1.120000,-1.960000,0.420000
13.053821,-0.116144,0.506056,1.088240,3.220000,3.080000,-1.820000
13.057887,0.101992,0.306952,0.770552,-2.380000,-5.320000,-0.840000
13.061953,-0.002440,0.530944,0.814472,-1.120000,-0.420000,0.000000
13.066019,-0.030744,0.463112,1.147776,0.700000,2.940000,-1.820000
13.070085,0.050264,0.255224,0.684664,-3.080000,-2.380000,-0.140000
13.074151,-0.061000,0.569984,1.059936,1.960000,2.800000,-0.700000
13.078217,-0.019032,0.305488,1.097512,0.980000,1.400000,-1.540000
13.082283,0.078080,0.332816,0.707600,-0.280000,-3.640000,1.120000
13.086349,-0.088328,0.546072,0.984784,3.220000,2.240000,-0.560000
13.090415,0.037088,0.350872,0.894016,-1.820000,-1.680000,-1.960000
13.094481,0.029768,0.438224,0.793488,0.000000,-2.800000,0.700000
13.098547,-0.049776,0.491416,1.147776,3.500000,4.620000,-1.120000
13.102613,0.072224,0.219112,0.807152,-0.420000,-1.680000,-0.560000
13.106679,-0.003416,0.523624,0.839848,2.660000,-1.400000,0.980000
13.110745,-0.039040,0.480680,1.083848,0.700000,2.240000,-1.680000
13.114811,0.044896,0.320616,0.631960,-3.220000,-2.940000,0.700000
13.118877,-0.057096,0.598288,1.049688,1.540000,2.240000,-0.420000
13.122943,0.046360,0.299632,1.002840,-0.420000,0.700000,-1.400000
13.127009,0.016104,0.376736,0.733952,-0.420000,-3.080000,0.140000
13.131075,-0.095160,0.505080,1.032608,4.200000,2.800000,-0.280000
13.135141,0.029280,0.315736,0.906216,-1.960000,-2.240000,-1.400000
13.139207,0.107360,0.426512,0.799832,0.140000,-4.900000,0.980000
13.143273,-0.104920,0.513376,1.195600,3.500000,3.780000,-1.540000
13.147339,0.071736,0.235704,0.820328,0.000000,-1.120000,-0.840000
13.151405,-0.018544,0.476288,0.788608,2.800000,-1.120000,0.980000
13.155471,-0.035136,0.502152,1.073112,0.980000,0.980000,-1.260000
13.159537,0.097600,0.319152,0.721264,-2.940000,-5.460000,0.280000
13.163603,-0.050752,0.571448,1.039440,3.920000,1.820000,-0.840000
13.167669,-0.001952,0.297680,1.038952,1.820000,1.260000,-2.520000
13.171735,0.068320,0.364536,0.706624,-0.140000,-3.920000,0.420000
13.175801,-0.101016,0.589504,0.923296,3.220000,1.260000,-0.420000
13.179867,0.027816,0.337696,0.900848,-2.520000,-1.540000,-1.400000
13.183933,0.044408,0.439200,0.755424,-1.260000,-2.520000,0.140000
13.187999,-0.054168,0.505080,1.206824,2.520000,4.340000,-1.540000
13.192065,0.084424,0.244000,0.770552,-2.800000,-3.080000,-0.980000
13.196131,-0.019520,0.473360,0.886696,1.820000,-1.540000,-0.560000
13.200197,-0.062464,0.429928,1.178520,3.080000,2.240000,-2.240000
13.204263,0.101504,0.302072,0.775920,0.000000,-3.220000,-0.140000
13.208329,-0.063440,0.552904,0.799344,2.380000,0.000000,0.280000
13.212395,-0.026352,0.421632,1.067744,0.000000,0.560000,-2.520000
13.216461,0.069296,0.322568,0.750544,-1.820000,-4.340000,0.560000
13.220527,-0.042456,0.569496,1.090192,4.060000,4.340000,-0.420000
13.224593,0.009760,0.293776,0.906704,0.700000,1.820000,-0.840000
13.228658,0.003904,0.434320,0.633424,-1.400000,-4.060000,0.980000
13.232724,-0.025376,0.535824,1.121424,2.520000,1.540000,-1.680000
13.236790,0.078080,0.279624,0.872544,-2.240000,-1.960000,-1.260000
13.240856,-0.007808,0.481656,0.824232,1.680000,-0.280000,-0.140000
13.244922,-0.055632,0.460184,1.158024,3.640000,2.520000,-1.820000
13.248988,0.090768,0.233264,0.774944,-1.540000,-3.500000,-0.280000
13.253054,-0.058560,0.583648,0.819840,1.540000,-1.120000,0.420000
13.257120,-0.021960,0.446032,1.064816,0.000000,0.980000,-1.680000
13.261186,0.045872,0.343064,0.653920,-2.800000,-2.940000,-0.140000
13.265252,-0.051240,0.589992,1.053104,2.380000,2.100000,-1.260000
13.269318,0.040992,0.267912,0.975024,-0.700000,-0.140000,-1.540000
13.273384,0.047824,0.367952,0.805200,0.000000,-3.920000,-0.140000
13.277450,-0.096624,0.533384,1.077016,5.320000,2.100000,-1.120000
13.281516,0.013664,0.322568,0.848632,-1.400000,-0.140000,-1.540000
13.285582,0.070760,0.458720,0.769576,-0.420000,-4.060000,1.120000
13.289648,-0.056120,0.523136,1.125328,1.960000,1.960000,-1.680000
13.293714,0.084424,0.208376,0.833992,-2.100000,-1.820000,-0.560000
13.297780,-0.044896,0.504592,0.941840,2.660000,1.540000,0.000000
13.301846,-0.040992,0.415776,1.129720,3.080000,3.220000,-0.980000
13.305912,0.101504,0.312320,0.647088,-1.260000,-4.620000,1.260000
13.309978,-0.062464,0.587552,0.977952,3.920000,-0.280000,-1.260000
13.314044,0.018056,0.390400,1.016992,1.540000,0.700000,-2.520000
13.318110,0.025864,0.357216,0.709064,-0.140000,-2.800000,0.140000
13.322176,-0.040992,0.561200,1.080920,4.620000,3.220000,-0.140000
13.326242,0.022936,0.278648,0.912560,0.420000,0.560000,-1.120000
13.330308,0.014152,0.425048,0.701256,1.260000,-3.220000,0.560000
13.334374,-0.046848,0.539728,1.156072,3.220000,2.520000,-1.680000
13.338440,0.081008,0.284016,0.725168,-2.520000,-2.660000,-0.560000
13.342506,-0.034648,0.535336,0.908656,1.680000,-0.280000,0.000000
13.346572,-0.014152,0.396256,1.127280,2.240000,2.940000,-1.400000
13.350638,0.107360,0.283040,0.703696,-0.980000,-1.960000,-0.420000
13.354704,-0.138592,0.555344,1.009672,5.740000,2.240000,0.000000
13.358770,-0.002440,0.396256,0.978440,0.840000,0.560000,-1.260000
13.362836,0.073688,0.404552,0.668560,-1.400000,-4.760000,0.700000
13.366902,-0.039528,0.570960,1.077016,3.500000,2.380000,-1.960000
13.370968,0.038552,0.259128,1.001864,0.980000,-0.420000,-0.840000
13.375034,-0.006344,0.401136,0.701744,1.820000,-0.140000,1.400000
13.379100,-0.073200,0.529480,1.113616,3.220000,3.500000,-0.560000
13.383166,0.093208,0.284992,0.743712,-2.380000,-4.480000,-0.420000
13.387232,0.013176,0.545584,0.921832,2.660000,-2.240000,-0.700000
13.391298,-0.054168,0.447008,1.102392,2.660000,3.640000,-1.820000
13.395364,0.091744,0.288408,0.646112,-1.400000,-2.660000,0.140000
13.399430,-0.069296,0.562176,1.018944,4.900000,0.280000,-0.280000
13.403496,-0.049776,0.399184,0.954528,1.400000,0.280000,-2.240000
13.407562,0.058560,0.366976,0.648064,-1.960000,-3.500000,0.560000
13.411628,-0.037088,0.605608,1.070184,1.820000,0.980000,-0.980000
13.415694,0.057584,0.289384,0.920856,-2.100000,-2.660000,-1.400000
13.419760,0.023912,0.442128,0.733464,-1.120000,-1.400000,-0.280000
13.423826,-0.053680,0.447984,1.227320,2.660000,3.500000,-1.540000
13.427892,0.063928,0.245464,0.793000,-2.100000,-1.960000,-0.140000
13.431958,-0.036600,0.545584,0.870104,3.360000,-0.700000,0.700000
13.436024,-0.085888,0.467992,1.029680,0.840000,2.380000,-1.820000
13.440090,0.155672,0.349408,0.748592,-3.780000,-5.880000,-0.140000
13.444156,-0.082472,0.516792,0.952576,3.360000,0.420000,-1.120000
13.448222,-0.006832,0.354776,1.122400,2.800000,2.520000,-2.100000
13.452288,0.068320,0.348920,0.644160,-0.280000,-3.080000,1.540000
13.456354,-0.114192,0.632448,0.943304,2.240000,1.400000,-0.980000
13.460420,0.077592,0.318664,0.955992,-1.820000,-3.220000,-1.680000
13.464486,0.043432,0.423096,0.790072,-1.680000,-1.400000,0.000000
13.468552,-0.090280,0.512400,1.179984,4.900000,5.040000,-1.680000
13.472618,0.081496,0.206424,0.720776,-2.100000,-2.240000,-0.140000
13.476684,-0.022448,0.537288,0.858880,0.420000,-1.820000,1.540000
13.480750,-0.043920,0.498248,1.093120,2.240000,1.820000,-2.240000
13.484816,0.104432,0.285968,0.811056,-1.680000,-4.060000,0.000000
13.488882,-0.085400,0.545584,0.968192,3.780000,2.100000,-0.700000
13.492948,0.007808,0.352824,1.088240,2.940000,0.840000,-2.100000
13.497014,0.062464,0.345992,0.627568,-0.280000,-4.900000,0.980000
13.501080,-0.121024,0.600240,1.011624,3.220000,1.820000,-0.560000
13.505146,0.104432,0.339648,0.876936,-0.980000,-1.260000,-0.420000
13.509212,-0.020008,0.457256,0.750056,-0.840000,-0.700000,0.700000
13.513278,-0.043920,0.524112,1.181936,3.640000,3.220000,-1.680000
13.517344,0.108824,0.207888,0.764208,-2.100000,-3.780000,-0.700000
13.521410,-0.043432,0.525088,0.941840,3.500000,-1.260000,-0.560000
13.525476,-0.029768,0.418216,1.161440,4.480000,2.380000,-1.960000
13.529542,0.074664,0.317688,0.745664,0.420000,-3.360000,0.280000
13.533608,-0.076128,0.588528,0.859368,4.620000,0.560000,-0.280000
13.537674,0.008296,0.391864,0.904752,0.000000,0.000000,-1.260000
13.541740,-0.006832,0.427976,0.656360,-2.240000,-1.400000,0.840000
13.545806,-0.017080,0.573888,1.197064,3.500000,4.480000,-1.120000
13.549872,0.097600,0.188368,0.773480,-2.520000,-1.680000,-0.140000
13.553938,-0.055144,0.485560,0.881816,1.400000,-2.380000,-0.140000
13.558004,-0.028304,0.477264,1.221952,5.040000,2.520000,-2.100000
13.562070,0.094672,0.291824,0.829600,0.140000,-2.800000,-0.420000
13.566136,-0.044896,0.518744,0.803736,4.900000,-1.260000,0.000000
13.570202,-0.017568,0.447984,1.044808,1.540000,0.560000,-2.520000
13.574268,0.065880,0.356728,0.645624,-1.400000,-3.080000,0.700000
13.578334,-0.084424,0.601216,1.077504,3.920000,3.780000,-0.980000
13.582400,0.083448,0.285480,0.854976,0.140000,-0.140000,-0.700000
13.586466,-0.060024,0.437248,0.739320,0.000000,-1.540000,0.140000
13.590532,-0.052704,0.558272,1.117520,5.320000,3.080000,-0.840000
13.594598,0.077592,0.265960,0.774944,-4.340000,-1.960000,0.140000
13.598664,-0.034160,0.579744,0.877912,0.420000,-1.400000,0.840000
13.602730,0.004392,0.390400,1.084336,1.960000,2.520000,-2.520000
13.606796,0.089792,0.295240,0.768600,-2.520000,-3.640000,-0.560000
13.610862,-0.073200,0.586576,0.988688,4.480000,1.400000,-0.140000
13.614928,-0.007320,0.329400,1.065304,1.960000,2.240000,-2.100000
13.618994,0.051240,0.375272,0.626592,-0.280000,-4.620000,1.120000
13.623060,-0.113704,0.614880,0.968680,2.800000,2.520000,-0.560000
13.627126,0.099552,0.316224,0.818376,-3.080000,-2.240000,-0.840000
13.631192,-0.040992,0.506544,0.834968,-1.820000,-1.960000,0.140000
13.635258,0.013664,0.481168,1.184864,2.800000,2.800000,-1.120000
13.639324,0.061000,0.230336,0.702232,-4.200000,-1.820000,0.280000
13.643390,-0.096136,0.579256,1.022848,3.080000,0.140000,0.280000
13.647456,-0.003904,0.361120,1.040416,2.660000,0.420000,-1.260000
13.651522,0.075152,0.382592,0.697352,-1.820000,-3.920000,0.420000
13.655588,-0.063928,0.594872,0.927200,2.100000,0.140000,-0.980000
13.659654,0.074664,0.266936,0.951112,-1.540000,-1.400000,-1.260000
13.663720,-0.008296,0.459696,0.770064,-0.700000,-0.140000,0.420000
13.667786,-0.048312,0.544608,1.142896,3.920000,4.760000,-0.980000
13.671852,0.065392,0.264984,0.735904,-2.800000,-2.660000,0.280000
13.675918,-0.055632,0.549488,0.879864,0.980000,-1.820000,0.560000
13.679984,0.017568,0.447496,1.043832,0.420000,0.560000,-2.380000
13.684050,0.059048,0.306464,0.751032,-3.500000,-5.040000,-0.560000
13.688116,-0.064904,0.609512,0.990152,2.660000,1.400000,-1.120000
13.692182,0.034160,0.288408,0.985272,-0.700000,-0.420000,-1.680000
13.696248,0.041480,0.396744,0.736392,-0.700000,-2.660000,0.280000
13.700314,-0.123464,0.534848,1.133136,4.480000,2.380000,-1.680000
13.704380,0.089304,0.280112,0.788608,-1.960000,-2.660000,-0.420000
13.708446,-0.043432,0.579744,0.799832,-0.980000,-1.120000,1.400000
13.712512,-0.039040,0.506544,0.954040,-0.840000,1.680000,-0.560000
13.716578,0.083936,0.296704,0.782264,-6.580000,-2.660000,0.280000
13.720644,-0.043920,0.584136,1.028216,1.120000,1.820000,-0.420000
13.724710,0.019520,0.306952,1.033096,-1.120000,1.680000,-1.680000
13.728776,0.093208,0.380152,0.737856,-1.820000,-4.480000,0.700000
13.732842,-0.100528,0.496296,1.094584,4.620000,1.540000,-2.100000
13.736908,0.067832,0.305488,0.991616,0.420000,-1.960000,-2.100000
13.740974,0.038064,0.458720,0.687104,0.280000,-1.540000,0.980000
13.745040,-0.111752,0.562176,1.014552,0.560000,3.360000,-1.960000
13.749106,0.098088,0.308416,0.671976,-4.060000,-4.060000,0.840000
13.753172,-0.101504,0.633912,0.952576,-2.100000,3.500000,0.000000
13.757238,0.056120,0.357216,1.027240,-0.980000,1.260000,-1.120000
13.761304,0.022936,0.298656,0.768112,-4.060000,-3.360000,0.280000
13.765370,-0.080032,0.573888,1.093120,3.080000,1.260000,-0.840000
13.769436,0.022448,0.264984,0.943792,-1.260000,-0.140000,-1.820000
13.773502,0.106872,0.462624,0.793488,-0.140000,-3.360000,1.960000
13.777568,-0.181048,0.549976,0.915976,1.260000,2.520000,-1.260000
13.781634,0.129808,0.319640,0.829600,-4.900000,-3.220000,-0.700000
13.785700,-0.006344,0.544120,0.923784,-1.820000,0.140000,1.120000
13.789765,-0.038064,0.427488,1.088240,0.140000,4.760000,-0.980000
13.793831,0.096624,0.258640,0.707112,-3.080000,-3.220000,0.000000
13.797897,-0.096624,0.601704,1.040416,1.680000,1.120000,-0.420000
13.801963,-0.018544,0.357216,0.940864,-0.420000,-0.280000,-1.400000
13.806029,0.083448,0.392352,0.750056,-2.380000,-3.920000,1.120000
13.810095,-0.102968,0.581208,0.954040,0.980000,1.960000,-1.120000
13.814161,0.050752,0.246440,0.854976,-3.080000,-2.940000,-0.700000
13.818227,0.046848,0.506544,0.882792,-1.820000,-0.700000,0.420000
13.822293,-0.047824,0.484584,1.101416,0.840000,2.800000,-1.540000
13.826359,0.098088,0.258152,0.751032,-3.640000,-4.060000,0.420000
13.830425,-0.077104,0.585600,1.040904,3.080000,0.280000,-0.420000
13.834491,-0.039040,0.361120,0.891576,0.280000,1.400000,-2.240000
13.838557,0.083936,0.426512,0.706624,-3.780000,-5.880000,1.260000
13.842623,-0.072224,0.592432,1.037488,0.280000,0.840000,-0.700000
13.846689,0.071248,0.243024,0.870104,-2.800000,-0.980000,-1.540000
13.850755,-0.004392,0.502152,0.862296,-2.380000,0.420000,0.560000
13.854821,-0.054168,0.478240,1.080920,1.400000,2.520000,-1.120000
13.858887,0.090768,0.239608,0.782264,-3.780000,-3.360000,-0.700000
13.862953,-0.040992,0.589992,0.987224,1.820000,-1.260000,0.140000
13.867019,-0.079544,0.386496,0.872056,-0.560000,1.120000,-2.100000
13.871085,0.116632,0.420168,0.778848,-4.480000,-4.480000,0.420000
13.875151,-0.085888,0.601704,0.959408,-0.840000,2.100000,-0.560000
13.879217,0.029768,0.273280,0.849120,-3.220000,-0.700000,-1.540000
13.883283,0.052216,0.427488,0.875472,-3.220000,-2.100000,0.420000
13.887349,-0.084424,0.522160,1.095072,-0.840000,2.800000,-1.540000
13.891415,0.082472,0.249368,0.857904,-3.220000,-4.480000,-0.560000
13.895481,-0.029768,0.516792,0.971608,1.260000,-1.400000,0.420000
13.899547,-0.105896,0.415288,0.902312,-0.140000,2.660000,-2.240000
13.903613,0.139080,0.393328,0.713456,-4.620000,-6.020000,0.980000
13.907679,-0.047824,0.626592,0.976488,-1.960000,-0.420000,-0.560000
13.911745,0.011712,0.299632,0.881816,-2.800000,1.260000,-1.960000
13.915811,0.070272,0.411872,0.867664,-3.360000,-1.820000,0.840000
13.919877,-0.099064,0.520208,1.085800,0.560000,3.640000,-0.140000
13.923943,0.013664,0.274256,0.730048,-4.760000,-1.540000,-0.980000
13.928009,0.067344,0.553880,0.961848,-2.380000,-3.780000,0.840000
13.932075,-0.066368,0.442616,1.037488,-1.680000,2.100000,-2.800000
13.936141,0.068320,0.288896,0.807640,-3.780000,-2.800000,-0.280000
13.940207,0.000000,0.556808,0.984784,0.140000,0.840000,0.420000
13.944273,-0.078080,0.344528,0.980392,-1.400000,0.980000,-2.100000
13.948339,0.092232,0.368928,0.778848,-1.820000,-4.200000,0.420000
13.952405,-0.066368,0.596824,0.942816,-0.280000,2.240000,0.280000
13.956471,-0.028304,0.327936,0.874008,-3.640000,0.140000,-1.820000
13.960537,0.096136,0.429440,0.834968,-2.800000,-3.220000,0.980000
13.964603,-0.099064,0.507520,1.106296,0.280000,3.500000,-0.980000
13.968669,0.091744,0.220576,0.828136,-2.800000,-0.980000,-0.700000
13.972735,0.021472,0.522160,0.993568,1.260000,-1.120000,1.680000
13.976801,-0.113216,0.461160,0.963312,0.140000,2.660000,-1.540000
13.980867,0.110288,0.353800,0.762744,-2.660000,-4.200000,-0.560000
13.984933,-0.001464,0.569984,1.037976,0.980000,0.420000,0.840000
13.988999,-0.062464,0.344528,0.899872,-0.140000,2.800000,-1.680000
13.993065,0.066856,0.348920,0.777384,-0.700000,-2.800000,0.280000
13.997131,-0.048312,0.568520,1.062376,1.540000,3.080000,0.140000
14.001197,-0.026352,0.302072,0.759816,-1.960000,-0.980000,-1.680000
14.005263,0.085400,0.509960,0.853024,-1.400000,-3.500000,0.700000
14.009329,-0.092720,0.497272,1.030168,-0.980000,1.820000,-1.400000
14.013395,0.079544,0.285968,0.697352,-4.200000,-3.920000,-0.420000
14.017461,-0.027816,0.598776,1.035536,-0.140000,-0.560000,0.140000
14.021527,-0.021472,0.330376,0.875960,-2.240000,0.560000,-2.240000
14.025593,0.091256,0.384544,0.885232,-1.400000,-5.460000,0.280000
14.029659,-0.085888,0.521672,1.110200,2.240000,2.100000,-0.840000
14.033725,-0.027328,0.286456,0.790560,-2.520000,0.000000,-1.820000
14.037791,0.074664,0.481168,0.826672,-1.680000,-4.900000,1.820000
14.041857,-0.042456,0.551440,1.078968,-1.540000,1.260000,-1.120000
14.045923,0.058560,0.238632,0.750544,-4.060000,-0.700000,-0.840000
14.049989,0.001952,0.567056,1.080432,0.700000,3.080000,0.840000
14.054055,-0.045872,0.366488,0.930616,-0.980000,3.500000,-0.840000
14.058121,0.046848,0.340624,0.756400,-1.820000,-3.920000,0.140000
14.062187,-0.048312,0.603656,1.040904,1.820000,0.140000,0.280000
14.066253,0.000000,0.307928,0.849120,-2.800000,0.140000,-2.660000
14.070319,0.061488,0.433832,0.878888,0.280000,-3.080000,0.280000
14.074385,-0.045384,0.461160,1.044808,1.680000,2.800000,-0.420000
14.078451,0.029768,0.290848,0.726144,-2.940000,-1.400000,-0.840000
14.082517,0.008784,0.564128,1.035536,1.540000,-0.700000,0.420000
14.086583,-0.062952,0.451400,1.001376,0.840000,2.380000,-0.700000
14.090649,0.028304,0.300120,0.614392,-3.220000,-3.220000,0.560000
14.094715,-0.015128,0.636840,1.068232,0.280000,0.840000,0.280000
14.098781,0.021472,0.274744,0.860832,-3.500000,-2.100000,-1.540000
14.102847,0.060512,0.443592,0.887672,-0.980000,-2.380000,0.140000
14.106913,-0.023424,0.499224,1.112640,1.680000,4.060000,-0.700000
14.110979,0.013176,0.229848,0.734440,-2.660000,-1.820000,-0.980000
14.115045,0.007320,0.557784,0.976488,2.240000,-3.080000,0.140000
14.119111,-0.064904,0.487024,0.906216,-0.560000,1.680000,-1.260000
14.123177,-0.001952,0.345504,0.662216,-5.040000,-3.360000,-0.280000
14.127243,0.038552,0.592920,1.153632,0.560000,-0.140000,0.000000
14.131309,-0.013664,0.254248,0.775920,-2.660000,0.980000,-0.420000
14.135375,0.045384,0.415288,0.835944,-1.540000,-0.700000,0.000000
14.139441,-0.050752,0.586576,1.223416,1.540000,1.960000,-0.280000
14.143507,0.001464,0.216672,0.625128,-4.340000,-2.380000,0.140000
14.147573,0.064416,0.572912,0.978440,-0.280000,-1.960000,-0.140000
14.151639,-0.037576,0.441640,1.100440,-1.260000,0.840000,-1.540000
14.155705,0.027816,0.275720,0.703696,-2.800000,-1.400000,0.000000
14.159771,-0.040016,0.559736,1.125816,3.500000,2.380000,0.280000
14.163837,-0.020496,0.318176,0.860344,-1.540000,0.700000,-0.280000
14.167903,0.035624,0.428952,0.687104,-2.520000,-3.640000,1.260000
14.171969,-0.022448,0.602680,1.131672,1.680000,1.540000,-1.540000
14.176035,0.088816,0.245952,0.756888,-4.480000,-1.960000,-1.120000
14.180101,-0.042944,0.506056,0.875472,0.280000,-0.420000,0.000000
14.184167,0.011224,0.457744,1.125816,0.560000,0.980000,-1.260000
14.188233,0.006832,0.247904,0.646600,-4.200000,-2.940000,0.280000
14.192299,-0.042456,0.627568,1.154120,4.620000,1.540000,-0.560000
14.196365,-0.031232,0.338184,0.919880,-0.700000,-0.140000,-0.840000
14.200431,0.038552,0.399184,0.647088,-4.480000,-3.360000,0.980000
14.204497,0.005856,0.577792,1.155584,1.680000,-0.560000,-0.700000
14.208563,0.065880,0.210328,0.789584,-3.500000,-1.820000,-1.680000
14.212629,-0.030256,0.509472,0.921344,1.680000,2.240000,0.140000
14.216695,-0.044408,0.470920,1.108736,2.520000,3.920000,-0.420000
14.220761,0.053680,0.298656,0.637816,-4.620000,-4.480000,1.540000
14.224827,-0.051728,0.608048,0.961848,1.260000,-0.700000,-0.560000
14.228893,0.065392,0.355752,1.056520,-0.700000,-0.280000,-2.940000
14.232959,0.020008,0.370880,0.662704,-3.080000,-2.660000,0.420000
14.237025,-0.079544,0.568032,1.152656,3.640000,4.200000,-0.980000
14.241091,0.062952,0.237656,0.821792,-2.940000,-2.520000,-0.560000
14.245157,0.000000,0.475800,0.873032,0.140000,-2.240000,0.140000
14.249223,-0.067832,0.517768,1.095072,4.340000,2.100000,-1.260000
14.253289,0.037576,0.263032,0.651480,-4.760000,-3.080000,-0.140000
14.257355,-0.020496,0.638792,0.893528,-0.420000,-1.120000,0.420000
14.261421,0.055632,0.375760,1.064328,-1.400000,-0.560000,-1.120000
14.265487,-0.013176,0.342088,0.691984,-3.780000,-1.820000,0.140000
14.269553,-0.042944,0.559736,1.116056,3.640000,4.060000,-0.980000
14.273619,0.047824,0.297680,0.919392,-2.240000,-0.280000,-0.980000
14.277685,0.000000,0.452864,0.693448,-1.540000,-5.040000,0.980000
14.281751,-0.054168,0.529480,1.081896,0.700000,1.260000,-1.820000
14.285817,0.103456,0.260592,0.827648,-5.040000,-2.800000,-0.840000
14.289883,-0.034648,0.543632,0.935008,1.120000,-0.140000,-0.140000
14.293949,-0.024888,0.392352,1.131184,0.980000,2.380000,-1.680000
14.298015,0.093208,0.292312,0.705160,-2.520000,-3.640000,0.560000
14.302080,-0.122976,0.596336,0.906216,2.380000,1.820000,0.280000
14.306146,0.034160,0.389912,0.952088,-2.100000,-0.280000,-1.680000
14.310212,0.007320,0.418216,0.683200,-4.200000,-3.500000,0.560000
14.314278,-0.056120,0.556320,1.169736,1.680000,3.080000,-0.980000
14.318344,0.114192,0.216672,0.854488,-3.920000,-1.120000,-0.560000
14.322410,-0.037088,0.465552,0.868640,0.700000,-1.400000,0.140000
14.326476,-0.078080,0.485072,1.084336,2.940000,2.940000,-0.980000
14.330542,0.118584,0.320128,0.731024,-5.040000,-3.780000,0.700000
14.334608,-0.041968,0.595360,0.948672,1.260000,-0.700000,-0.420000
14.338674,0.004392,0.344528,1.048712,0.840000,0.700000,-2.100000
14.342740,0.049776,0.311344,0.732488,-2.940000,-1.960000,0.280000
14.346806,-0.102968,0.608536,1.078968,3.640000,3.080000,-0.280000
14.350872,0.055144,0.282064,0.870592,-1.540000,-1.820000,-0.140000
14.354938,0.027816,0.478240,0.711016,-1.820000,-3.360000,0.560000
14.359004,-0.082960,0.529480,1.105808,1.960000,2.240000,-1.680000
14.363070,0.112728,0.245464,0.689544,-5.180000,-2.380000,0.420000
14.367136,-0.096136,0.626104,0.993568,0.280000,0.700000,0.140000
14.371202,0.054168,0.368440,1.010160,0.700000,-0.420000,-2.240000
14.375268,0.043920,0.316224,0.778848,-4.340000,-3.920000,0.140000
14.379334,-0.089304,0.569496,1.107760,4.060000,2.380000,-0.700000
14.383400,0.048312,0.243512,0.914024,-0.280000,-0.140000,-0.700000
14.387466,0.033184,0.486536,0.705160,-1.960000,-2.660000,1.400000
14.391532,-0.113704,0.576328,0.993568,0.000000,1.960000,-1.260000
14.395598,0.153720,0.236192,0.852048,-4.900000,-2.660000,-0.700000
14.399664,-0.063928,0.589992,0.961360,0.420000,1.820000,0.420000
14.403730,-0.006832,0.356728,1.037000,0.560000,3.220000,-1.120000
14.407796,0.102968,0.321104,0.779336,-1.960000,-3.640000,0.560000
14.411862,-0.130296,0.606096,0.927688,2.800000,1.680000,-0.420000
14.415928,0.016592,0.325008,0.897432,-2.660000,-1.400000,-1.680000
14.419994,0.072224,0.430904,0.828136,-2.520000,-3.780000,0.560000
14.424060,-0.069296,0.531920,1.074088,1.820000,2.380000,-1.680000
14.428126,0.052704,0.238144,0.733952,-3.080000,-2.660000,-0.420000
14.432192,-0.036600,0.564128,0.881328,0.000000,-1.120000,0.140000
14.436258,-0.016104,0.423584,1.103856,1.120000,1.540000,-1.400000
14.440324,0.099552,0.291336,0.786168,-2.660000,-3.780000,0.560000
14.444390,-0.125904,0.594872,0.980880,2.240000,1.820000,0.280000
14.448456,0.025376,0.335744,0.845216,-3.640000,-0.420000,-0.980000
14.452522,0.081984,0.450912,0.858392,-3.780000,-3.640000,0.140000
14.456588,-0.023912,0.521184,1.064328,1.540000,1.120000,-1.820000
14.460654,0.054168,0.221552,0.805688,-2.800000,-0.700000,-1.120000
14.464720,0.043920,0.523136,0.869616,0.560000,-0.560000,0.700000
14.468786,-0.148352,0.440176,1.082384,1.680000,3.500000,-1.960000
14.472852,0.101992,0.337696,0.736880,-3.080000,-4.200000,0.140000
14.476918,-0.053192,0.614392,0.917440,-0.280000,-0.840000,0.420000
14.480984,-0.023912,0.366488,0.976000,-2.380000,0.280000,-2.520000
14.485050,0.057584,0.350384,0.764696,-3.360000,-4.200000,0.420000
14.489116,-0.055144,0.545096,1.087752,0.280000,3.640000,-0.420000
14.493182,0.040504,0.244488,0.850584,-2.660000,-0.140000,-0.420000
14.497248,0.072224,0.459208,0.916464,-0.140000,-2.520000,0.980000
14.501314,-0.136152,0.520696,1.026752,2.660000,2.940000,-0.980000
14.505380,0.070272,0.279624,0.763232,-3.080000,-2.520000,-1.120000
14.509446,0.066856,0.589504,0.977464,-0.700000,-3.080000,0.840000
14.513512,-0.074176,0.389912,1.034560,-0.280000,2.380000,-2.240000
14.517578,0.073688,0.276208,0.775920,-0.980000,-1.680000,0.420000
14.521644,-0.078568,0.561688,1.037488,2.380000,4.340000,1.400000
14.525710,-0.056120,0.364536,0.842776,-0.980000,1.820000,-0.280000
14.529776,0.123464,0.422120,0.823744,-1.120000,-4.620000,0.280000
14.533842,-0.071736,0.568520,1.044808,2.100000,1.400000,-1.120000
14.537908,0.036112,0.238144,0.828136,-0.560000,-1.120000,-1.960000
14.541974,0.067832,0.463600,0.935984,1.820000,-1.400000,0.700000
14.546040,-0.116144,0.471896,0.994056,2.520000,2.800000,-0.980000
14.550106,0.061000,0.324032,0.732976,-1.260000,-3.220000,0.000000
14.554172,-0.012688,0.626104,1.017480,0.840000,-0.840000,0.840000
14.558238,0.003904,0.350384,0.873520,-1.540000,0.980000,-1.260000
14.562304,0.036600,0.375272,0.738832,-2.380000,-3.640000,-0.280000
14.566370,-0.052704,0.586576,1.139968,1.540000,1.540000,-0.980000
14.570436,0.026352,0.203984,0.718336,-2.800000,-1.120000,-1.120000
14.574502,0.047824,0.523624,1.032120,1.260000,-1.960000,0.000000
14.578568,-0.084424,0.429440,1.044320,3.360000,2.240000,-0.700000
14.582634,0.040016,0.288408,0.735416,-2.240000,-0.840000,-0.700000
14.586700,0.005856,0.625128,0.976488,1.820000,-2.100000,1.680000
14.590766,-0.028304,0.366488,0.917440,-2.380000,0.560000,-2.100000
14.594832,0.073200,0.366000,0.849120,-0.420000,-3.080000,0.000000
14.598898,-0.032696,0.506544,1.106296,3.360000,4.620000,0.140000
14.602964,-0.024888,0.242048,0.749080,-1.680000,1.260000,-0.420000
14.607030,0.047824,0.561688,0.840336,0.420000,-2.940000,1.680000
14.611096,-0.061488,0.546072,1.000888,0.280000,0.700000,-1.680000
14.615162,0.066368,0.286944,0.722240,-3.640000,-2.660000,-1.540000
14.619228,0.004392,0.529480,1.096048,1.540000,0.140000,-0.280000
14.623294,-0.022936,0.372344,0.925736,-0.140000,2.520000,-1.120000
14.627360,0.036600,0.302560,0.845704,-1.680000,-1.960000,-0.280000
14.631426,-0.039528,0.610976,1.074576,4.200000,0.000000,0.560000
14.635492,-0.073688,0.297192,0.751032,-1.680000,1.960000,-1.400000
14.639558,0.100528,0.446520,0.829112,-0.420000,-5.460000,0.700000
14.643624,-0.042944,0.523624,1.083360,1.260000,0.280000,-0.700000
14.647690,0.035136,0.238632,0.793488,-1.400000,-0.980000,-0.980000
14.651756,0.037576,0.545584,0.953064,2.800000,0.280000,1.120000
14.655822,-0.098576,0.464576,0.940864,0.280000,4.340000,-0.280000
14.659888,0.052704,0.343064,0.662704,-3.220000,-4.200000,0.000000
14.663954,0.021472,0.618296,1.154608,0.980000,-1.400000,-0.700000
14.668020,-0.001952,0.311344,0.891088,-0.560000,0.700000,-2.240000
14.672086,0.012688,0.331352,0.755424,-0.280000,-2.660000,-0.420000
14.676152,-0.027328,0.571448,1.146312,2.660000,1.120000,-0.280000
14.680218,0.009760,0.256200,0.831064,-1.260000,-0.700000,-1.120000
14.684284,0.048312,0.486048,0.915000,3.920000,-3.220000,0.700000
14.688350,-0.085888,0.509960,1.008208,2.240000,3.080000,-1.120000
14.692416,0.035624,0.300608,0.627568,-3.640000,-2.100000,0.140000
14.696482,0.015616,0.601704,1.084824,1.260000,-1.400000,0.560000
14.700548,0.034648,0.362584,0.977952,0.000000,1.820000,-0.980000
14.704614,0.004880,0.316712,0.720288,-1.260000,0.420000,-0.420000
14.708680,-0.041480,0.608048,1.151680,4.480000,1.960000,0.000000
14.712746,-0.051240,0.277184,0.722728,-1.820000,0.560000,-0.980000
14.716812,0.084424,0.465552,0.818864,-0.420000,-3.780000,0.700000
14.720878,-0.038552,0.538264,1.096048,1.400000,1.120000,-1.120000
14.724944,0.033672,0.272304,0.704672,-3.640000,-2.100000,-1.260000
14.729010,0.026352,0.557296,1.031144,1.680000,0.560000,0.560000
14.733076,-0.016592,0.406016,0.918416,-0.840000,2.100000,-0.980000
14.737142,-0.009272,0.336232,0.676368,-1.680000,-3.920000,-0.560000
14.741208,-0.006832,0.578280,1.166320,2.240000,0.000000,-0.420000
14.745273,-0.042944,0.332328,0.926224,-0.980000,1.260000,-0.980000
14.749339,0.050752,0.371856,0.729560,0.140000,-3.220000,0.700000
14.753405,-0.051240,0.576816,1.061888,1.120000,-0.140000,0.280000
14.757471,0.003904,0.276696,0.720288,-4.060000,-1.960000,-1.540000
14.761537,0.057584,0.534848,1.034560,0.560000,-1.680000,0.000000
14.765603,0.005856,0.445544,1.119472,0.980000,3.080000,-0.700000
14.769669,0.038552,0.250344,0.631472,-2.520000,-2.660000,-0.420000
14.773735,-0.006344,0.579256,1.073600,3.500000,-0.140000,-0.280000
14.777801,-0.062464,0.370392,0.916464,-0.280000,0.980000,-0.840000
14.781867,0.033184,0.412848,0.667584,-1.120000,-2.660000,0.000000
14.785933,-0.011224,0.630984,1.023336,0.700000,0.840000,0.140000
14.789999,-0.033672,0.277672,0.730048,-5.040000,-1.400000,-1.820000
14.794065,0.080032,0.464576,0.916952,-1.820000,-3.640000,-0.420000
14.798131,-0.025376,0.498736,1.206824,-0.280000,2.800000,-0.980000
14.802197,0.007808,0.223016,0.642696,-3.920000,-1.820000,-0.840000
14.806263,0.054656,0.531920,1.061400,1.960000,-2.100000,0.420000
14.810329,-0.098088,0.428952,1.063840,-0.140000,2.940000,-1.260000
14.814395,0.049776,0.343552,0.658800,-2.100000,-2.940000,-0.700000
14.818461,0.021960,0.557296,0.997472,0.420000,-2.240000,0.560000
14.822527,-0.040016,0.386496,1.008696,-1.540000,1.400000,-1.820000
14.826593,0.035624,0.332328,0.724680,0.140000,-0.420000,0.420000
14.830659,-0.053192,0.577304,1.131672,1.820000,3.920000,0.560000
14.834725,-0.021472,0.315736,0.764208,-2.800000,-0.140000,0.280000
14.838791,0.080520,0.462136,0.787632,-0.980000,-4.480000,-0.280000
14.842857,-0.010736,0.543632,1.224880,1.400000,1.820000,-1.400000
14.846923,0.030256,0.239608,0.726144,-1.820000,-0.420000,-1.120000
14.850989,0.033672,0.484096,0.953064,2.940000,-0.700000,0.000000
14.855055,-0.045872,0.429440,1.059936,0.700000,2.520000,-0.840000
14.859121,0.032696,0.325496,0.659288,-1.120000,-2.100000,0.000000
14.863187,-0.050264,0.619760,1.038952,1.960000,0.840000,0.560000
14.867253,-0.043432,0.384544,0.819840,-2.380000,1.120000,-1.260000
14.871319,0.030744,0.389912,0.742248,-1.540000,-4.200000,0.000000
14.875385,-0.007320,0.558760,1.173640,1.540000,1.400000,-0.560000
14.879451,0.026840,0.242536,0.731512,-3.080000,-1.260000,-0.980000
14.883517,0.031232,0.500688,0.930128,1.540000,-2.100000,0.280000
14.887583,-0.037576,0.478728,1.185840,2.240000,2.240000,-0.840000
14.891649,0.030256,0.261568,0.646112,-2.240000,-1.960000,-0.280000
14.895715,-0.025864,0.578280,1.047248,2.520000,0.000000,0.700000
14.899781,0.004392,0.408456,0.890112,-2.240000,0.700000,-0.840000
14.903847,0.022936,0.365024,0.680760,-2.800000,-3.220000,-0.420000
14.907913,0.014640,0.596336,1.144848,2.100000,2.380000,-0.140000
14.911979,-0.023424,0.242536,0.804712,-2.660000,0.840000,-0.700000
14.916045,0.053192,0.449448,0.850584,1.400000,-2.240000,0.280000
14.920111,-0.074176,0.552904,1.187792,2.940000,2.520000,-0.700000
14.924177,0.048312,0.258152,0.671000,-3.500000,-2.240000,-0.560000
14.928243,0.000000,0.570960,0.930128,1.260000,-1.820000,0.280000
14.932309,-0.000976,0.417728,1.062864,-0.700000,1.680000,-1.680000
14.936375,0.012688,0.313784,0.606584,-2.100000,-3.360000,-0.280000
14.940441,-0.035136,0.582672,1.148752,3.220000,1.680000,-0.560000
14.944507,-0.016592,0.326472,0.847168,-1.540000,1.400000,-0.280000
14.948573,0.011224,0.394792,0.765184,0.000000,-3.780000,0.140000
14.952639,-0.020008,0.601216,1.082872,2.380000,-0.420000,-0.420000
14.956705,0.029280,0.276696,0.741760,-4.900000,-2.660000,-0.560000
14.960771,0.034648,0.518256,0.930616,0.000000,-1.260000,0.140000
14.964837,-0.013176,0.451888,1.121424,0.980000,2.940000,-1.120000
14.968903,0.062464,0.240584,0.656360,-3.780000,-1.820000,0.000000
14.972969,-0.060512,0.593896,1.112152,2.380000,1.260000,-0.140000
14.977035,0.019520,0.384056,1.019920,0.280000,0.280000,-1.260000
14.981101,0.024888,0.334768,0.640744,-0.700000,-3.920000,0.000000
14.985167,-0.060024,0.595360,1.015528,2.380000,0.140000,-1.120000
14.989233,0.033672,0.313784,0.840824,-3.360000,-0.560000,-0.840000
14.993299,-0.012688,0.477264,0.804712,-1.680000,-0.700000,0.560000
14.997365,0.008784,0.528016,1.255624,2.380000,3.500000,-0.420000
15.001431,0.029280,0.201544,0.603656,-3.500000,-1.400000,0.000000
15.005497,-0.037576,0.555832,1.011624,3.080000,-0.560000,0.280000
15.009563,-0.017080,0.452864,1.017480,0.000000,0.980000,-0.700000
15.013629,0.072712,0.335744,0.707600,-3.640000,-3.220000,0.140000
15.017695,-0.039040,0.603168,1.034072,3.500000,0.560000,-0.700000
15.021761,0.019520,0.288408,0.979904,-0.980000,0.560000,-1.540000
15.025827,0.009760,0.390400,0.687104,-0.980000,-0.980000,0.560000
15.029893,-0.029280,0.568520,1.195600,3.640000,2.380000,-0.560000
15.033959,0.029280,0.282064,0.692960,-2.660000,-1.820000,-0.140000
15.038025,-0.039528,0.519232,0.826672,0.140000,0.000000,0.700000
15.042091,0.007320,0.507032,1.123376,-0.140000,1.680000,-0.280000
15.046157,0.044896,0.269376,0.654408,-5.040000,-2.800000,-0.560000
15.050223,-0.025376,0.587064,1.096048,3.360000,0.140000,-0.980000
15.054289,0.003904,0.336720,1.026264,-0.840000,1.680000,-1.540000
15.058355,0.042456,0.325496,0.727120,0.000000,-2.520000,0.840000
15.062421,-0.066856,0.565104,1.050176,4.760000,1.680000,0.000000
15.066487,0.017080,0.376736,0.770552,-3.360000,-1.120000,-0.980000
15.070553,-0.006344,0.500200,0.707112,-1.120000,-2.660000,0.280000
15.074619,0.010736,0.525088,1.221952,0.700000,1.960000,-1.540000
15.078685,0.067832,0.198616,0.653920,-4.480000,-2.100000,0.000000
15.082751,-0.071736,0.576816,1.020408,1.820000,2.100000,-0.140000
15.086817,0.032208,0.373320,1.140456,0.420000,0.980000,-1.260000
15.090883,0.050264,0.316224,0.703208,-1.400000,-3.920000,0.420000
15.094949,-0.091256,0.602192,0.996496,6.300000,1.120000,-0.700000
15.099015,-0.031232,0.350872,0.892064,-2.380000,0.000000,-1.960000
15.103081,0.069296,0.422120,0.708576,-1.820000,-4.620000,1.120000
15.107147,-0.013664,0.560712,1.196088,2.520000,2.660000,-0.420000
15.111213,0.076616,0.229360,0.720776,-2.940000,0.000000,-0.140000
15.115279,-0.077592,0.556320,0.874984,1.400000,0.980000,0.420000
15.119345,0.005856,0.431392,1.147288,2.940000,1.120000,-0.980000
15.123411,0.046360,0.292312,0.624640,-3.640000,-3.360000,0.840000
15.127477,-0.070272,0.664168,1.032608,2.940000,0.840000,-0.560000
15.131543,0.062464,0.325984,0.953064,-1.820000,-1.960000,-1.680000
15.135609,0.020496,0.393816,0.729560,-2.520000,-2.100000,0.000000
15.139675,-0.031232,0.550464,1.158024,3.500000,4.060000,-0.560000
15.143741,0.049288,0.205936,0.787632,-2.800000,-1.260000,-0.420000
15.147807,-0.038064,0.508984,0.885232,2.800000,-1.120000,0.280000
15.151873,-0.069296,0.490928,1.138016,3.920000,2.800000,-1.400000
15.155939,0.096624,0.310368,0.595360,-2.800000,-4.340000,1.400000
15.160005,-0.080032,0.643184,0.971608,1.680000,-0.420000,-0.420000
15.164071,0.063928,0.336232,0.995520,-0.700000,-1.820000,-2.380000
15.168137,-0.004880,0.380640,0.689544,-2.240000,-1.540000,-0.140000
15.172203,-0.042456,0.572424,1.166808,2.520000,4.340000,-0.140000
15.176269,0.087352,0.235704,0.807152,-3.080000,-1.820000,-0.140000
15.180334,0.001464,0.507520,0.866688,1.820000,-3.080000,-0.140000
15.184400,-0.084912,0.479216,1.107760,3.640000,2.800000,-2.100000
15.188466,0.070760,0.299632,0.673440,-4.340000,-3.500000,-0.280000
15.192532,-0.046848,0.620736,0.948184,1.120000,-1.260000,0.280000
15.196598,0.019520,0.354288,0.986248,-2.100000,0.420000,-1.260000
15.200664,0.046848,0.385520,0.706624,-2.240000,-1.540000,0.000000
15.204730,-0.087352,0.559736,1.138016,3.360000,4.340000,-0.980000
15.208796,0.067344,0.258152,0.875472,-1.820000,-0.840000,-0.140000
15.212862,-0.030744,0.473848,0.778360,1.260000,-3.220000,0.840000
15.216928,-0.071248,0.501176,1.049200,2.240000,1.680000,-1.680000
15.220994,0.110776,0.317688,0.788608,-3.780000,-4.760000,-0.700000
15.225060,-0.025864,0.595360,0.933544,1.820000,-0.560000,0.280000
15.229126,-0.017568,0.380640,1.048224,1.540000,3.500000,-1.540000
15.233192,0.059536,0.307440,0.688568,-2.940000,-3.080000,0.980000
15.237258,-0.083448,0.595848,1.095560,4.620000,1.820000,-0.700000
15.241324,0.046360,0.297192,0.953552,0.560000,-0.420000,-1.540000
15.245390,0.036112,0.438224,0.715408,-0.420000,-4.200000,0.980000
15.249456,-0.091256,0.572912,1.003328,2.660000,1.260000,-1.820000
15.253522,0.109800,0.251320,0.838872,-2.940000,-3.500000,-0.980000
15.257588,-0.041480,0.574864,0.863760,0.560000,0.280000,0.000000
15.261654,-0.035136,0.425536,1.117032,2.240000,3.780000,-0.980000
15.265720,0.096624,0.312808,0.738344,-3.080000,-3.220000,0.700000
15.269786,-0.097112,0.570960,0.977464,4.480000,0.000000,-0.280000
15.273852,0.000000,0.348432,0.983808,0.840000,0.560000,-2.240000
15.277918,0.085888,0.412360,0.721752,-1.540000,-3.360000,1.120000
15.281984,-0.109800,0.579744,1.006256,2.240000,3.080000,-1.260000
15.286050,0.061488,0.248880,0.892552,-1.120000,-2.380000,-0.560000
15.290116,0.016104,0.468968,0.786168,-0.420000,-0.560000,0.280000
15.294182,-0.049288,0.528992,1.144360,2.940000,2.940000,-1.400000
15.298248,0.105896,0.249856,0.805688,-1.260000,-4.200000,-0.280000
15.302314,-0.041968,0.570960,0.925736,4.200000,-1.400000,0.140000
15.306380,-0.082472,0.419680,0.949648,1.260000,2.800000,-2.100000
15.310446,0.091744,0.391376,0.725656,-3.500000,-3.920000,1.680000
15.314512,-0.036600,0.610000,1.018456,1.680000,1.960000,-0.420000
15.318578,0.036600,0.256688,0.940376,-0.700000,1.120000,-1.400000
15.322644,0.033672,0.418704,0.752008,-0.420000,-1.120000,0.560000
15.326710,-0.087352,0.515816,1.170712,3.500000,3.640000,-1.260000
15.330776,0.078568,0.277184,0.858392,0.000000,-2.240000,-0.560000
15.334842,-0.020496,0.539728,0.757864,2.940000,-1.820000,0.980000
15.338908,-0.054168,0.485560,1.037000,1.820000,1.400000,-2.380000
15.342974,0.085888,0.345992,0.744200,-2.100000,-3.920000,0.560000
15.347040,-0.086864,0.606096,0.955992,3.220000,2.240000,0.000000
15.351106,0.043432,0.326472,0.953064,0.140000,1.400000,-0.700000
15.355172,0.041968,0.368440,0.782264,-2.380000,-2.660000,1.120000
15.359238,-0.090768,0.575352,1.145824,4.340000,3.080000,-0.980000
15.363304,0.076616,0.215208,0.854976,-1.260000,-0.560000,-1.400000
15.367370,0.021472,0.528504,0.802760,1.400000,-2.380000,1.820000
15.371436,-0.103456,0.490928,1.001376,2.940000,2.800000,-1.680000
15.375502,0.116632,0.337208,0.799832,-1.820000,-3.920000,-0.420000
15.379568,-0.050264,0.590968,0.950136,3.500000,1.120000,0.280000
15.383634,-0.016104,0.371368,0.988200,2.100000,2.520000,-1.120000
15.387700,0.054168,0.330376,0.758352,-0.980000,-3.080000,0.420000
15.391766,-0.084424,0.618784,1.001376,3.360000,0.980000,-0.280000
15.395832,0.061976,0.309392,0.842288,-1.680000,-1.120000,-1.260000
15.399898,-0.006344,0.494832,0.733952,-1.400000,-1.820000,0.980000
15.403964,-0.062952,0.501176,1.108736,2.520000,3.500000,-1.820000
15.408030,0.118584,0.246440,0.760792,-2.240000,-4.340000,-0.140000
15.412096,-0.076128,0.611952,0.946720,1.540000,-0.980000,-0.140000
15.416162,-0.024400,0.409920,1.041392,2.380000,2.520000,-1.960000
15.420228,0.106872,0.321104,0.779336,-0.560000,-4.900000,0.140000
15.424294,-0.078568,0.556808,0.991616,4.060000,0.840000,0.420000
15.428360,-0.036112,0.352336,0.875472,-0.980000,0.560000,-1.820000
15.432426,0.088816,0.453840,0.823744,-1.680000,-5.040000,0.980000
15.436492,-0.065392,0.548512,1.008696,1.260000,2.800000,-1.260000
15.440558,0.077592,0.248392,0.857416,-1.540000,-0.420000,-0.700000
15.444624,0.011224,0.530456,0.856440,1.680000,-0.560000,0.700000
15.448690,-0.098088,0.447008,1.105320,1.540000,2.800000,-2.100000
15.452756,0.145424,0.310856,0.804224,0.420000,-5.460000,-0.420000
15.456822,-0.068320,0.581696,0.916952,4.480000,-0.700000,0.140000
15.460888,-0.085888,0.419192,0.851072,-0.560000,2.660000,-2.800000
15.464954,0.090768,0.414312,0.816912,-2.380000,-4.620000,0.980000
15.469020,-0.037088,0.590968,1.039440,0.840000,2.520000,-0.280000
15.473086,0.030256,0.227408,0.863760,-2.380000,1.400000,-0.700000
15.477152,0.049776,0.460184,0.819840,-0.420000,-1.820000,0.840000
15.481218,-0.116632,0.495320,1.151680,2.940000,3.920000,-1.400000
15.485284,0.086864,0.289384,0.812520,-0.280000,-1.960000,-0.560000
15.489350,0.002440,0.525576,0.846680,3.640000,-2.240000,1.820000
15.493416,-0.133712,0.492880,0.943304,0.420000,2.660000,-2.800000
15.497482,0.146888,0.365024,0.803736,-1.400000,-5.600000,0.560000
15.501548,-0.042944,0.577792,0.975512,3.080000,2.520000,-0.420000
15.505614,0.014640,0.327448,0.966240,0.980000,2.380000,-1.400000
15.509680,0.022448,0.425536,0.700768,-0.700000,-2.520000,0.980000
15.513746,-0.089304,0.549488,1.129232,3.640000,3.220000,-0.840000
15.517812,0.062952,0.250344,0.829112,-0.280000,-1.820000,-1.260000
15.521878,0.023424,0.523136,0.899872,1.960000,-3.080000,1.260000
15.525944,-0.107360,0.469456,0.955504,2.380000,2.100000,-2.100000
15.530010,0.147864,0.329888,0.795928,-1.680000,-5.040000,-0.420000
15.534076,-0.075152,0.618296,0.915488,2.240000,1.120000,0.000000
15.538142,-0.015128,0.365024,0.941352,0.700000,1.120000,-1.400000
15.542208,0.081496,0.388936,0.743712,-1.400000,-3.640000,0.560000
15.546274,-0.083936,0.608048,1.032120,2.100000,2.380000,-1.540000
15.550340,0.046360,0.261080,0.868152,-0.560000,-2.520000,-1.540000
15.554406,0.037576,0.471896,0.838384,-0.140000,-2.380000,0.840000
15.558472,-0.110288,0.488976,1.092632,2.520000,3.360000,-1.400000
15.562538,0.107848,0.282064,0.772992,-1.680000,-2.800000,-0.280000
15.566603,-0.061000,0.604632,1.001376,2.240000,-0.140000,1.540000
15.570669,-0.076616,0.401624,0.934032,1.400000,3.360000,-1.120000
15.574735,0.133712,0.346968,0.804712,-1.680000,-3.780000,0.280000
15.578801,-0.053192,0.603656,0.992104,2.800000,0.980000,-0.840000
15.582867,-0.004392,0.315736,0.979904,0.840000,0.840000,-1.400000
15.586933,0.090280,0.396256,0.763232,1.120000,-2.240000,0.980000
15.590999,-0.088816,0.526552,1.081896,4.620000,3.920000,-1.120000
15.595065,0.056120,0.315248,0.828624,0.980000,-1.540000,-0.840000
15.599131,-0.003416,0.546560,0.793000,2.240000,-1.120000,1.540000
15.603197,-0.084424,0.507520,0.964776,1.120000,2.660000,-1.820000
15.607263,0.109800,0.318176,0.699304,-3.080000,-4.620000,0.140000
15.611329,-0.094184,0.623176,1.010648,2.380000,0.840000,-0.700000
15.615395,0.028792,0.321592,0.937936,0.700000,1.540000,-1.540000
15.619461,0.051728,0.398208,0.746152,-1.680000,-3.500000,0.980000
15.623527,-0.108336,0.587552,1.032608,2.800000,0.280000,-1.540000
15.627593,0.069296,0.285480,0.900848,-1.680000,-2.800000,-1.820000
15.631659,0.058072,0.505568,0.805200,0.280000,-1.820000,0.560000
15.635725,-0.116632,0.472384,1.070184,2.520000,2.660000,-1.820000
15.639791,0.113704,0.295240,0.810080,-1.680000,-3.220000,0.280000
15.643857,-0.053192,0.556320,0.926224,2.100000,0.280000,0.840000
15.647923,-0.064416,0.466040,0.997960,0.560000,2.660000,-1.540000
15.651989,0.101992,0.325496,0.781288,-2.520000,-4.480000,0.980000
15.656055,-0.067344,0.600240,0.970632,2.240000,2.520000,0.000000
15.660121,0.044896,0.315248,1.003816,0.140000,2.240000,-1.540000
15.664187,0.074176,0.411872,0.792512,1.680000,-3.780000,0.980000
15.668253,-0.135664,0.521672,0.987712,5.600000,3.360000,-1.400000
15.672319,0.023912,0.365512,0.811056,-0.140000,0.000000,-0.280000
15.676385,0.056608,0.511424,0.810080,-0.280000,-2.940000,1.260000
15.680451,-0.037088,0.508008,1.085312,1.960000,1.400000,-2.240000
15.684517,0.086376,0.255224,0.745664,-1.680000,-2.660000,-0.280000
15.688583,-0.058072,0.629032,0.940864,1.960000,2.940000,-0.140000
15.692649,0.002440,0.359168,0.990152,1.120000,1.120000,-1.540000
15.696715,0.037088,0.399672,0.723704,-1.540000,-5.180000,0.140000
15.700781,-0.077104,0.580720,1.050664,4.200000,1.680000,-1.540000
15.704847,0.027816,0.272792,0.913536,-0.980000,-0.560000,-1.680000
15.708913,0.040016,0.488000,0.820816,2.240000,-3.360000,1.260000
15.712979,-0.122000,0.468968,1.097024,3.920000,3.220000,-1.540000
15.717045,0.112728,0.295728,0.739320,-0.980000,-2.240000,0.560000
15.721111,-0.053192,0.640744,0.891576,0.840000,-0.140000,1.260000
15.725177,0.012200,0.447496,0.996984,0.560000,1.680000,-0.700000
15.729243,0.061000,0.355264,0.707600,-2.240000,-2.520000,0.560000
15.733309,-0.086864,0.576816,1.040416,3.640000,3.780000,-1.120000
15.737375,0.044408,0.283528,0.859856,-0.700000,-1.820000,-1.400000
15.741441,0.046360,0.502152,0.768600,-0.140000,-4.620000,0.280000
15.745507,-0.083936,0.532408,1.065792,2.660000,1.820000,-2.240000
15.749573,0.114192,0.284016,0.820816,-2.240000,-2.100000,-0.840000
15.753639,-0.053680,0.548024,0.863272,1.960000,0.700000,0.140000
15.757705,-0.037576,0.458720,1.061400,0.560000,2.100000,-1.400000
15.761771,0.045872,0.308416,0.725168,-2.800000,-3.920000,0.840000
15.765837,-0.077104,0.598288,1.096536,3.780000,2.240000,-0.420000
15.769903,0.038552,0.305488,0.949160,0.420000,0.000000,-1.260000
15.773969,0.036600,0.444080,0.710040,-0.280000,-4.480000,1.820000
15.778035,-0.071248,0.584136,0.944768,2.800000,2.660000,-1.400000
15.782101,0.095648,0.331352,0.829112,-2.800000,-2.660000,-0.840000
15.786167,-0.036112,0.532408,0.878400,0.980000,-0.280000,0.000000
15.790233,-0.029768,0.446032,1.053592,1.680000,3.080000,-1.260000
15.794299,0.110288,0.316712,0.798856,-2.800000,-3.920000,0.140000
15.798365,-0.067832,0.578768,0.945256,3.500000,0.420000,-0.700000
15.802431,-0.029768,0.347456,1.048712,1.540000,2.660000,-2.240000
15.806497,0.068808,0.432368,0.683688,-0.560000,-2.520000,1.260000
15.810563,-0.145912,0.588528,0.949160,1.820000,3.220000,-0.420000
15.814629,0.111752,0.286456,0.793976,-3.780000,-3.500000,-0.700000
15.818695,-0.011712,0.528504,0.886208,-1.120000,-2.100000,0.280000
15.822761,-0.021960,0.486048,1.132160,2.240000,4.340000,-1.680000
15.826827,0.058560,0.285968,0.712480,-2.240000,-2.240000,0.420000
15.830893,-0.052216,0.587064,0.909632,1.820000,-1.540000,-0.140000
15.834959,0.005368,0.417240,1.030168,-0.700000,-0.700000,-2.520000
15.839025,0.073688,0.412360,0.736392,-2.240000,-5.600000,0.420000
15.843091,-0.104432,0.562664,0.969168,2.520000,3.080000,-1.120000
15.847157,0.077592,0.289872,0.843752,-3.220000,-0.700000,-1.120000
15.851223,-0.060024,0.515816,0.754936,-1.540000,-1.540000,0.700000
15.855289,-0.008296,0.513864,1.220976,1.540000,2.940000,-1.120000
15.859355,0.100528,0.260592,0.775920,-3.080000,-2.240000,0.560000
15.863421,-0.103456,0.565104,0.931592,2.800000,0.420000,0.280000
15.867487,-0.010248,0.388448,1.006744,0.140000,1.820000,-0.700000
15.871553,0.069296,0.412360,0.713456,-4.200000,-4.200000,0.840000
15.875619,-0.049288,0.627080,0.986248,2.520000,1.960000,-0.560000
15.879685,0.042456,0.296704,0.969656,-1.260000,0.140000,-1.540000
15.883751,0.039040,0.410896,0.714432,-0.280000,-1.540000,0.840000
15.887817,-0.077104,0.541192,1.098976,2.660000,3.780000,-1.540000
15.891883,0.096624,0.304512,0.833016,-1.960000,-3.360000,-0.420000
15.895949,-0.054656,0.535824,0.851072,2.380000,-0.560000,0.280000
15.900015,-0.061488,0.459696,1.064816,3.080000,2.940000,-1.680000
15.904081,0.058072,0.318176,0.687104,-4.060000,-4.200000,1.260000
15.908147,-0.049776,0.684664,0.957456,1.260000,0.000000,0.000000
15.912213,0.043920,0.337208,0.895968,-2.100000,-0.280000,-1.120000
15.916279,-0.016592,0.438712,0.673440,-3.220000,-2.240000,-0.280000
15.920345,-0.025376,0.555832,1.126304,2.660000,2.800000,-1.400000
15.924411,0.084424,0.279136,0.801784,-4.480000,-2.940000,-0.700000
15.928477,0.002440,0.543632,0.863272,-0.140000,-2.520000,-0.140000
15.932542,-0.066856,0.443592,1.119960,0.420000,1.680000,-2.240000
15.936608,0.106872,0.306952,0.792024,-3.080000,-3.080000,-0.280000
15.940674,-0.111264,0.560224,0.916464,2.240000,1.120000,0.000000
15.944740,-0.036112,0.421144,0.932080,-2.100000,1.400000,-0.700000
15.948806,0.080032,0.416752,0.680760,-4.620000,-5.180000,1.260000
15.952872,-0.063440,0.596336,1.042368,0.140000,1.820000,-0.980000
15.956938,0.091744,0.292800,0.962824,-2.520000,0.560000,-1.260000
15.961004,-0.002928,0.458232,0.702720,-0.140000,-1.820000,0.700000
15.965070,-0.115168,0.519720,1.055056,1.400000,2.940000,-0.700000
15.969136,0.106384,0.341112,0.797880,-5.600000,-4.480000,-0.700000
15.973202,-0.005368,0.557784,0.882304,-1.260000,-2.660000,0.560000
15.977268,-0.033672,0.448472,1.103368,-0.700000,3.360000,-2.240000
15.981334,0.082472,0.285968,0.721264,-4.200000,-2.800000,-0.700000
15.985400,-0.056120,0.586088,1.012600,1.120000,-0.140000,-0.560000
15.989466,-0.034648,0.358192,1.037488,-0.980000,0.840000,-1.540000
15.993532,0.094672,0.390888,0.709064,-1.540000,-3.780000,0.700000
15.997598,-0.097112,0.616344,0.890112,0.560000,1.960000,-0.700000
16.001664,0.022936,0.330864,0.910608,-3.780000,-2.240000,-1.540000
16.005730,0.023424,0.481656,0.805200,-1.680000,-1.680000,0.700000
16.009796,-0.078568,0.488000,1.173152,1.120000,5.180000,-1.260000
16.013862,0.082472,0.268400,0.755424,-3.080000,-2.240000,0.420000
16.017928,-0.025376,0.554368,0.830088,-0.140000,-2.380000,1.120000
16.021994,-0.055144,0.503616,1.061888,-0.560000,2.100000,-2.380000
16.026060,0.131272,0.309392,0.791048,-3.080000,-4.900000,-0.140000
16.030126,-0.050752,0.584136,0.981856,2.100000,1.680000,-0.840000
16.034192,-0.042944,0.353312,0.997472,-0.560000,1.680000,-1.400000
16.038258,0.069296,0.377712,0.693448,-2.380000,-2.940000,1.120000
16.042324,-0.092232,0.615856,0.998448,1.540000,2.240000,-0.420000
