Time [s],lsm6dsv16x_acc_x [g],lsm6dsv16x_acc_y [g],lsm6dsv16x_acc_z [g],lsm6dsv16x_gyro_x [dps],lsm6dsv16x_gyro_y [dps],lsm6dsv16x_gyro_z [dps]
71.504731,-0.065880,-0.165920,0.868640,-1.120000,0.280000,-0.700000
71.512818,-0.033672,-0.151280,1.020896,0.560000,0.700000,-1.680000
71.520906,0.039528,-0.134688,1.079456,-3.080000,0.420000,0.000000
71.528993,-0.127368,-0.181048,0.894016,-1.540000,0.280000,-1.400000
71.537080,-0.004392,-0.184952,1.000888,0.700000,1.540000,-1.680000
71.545167,-0.028792,-0.132248,1.032120,-0.980000,0.280000,0.420000
71.553254,-0.072712,-0.132248,0.966728,-0.140000,-0.420000,-1.120000
71.561341,0.008296,-0.183000,1.075064,-0.700000,2.520000,-1.960000
71.569429,-0.035624,-0.164456,0.937936,-1.400000,-1.120000,0.560000
71.577516,-0.101504,-0.162016,0.955992,1.400000,2.800000,-2.660000
71.585603,0.021472,-0.124440,1.069696,-1.820000,-0.560000,0.000000
71.593690,-0.020008,-0.181048,0.958920,-1.260000,0.420000,-0.700000
71.601777,-0.110776,-0.163480,0.978928,0.700000,1.820000,-2.100000
71.609864,0.041480,-0.146888,1.052616,-1.960000,0.000000,0.280000
71.617952,-0.101992,-0.153720,0.929152,0.000000,-0.560000,-0.980000
71.626039,0.005368,-0.193248,1.056520,0.420000,1.960000,-1.820000
71.634126,-0.038552,-0.160552,0.994056,-0.420000,0.280000,0.140000
71.642213,-0.078080,-0.131760,0.929640,0.700000,0.000000,-0.840000
71.650300,0.014152,-0.153720,1.074088,-1.120000,2.380000,-2.240000
71.658387,-0.026352,-0.176168,0.975024,-2.800000,-2.520000,1.680000
71.666475,-0.079544,-0.158112,0.944280,1.120000,3.080000,-2.940000
71.674562,-0.017568,-0.162504,1.056032,0.000000,0.700000,-0.840000
71.682649,-0.008296,-0.167384,0.962824,-0.980000,-1.540000,-0.140000
71.690736,-0.107360,-0.132248,1.007232,0.140000,3.080000,-2.660000
71.698823,0.049288,-0.169824,1.034072,-2.380000,-1.260000,0.700000
71.706910,-0.098088,-0.187392,0.919880,0.560000,2.240000,-2.100000
71.714998,-0.027816,-0.151768,1.033096,0.560000,-0.280000,-0.840000
71.723085,0.026352,-0.148352,1.009672,-1.820000,1.260000,-0.700000
71.731172,-0.128344,-0.145424,0.922808,-1.260000,-0.560000,-0.140000
71.739259,0.028304,-0.183000,1.060912,0.000000,2.520000,-1.400000
71.747346,-0.070760,-0.213256,0.955992,0.700000,-0.980000,-0.700000
71.755433,-0.036112,-0.130296,0.965752,2.100000,0.000000,-1.120000
71.763521,-0.011712,-0.123464,1.080920,-0.420000,2.520000,-0.840000
71.771608,-0.043920,-0.175192,0.990152,-1.540000,-2.240000,0.140000
71.779695,-0.056120,-0.168848,0.961360,0.140000,3.920000,-2.940000
71.787782,0.000976,-0.186416,1.015040,-1.120000,-1.960000,0.840000
71.795869,-0.059536,-0.148840,0.971120,0.280000,1.120000,-1.260000
71.803956,-0.054656,-0.156648,1.040904,0.420000,1.820000,-1.680000
71.812043,0.013176,-0.186416,0.964776,-0.980000,-0.560000,0.420000
71.820131,-0.125416,-0.110776,0.963312,0.280000,1.680000,-2.100000
71.828218,0.041968,-0.161040,1.070184,-1.820000,-0.560000,-0.280000
71.836305,-0.047336,-0.198128,0.968192,-0.980000,0.560000,-0.980000
71.844392,-0.078080,-0.144936,0.984296,0.140000,1.120000,-1.820000
71.852479,0.030256,-0.164944,1.013088,-2.100000,1.120000,-0.840000
71.860566,-0.090768,-0.175192,0.959408,-0.700000,-1.400000,0.420000
71.868654,-0.007320,-0.194712,1.012112,0.420000,2.940000,-2.940000
71.876741,-0.017080,-0.173728,0.983320,-0.560000,-0.560000,0.280000
71.884828,-0.079544,-0.133224,0.942816,0.840000,0.280000,-0.980000
71.892915,-0.059048,-0.145424,1.056520,-0.560000,1.820000,-1.540000
71.901002,0.034648,-0.199592,0.993080,-1.820000,-0.700000,0.840000
71.909089,-0.119560,-0.135664,0.955992,1.400000,2.520000,-2.940000
71.917177,0.005368,-0.188368,1.040904,-0.420000,-0.560000,0.000000
71.925264,0.002440,-0.190808,0.969168,0.000000,-0.280000,-0.280000
71.933351,-0.100040,-0.106384,0.996496,0.420000,2.240000,-1.960000
71.941438,0.042944,-0.203496,1.052616,-1.820000,0.000000,-0.560000
71.949525,-0.114192,-0.183488,0.881816,0.000000,0.000000,-0.420000
71.957612,-0.003904,-0.139080,1.037488,1.260000,1.820000,-1.680000
71.965700,-0.020496,-0.168360,1.052128,-2.100000,-0.560000,0.140000
71.973787,-0.077592,-0.127856,0.971120,-1.120000,0.280000,-0.980000
71.981874,-0.028304,-0.197640,0.973560,-0.700000,3.220000,-1.820000
71.989961,-0.011224,-0.192760,1.013576,-1.820000,-3.080000,0.980000
71.998048,-0.060024,-0.146400,1.004792,0.700000,3.220000,-3.080000
72.006135,-0.016104,-0.165920,0.994544,-0.280000,-0.140000,0.000000
72.014223,-0.015616,-0.216184,0.966240,0.000000,0.140000,-0.700000
72.022310,-0.114192,-0.114192,0.969168,0.420000,1.960000,-1.680000
72.030397,0.066368,-0.156648,1.098976,-1.820000,-0.980000,0.280000
72.038484,-0.130784,-0.182512,0.899872,-1.120000,1.400000,-1.400000
72.046571,0.018056,-0.196176,1.008208,0.840000,0.840000,-1.260000
72.054658,-0.035136,-0.184464,0.996008,0.420000,0.980000,-0.280000
72.062746,-0.073688,-0.083448,1.007232,-0.420000,-0.700000,-0.840000
72.070833,0.002928,-0.201544,1.025776,-1.400000,2.380000,-1.820000
72.078920,-0.027328,-0.209352,0.947208,-0.700000,-1.820000,0.280000
72.087007,-0.082472,-0.161040,0.986736,1.540000,3.640000,-2.940000
72.095094,-0.006344,-0.147376,1.018456,-1.680000,-1.820000,0.420000
72.103181,-0.024400,-0.183976,0.975512,-1.540000,0.560000,-0.560000
72.111269,-0.113216,-0.170312,0.991616,-0.140000,3.220000,-2.240000
72.119356,0.024400,-0.181536,1.013088,-0.840000,-1.540000,0.560000
72.127443,-0.058072,-0.154208,0.973560,0.700000,0.420000,-1.540000
72.135530,-0.011712,-0.152744,1.021872,-0.420000,1.260000,-1.120000
72.143617,-0.018544,-0.208376,1.012112,-1.120000,-0.280000,0.280000
72.151704,-0.101016,-0.143472,0.924760,0.980000,2.100000,-2.100000
72.159792,0.027816,-0.184952,1.062376,-0.560000,0.280000,-0.840000
72.167879,-0.049288,-0.177144,0.955992,-0.840000,-1.260000,0.420000
72.175966,-0.086864,-0.156160,0.986248,0.700000,2.380000,-2.380000
72.184053,0.032208,-0.187880,1.040904,-0.700000,0.700000,-0.420000
72.192140,-0.052704,-0.145912,0.936960,-0.840000,-0.840000,0.140000
72.200227,-0.081008,-0.180560,1.029192,-0.420000,2.660000,-2.660000
72.208315,0.028304,-0.182512,0.991128,-2.800000,-1.120000,0.700000
72.216402,-0.082472,-0.162504,0.949160,0.420000,1.820000,-1.680000
72.224489,-0.054656,-0.203008,1.031632,0.140000,0.700000,-1.120000
72.232576,0.041480,-0.155672,1.011136,-1.820000,-0.700000,0.560000
72.240663,-0.152256,-0.125904,0.924272,0.420000,2.380000,-2.520000
72.248750,0.056120,-0.251320,1.087264,-0.840000,-0.700000,-0.980000
72.256838,-0.065880,-0.167872,0.947208,0.140000,0.980000,-0.280000
72.264925,-0.074664,-0.123952,0.950624,0.980000,1.120000,-1.120000
72.273012,0.034648,-0.197640,1.084336,-1.960000,-0.280000,-0.420000
72.281099,-0.053680,-0.155184,0.956968,-2.100000,0.560000,-0.700000
72.289186,-0.060024,-0.195688,0.962824,0.000000,2.240000,-2.380000
72.297273,-0.011224,-0.156160,1.016504,-1.960000,-0.560000,0.420000
72.305360,-0.078568,-0.138104,0.985760,-2.240000,-0.280000,-0.980000
72.313448,0.001952,-0.216672,1.056032,-2.380000,2.100000,-1.820000
72.321535,-0.023912,-0.185440,0.946720,-1.960000,0.140000,0.140000
72.329622,-0.090768,-0.163968,0.945256,-0.700000,0.700000,-2.380000
72.337709,0.020496,-0.179096,1.067256,-2.660000,0.420000,-0.140000
72.345796,-0.036600,-0.183488,0.958432,-1.960000,0.840000,-0.280000
72.353883,-0.110776,-0.175680,0.946232,-0.840000,0.980000,-2.380000
72.361971,0.037088,-0.163968,1.052616,-2.940000,0.840000,0.280000
72.370058,-0.085400,-0.169824,0.959896,-2.100000,0.140000,-0.700000
72.378145,-0.032208,-0.213256,1.032120,-0.980000,0.700000,-2.240000
72.386232,0.022448,-0.173728,0.966240,-2.240000,0.980000,0.000000
72.394319,-0.130784,-0.138104,0.942328,-0.980000,0.840000,-1.120000
72.402406,0.021472,-0.236192,1.076040,-1.680000,0.000000,-1.540000
72.410494,0.007320,-0.184464,0.980392,-1.260000,0.280000,-0.140000
72.418581,-0.122000,-0.161040,0.922808,0.560000,1.960000,-1.820000
72.426668,0.009272,-0.189832,1.040416,-0.980000,0.840000,-0.560000
72.434755,-0.035136,-0.177632,0.971120,-1.400000,-1.680000,0.280000
72.442842,-0.074664,-0.173728,0.999424,0.140000,2.520000,-2.660000
72.450929,0.012688,-0.182024,1.050664,-1.680000,-0.420000,0.140000
72.459017,-0.081496,-0.170312,0.906704,-0.420000,0.420000,-0.280000
72.467104,-0.036600,-0.205448,1.018456,0.000000,1.540000,-2.240000
72.475191,0.040992,-0.162992,1.047248,-2.660000,-1.540000,0.980000
72.483278,-0.137128,-0.179584,0.932568,-0.140000,2.380000,-2.240000
72.491365,0.011712,-0.217648,1.002840,-0.700000,0.700000,-0.700000
72.499452,0.002928,-0.167384,1.009672,-1.260000,-0.420000,0.140000
72.507540,-0.129808,-0.142008,0.969656,-0.140000,0.840000,-1.960000
72.515627,0.064416,-0.200568,1.055544,-1.820000,0.840000,0.000000
72.523714,-0.097112,-0.221552,0.886208,-0.840000,1.120000,-1.120000
72.531801,-0.050264,-0.183000,1.036024,1.680000,0.000000,-1.680000
72.539888,0.041968,-0.143960,1.046760,-0.980000,0.840000,-0.140000
72.547975,-0.112728,-0.164944,0.910608,-1.120000,-0.560000,-0.560000
72.556063,-0.008784,-0.250344,1.028216,0.140000,3.080000,-2.380000
72.564150,-0.003904,-0.190808,0.985272,-0.140000,-0.840000,0.700000
72.572237,-0.102968,-0.131272,0.937448,1.400000,0.700000,-1.680000
72.580324,0.014640,-0.211304,1.074088,-1.540000,0.700000,-0.840000
72.588411,-0.031720,-0.171288,0.955016,-0.700000,-0.280000,-0.140000
72.596498,-0.105896,-0.188856,0.955016,1.120000,2.380000,-2.380000
72.604586,0.027816,-0.177144,1.060912,-1.540000,-0.700000,0.140000
72.612673,-0.057584,-0.186904,0.955992,-0.980000,0.280000,-0.420000
72.620760,-0.052216,-0.210816,1.002840,0.140000,2.100000,-2.240000
72.628847,0.007808,-0.169336,1.030168,-1.540000,0.420000,0.140000
72.636934,-0.076128,-0.179096,0.907192,-0.420000,-1.120000,-0.700000
72.645021,-0.020984,-0.203008,1.056520,-0.560000,1.960000,-1.820000
72.653109,-0.025376,-0.173728,0.975024,-2.240000,0.280000,0.420000
72.661196,-0.074664,-0.186416,0.920856,1.120000,0.980000,-1.960000
72.669283,-0.017568,-0.206912,1.077016,-0.700000,1.120000,-1.260000
72.677370,-0.020496,-0.147376,0.978440,-1.680000,-1.400000,1.120000
72.685457,-0.089304,-0.201056,0.961360,0.840000,2.520000,-3.640000
72.693544,0.038552,-0.210816,1.083848,-1.400000,-1.120000,0.280000
72.701632,-0.075152,-0.187392,0.894016,0.700000,2.100000,-0.840000
72.709719,-0.076616,-0.169336,0.981856,0.840000,0.280000,-1.120000
72.717806,0.072712,-0.164456,1.087752,-1.960000,-0.560000,0.000000
72.725893,-0.139080,-0.194712,0.913536,-0.420000,1.960000,-1.960000
72.733980,0.008784,-0.264008,0.997960,0.700000,0.840000,-1.400000
72.742067,-0.011224,-0.147376,0.984296,0.700000,-0.280000,0.420000
72.750155,-0.104432,-0.165432,0.984784,0.980000,0.840000,-1.540000
72.758242,0.010736,-0.200080,1.035536,-0.840000,1.680000,-1.400000
72.766329,-0.036112,-0.193736,0.936472,-0.560000,-0.980000,0.420000
72.774416,-0.095160,-0.203496,0.971608,1.400000,3.080000,-2.240000
72.782503,0.033184,-0.157624,1.083848,-0.980000,-1.260000,0.140000
72.790590,-0.045384,-0.194224,0.924760,-0.700000,0.280000,-0.420000
72.798677,-0.081984,-0.213256,0.999424,1.120000,2.240000,-1.960000
72.806765,0.016592,-0.173728,1.025776,-1.680000,0.700000,0.000000
72.814852,-0.085888,-0.164944,0.899872,0.280000,-0.980000,-0.840000
72.822939,-0.000976,-0.227408,1.076528,-0.140000,2.240000,-2.520000
72.831026,-0.020008,-0.182512,0.958920,-1.400000,-0.140000,0.420000
72.839113,-0.087352,-0.198616,0.921832,1.540000,1.120000,-1.820000
72.847200,-0.010736,-0.197640,1.067744,0.840000,0.560000,-0.700000
72.855288,-0.021472,-0.168848,0.968680,-0.420000,-0.420000,0.280000
72.863375,-0.090768,-0.202520,0.990640,1.120000,1.540000,-2.240000
72.871462,0.040992,-0.184464,1.053592,-0.280000,0.280000,-0.140000
72.879549,-0.096136,-0.204960,0.903776,0.980000,0.280000,-0.560000
72.887636,-0.049776,-0.189832,0.988688,2.100000,0.840000,-1.540000
72.895723,0.047336,-0.163968,1.066768,0.000000,0.140000,0.140000
72.903811,-0.118096,-0.203496,0.948184,0.000000,0.000000,-0.560000
72.911898,-0.003416,-0.220088,0.981368,1.820000,1.960000,-1.960000
72.919985,-0.007808,-0.191296,1.016992,1.400000,-1.540000,0.980000
72.928072,-0.085888,-0.156648,0.957456,2.100000,1.540000,-1.680000
72.936159,-0.007320,-0.208864,1.020408,0.700000,0.280000,-0.840000
72.944246,-0.014152,-0.183488,0.955016,1.400000,0.000000,0.280000
72.952334,-0.118584,-0.204472,0.973560,2.380000,1.680000,-1.960000
72.960421,0.037088,-0.161040,1.069696,0.420000,-0.280000,0.000000
72.968508,-0.046360,-0.198128,0.934520,0.700000,-0.420000,-0.420000
72.976595,-0.060024,-0.219600,1.007232,1.820000,2.800000,-2.380000
72.984682,-0.012200,-0.160552,0.989664,0.560000,0.560000,-0.140000
72.992769,-0.051240,-0.181536,0.944768,2.380000,-2.240000,-0.560000
73.000857,-0.019032,-0.223016,1.081896,0.700000,2.940000,-2.240000
73.008944,-0.033672,-0.157136,0.955992,-0.280000,0.140000,0.980000
73.017031,-0.090280,-0.195688,0.930616,3.220000,0.980000,-2.380000
73.025118,0.007320,-0.206912,1.064816,0.560000,0.140000,-0.980000
73.033205,-0.039040,-0.156648,0.961848,0.280000,0.140000,0.280000
73.041292,-0.077592,-0.202032,0.977952,1.540000,1.540000,-2.100000
73.049380,0.049288,-0.206912,1.036024,0.140000,0.280000,-0.280000
73.057467,-0.104920,-0.174704,0.914024,1.120000,0.140000,-0.840000
73.065554,-0.020008,-0.205448,1.037976,1.540000,0.980000,-1.260000
73.073641,0.013664,-0.159576,1.020408,-0.560000,0.420000,0.000000
73.081728,-0.125416,-0.201056,0.898896,0.980000,0.140000,-1.260000
73.089815,0.013176,-0.206912,1.059936,0.980000,2.240000,-1.820000
73.097903,-0.032696,-0.169824,0.975024,-0.280000,-1.400000,0.840000
73.105990,-0.063440,-0.180072,0.990640,1.540000,0.700000,-1.820000
73.114077,-0.015128,-0.209352,1.056032,-0.560000,2.240000,-1.120000
73.122164,-0.028792,-0.198128,0.902312,0.280000,-0.980000,0.560000
73.130251,-0.081008,-0.172752,0.959896,2.240000,1.540000,-2.240000
73.138338,0.018544,-0.188368,1.089704,-1.120000,-0.140000,0.280000
73.146426,-0.063928,-0.196664,0.937448,0.000000,0.000000,-0.980000
73.154513,-0.064416,-0.188368,0.980392,1.540000,2.520000,-1.820000
73.162600,0.006344,-0.166896,1.016504,-1.680000,-0.140000,-0.140000
73.170687,-0.092232,-0.182024,0.981856,-0.840000,-1.260000,-1.260000
73.178774,0.048800,-0.204960,1.044808,-0.420000,1.960000,-1.260000
73.186861,-0.073200,-0.236680,0.934520,-0.280000,0.700000,0.140000
73.194949,-0.090768,-0.145424,0.953064,1.120000,-0.140000,-1.540000
73.203036,0.031232,-0.179096,1.072136,-0.700000,1.400000,-0.840000
73.211123,-0.024400,-0.209840,0.968680,-2.240000,-1.120000,0.840000
73.219210,-0.114192,-0.212280,0.945256,1.260000,4.060000,-2.940000
73.227297,0.031232,-0.185928,1.033584,0.000000,-1.540000,0.140000
73.235384,-0.062464,-0.194712,0.938912,0.840000,0.420000,-0.840000
73.243472,-0.045872,-0.190808,1.039928,0.840000,1.540000,-1.680000
73.251559,0.011224,-0.159576,0.988688,-1.400000,0.000000,0.560000
73.259646,-0.112728,-0.221064,0.925248,0.280000,1.120000,-1.820000
73.267733,0.010248,-0.185928,1.068720,-0.140000,1.540000,-1.120000
73.275820,-0.022448,-0.194224,0.950136,-0.840000,-1.400000,0.420000
73.283907,-0.087352,-0.180072,0.973560,0.560000,1.680000,-2.100000
73.291994,0.017568,-0.210328,1.083360,-1.120000,1.400000,-0.840000
73.300082,-0.046360,-0.185928,0.891576,0.420000,-1.260000,0.280000
73.308169,-0.075640,-0.204472,0.983808,1.120000,2.100000,-2.240000
73.316256,0.016104,-0.155672,1.068720,-1.820000,0.000000,0.420000
73.324343,-0.063440,-0.223504,0.921832,-0.420000,-0.280000,-0.560000
73.332430,-0.059048,-0.210328,1.015040,0.980000,2.660000,-2.100000
73.340517,0.016104,-0.169824,0.998448,-1.820000,-1.120000,0.700000
73.348605,-0.096624,-0.183000,0.959408,0.560000,0.280000,-1.400000
73.356692,0.007320,-0.211792,1.059936,-0.700000,2.100000,-1.540000
73.364779,-0.036600,-0.215696,0.923784,-1.260000,-0.280000,0.140000
73.372866,-0.097112,-0.167872,0.967216,1.540000,0.840000,-1.820000
73.380953,0.039528,-0.173240,1.075552,-1.540000,0.420000,-0.280000
73.389040,-0.052704,-0.223992,0.938424,-1.120000,-0.840000,-0.280000
73.397128,-0.079544,-0.183000,1.006744,0.980000,2.380000,-2.380000
73.405215,0.009760,-0.195688,0.999424,-1.680000,0.560000,0.140000
73.413302,-0.061000,-0.202032,0.937936,-0.140000,-1.820000,-0.420000
73.421389,-0.021472,-0.200568,1.062864,0.140000,3.220000,-2.520000
73.429476,-0.020984,-0.202520,0.948672,-0.840000,-0.980000,0.560000
73.437563,-0.072224,-0.184952,0.938912,0.980000,0.700000,-1.540000
73.445651,-0.022936,-0.188856,1.056520,-0.840000,2.520000,-1.260000
73.453738,0.002440,-0.195688,1.000888,-1.400000,-2.800000,0.840000
73.461825,-0.104920,-0.198128,0.928176,0.280000,2.520000,-2.520000
73.469912,0.028304,-0.205448,1.066768,-0.840000,0.560000,-0.280000
73.477999,-0.065392,-0.204960,0.904264,0.140000,0.000000,-0.280000
73.486086,-0.067832,-0.185440,0.995520,0.700000,1.260000,-1.960000
73.494174,0.032696,-0.180072,1.069696,-1.680000,0.140000,0.280000
73.502261,-0.095160,-0.228384,0.905240,-0.280000,0.280000,-0.700000
73.510348,-0.024888,-0.195688,1.018944,0.980000,1.960000,-2.240000
73.518435,0.006344,-0.200080,0.989176,-0.840000,-0.700000,0.140000
73.526522,-0.097112,-0.150792,0.962336,0.280000,0.140000,-0.700000
73.534609,-0.001464,-0.218624,1.037976,-1.120000,2.100000,-1.260000
73.542697,-0.018544,-0.239120,0.955016,-0.840000,-0.420000,-0.420000
73.550784,-0.118584,-0.162504,0.955016,1.260000,1.960000,-1.680000
73.558871,0.045384,-0.186904,1.054080,-1.820000,-0.280000,0.000000
73.566958,-0.048800,-0.242048,0.946720,-0.980000,-0.280000,-0.560000
73.575045,-0.093208,-0.177144,1.001864,0.700000,2.940000,-2.380000
73.583132,0.029768,-0.194712,1.019920,-1.680000,-0.280000,0.140000
73.591220,-0.081008,-0.174216,0.913048,-0.700000,-1.120000,-0.560000
73.599307,-0.026352,-0.224480,1.072136,-1.400000,2.940000,-2.240000
73.607394,0.000000,-0.203984,0.974536,-2.660000,-0.840000,0.420000
73.615481,-0.094184,-0.192760,0.910120,0.560000,0.700000,-1.120000
73.623568,-0.018056,-0.210328,1.098488,-0.420000,1.960000,-2.100000
73.631655,-0.000488,-0.195200,0.927688,-1.960000,-2.240000,0.980000
73.639743,-0.076616,-0.199104,0.976976,1.120000,2.520000,-2.660000
73.647830,-0.020008,-0.203984,1.062376,-1.540000,0.420000,-0.140000
73.655917,-0.028304,-0.231800,0.895968,-0.140000,0.140000,-0.700000
73.664004,-0.078568,-0.161528,1.013088,1.540000,1.540000,-1.540000
73.672091,0.015128,-0.193248,1.061400,-2.660000,0.140000,0.140000
73.680178,-0.078568,-0.209352,0.884744,0.140000,-0.140000,-1.260000
73.688266,-0.003416,-0.242536,1.054080,1.400000,1.540000,-2.100000
73.696353,-0.026352,-0.184464,0.956480,-0.700000,0.560000,0.140000
73.704440,-0.105896,-0.164456,0.948672,0.700000,0.420000,-1.120000
73.712527,0.025864,-0.223504,1.072136,-1.400000,0.980000,-1.120000
73.720614,-0.032208,-0.223016,0.953064,-1.400000,0.280000,-0.140000
73.728701,-0.098088,-0.179096,0.931104,1.260000,1.400000,-1.820000
73.736789,0.017568,-0.191784,1.073112,-1.960000,0.140000,-0.420000
73.744876,-0.024888,-0.220576,0.962824,-1.820000,-0.560000,-0.140000
73.752963,-0.096624,-0.187392,0.967216,0.000000,2.800000,-2.240000
73.761050,0.021960,-0.224480,1.025776,-2.520000,-0.420000,-0.140000
73.769137,-0.069296,-0.199104,0.918904,-0.560000,-0.280000,-0.560000
73.777224,-0.037088,-0.184464,1.048224,-0.280000,1.540000,-1.680000
73.785312,0.002440,-0.223992,1.010648,-3.500000,0.280000,-0.280000
73.793399,-0.086864,-0.202032,0.921832,-0.700000,0.560000,-0.840000
73.801486,-0.038064,-0.189344,1.016504,0.000000,2.100000,-1.540000
73.809573,0.018544,-0.218136,1.009672,-2.800000,-2.380000,0.420000
73.817660,-0.080520,-0.188856,0.971608,-0.700000,2.520000,-2.380000
73.825747,-0.013176,-0.210816,0.991128,-1.680000,0.840000,-0.560000
73.833835,-0.031720,-0.257176,0.948672,-1.120000,-0.140000,-0.140000
73.841922,-0.091256,-0.156160,1.015040,0.280000,2.100000,-2.380000
73.850009,0.033672,-0.202520,0.997960,-2.520000,-0.700000,-0.420000
73.858096,-0.059048,-0.220576,0.959896,-1.400000,0.140000,-0.420000
73.866183,-0.078568,-0.210816,1.018456,-1.260000,2.520000,-1.820000
73.874270,0.017080,-0.216184,0.979904,-1.820000,-0.420000,-0.560000
73.882357,-0.061000,-0.183488,0.930128,0.140000,-0.700000,-0.280000
73.890445,-0.041968,-0.213256,1.051640,-0.980000,1.960000,-1.400000
73.898532,-0.020496,-0.227408,0.984296,-2.940000,-0.140000,-0.140000
73.906619,-0.045872,-0.189832,0.934032,0.140000,0.840000,-1.540000
73.914706,-0.049288,-0.217160,1.028704,-0.700000,1.820000,-1.120000
73.922793,-0.000488,-0.235216,0.971120,-2.800000,-0.980000,0.000000
73.930880,-0.068808,-0.160064,0.966728,-0.280000,1.260000,-1.680000
73.938968,-0.006344,-0.246928,1.049200,-2.380000,0.980000,-0.980000
73.947055,-0.061976,-0.226920,0.931104,-1.820000,0.140000,-0.280000
73.955142,-0.040504,-0.176168,0.972096,0.700000,1.260000,-1.680000
73.963229,-0.000488,-0.209840,1.038464,-2.520000,0.280000,-0.140000
73.971316,-0.064416,-0.236680,0.937448,-1.680000,-0.140000,-0.560000
73.979403,-0.059536,-0.198128,1.006744,0.000000,2.660000,-2.240000
73.987491,0.014152,-0.224968,0.998448,-1.540000,-1.260000,0.700000
73.995578,-0.092232,-0.174216,0.951112,-0.560000,0.700000,-1.540000
74.003665,0.000976,-0.220576,1.050664,-1.820000,1.400000,-1.400000
74.011752,-0.018056,-0.243512,0.965752,-2.660000,0.420000,0.140000
74.019839,-0.118096,-0.168360,0.925248,-0.840000,1.260000,-1.820000
74.027926,0.050264,-0.232288,1.076528,-3.220000,0.280000,-0.700000
74.036014,-0.057096,-0.236192,0.932080,-2.800000,-0.140000,0.280000
74.044101,-0.074176,-0.186416,0.994544,-0.420000,1.680000,-2.100000
74.052188,0.001952,-0.236680,1.038464,-3.080000,0.700000,-0.560000
74.060275,-0.052704,-0.233264,0.874496,-1.120000,-0.280000,-0.140000
74.068362,-0.058072,-0.196664,1.029192,0.560000,2.240000,-2.240000
74.076449,0.019520,-0.210816,1.041392,-3.360000,-1.400000,0.560000
74.084537,-0.084424,-0.217160,0.901336,-1.260000,1.680000,-1.540000
74.092624,-0.052216,-0.226432,1.010160,-0.700000,1.680000,-1.680000
74.100711,0.032696,-0.209840,1.034560,-2.380000,-1.260000,0.700000
74.108798,-0.102968,-0.195688,0.920368,0.140000,1.120000,-1.820000
74.116885,0.010736,-0.228872,1.051640,-1.400000,0.560000,-0.700000
74.124972,-0.031720,-0.245464,0.944280,-1.960000,-0.140000,-0.140000
74.133060,-0.091256,-0.187880,0.952576,-0.140000,2.100000,-2.240000
74.141147,0.020496,-0.220088,1.037488,-2.240000,0.560000,-0.140000
74.149234,-0.058072,-0.232776,0.960872,-1.680000,-1.400000,-0.420000
74.157321,-0.048312,-0.223504,0.996984,-0.980000,2.800000,-2.380000
74.165408,0.008784,-0.207400,1.013088,-2.520000,0.280000,-0.280000
74.173495,-0.106384,-0.212280,0.886208,-1.400000,-0.560000,-0.420000
74.181583,-0.011224,-0.239608,1.057496,-1.540000,2.800000,-2.380000
74.189670,-0.000976,-0.253272,0.972584,-2.380000,-1.120000,0.700000
74.197757,-0.089792,-0.164456,0.929640,0.700000,1.260000,-1.820000
74.205844,-0.028792,-0.236192,1.049688,-1.960000,1.960000,-1.120000
74.213931,0.011712,-0.246928,0.963800,-2.660000,-1.540000,0.420000
74.222018,-0.113216,-0.162504,0.946232,0.560000,1.680000,-1.960000
74.230106,0.039528,-0.235216,1.078968,-2.800000,-0.280000,0.280000
74.238193,-0.080032,-0.258152,0.896944,-1.960000,1.120000,-0.840000
74.246280,-0.069296,-0.217648,0.984784,0.700000,1.680000,-2.380000
74.254367,0.040016,-0.217648,1.031144,-2.380000,-0.560000,0.140000
74.262454,-0.083936,-0.209840,0.936472,-1.260000,0.000000,-0.700000
74.270541,-0.018056,-0.228384,1.038952,-1.680000,2.100000,-2.380000
74.278629,-0.014640,-0.239608,0.975512,-2.520000,-0.560000,0.840000
74.286716,-0.099064,-0.213256,0.903288,0.140000,0.980000,-1.680000
74.294803,0.005856,-0.209352,1.059448,-1.680000,1.400000,-1.260000
74.302890,-0.012688,-0.227408,1.001864,-2.100000,-2.520000,0.560000
74.310977,-0.095648,-0.216672,0.955992,-0.840000,3.360000,-2.940000
74.319064,0.007808,-0.220088,1.000888,-3.220000,0.700000,-0.280000
74.327152,-0.041480,-0.260104,0.932568,-1.960000,-0.980000,0.000000
74.335239,-0.068808,-0.216672,0.994544,-0.280000,1.820000,-2.100000
74.343326,0.029280,-0.205936,1.037488,-3.780000,0.140000,-0.140000
74.351413,-0.106872,-0.241560,0.901336,-1.960000,-0.140000,-0.420000
74.359500,0.002440,-0.261080,1.006256,-0.280000,2.800000,-2.240000
74.367587,-0.031232,-0.213744,1.005768,-2.100000,-0.560000,0.700000
74.375675,-0.071736,-0.206912,0.905728,-0.420000,-0.280000,-1.260000
74.383762,0.019032,-0.241072,1.106296,-1.540000,2.240000,-1.820000
74.391849,-0.051728,-0.243024,0.922320,-2.940000,-0.420000,0.700000
74.399936,-0.103456,-0.206912,0.909632,0.420000,1.680000,-2.520000
74.408023,0.019520,-0.234728,1.083360,-2.240000,0.000000,-0.280000
74.416110,-0.024400,-0.235216,0.922808,-2.100000,-0.700000,-0.140000
74.424198,-0.106384,-0.234728,0.993080,-0.280000,2.940000,-2.660000
74.432285,0.031232,-0.209352,1.035536,-2.520000,-0.840000,0.840000
74.440372,-0.094184,-0.262544,0.892552,-0.980000,0.980000,-1.540000
74.448459,-0.015128,-0.229848,1.024800,0.980000,0.700000,-1.260000
74.456546,0.016104,-0.227408,1.007232,-1.540000,-0.280000,0.700000
74.464633,-0.115656,-0.219600,0.930616,0.280000,0.840000,-1.680000
74.472721,0.017080,-0.234728,1.057984,-0.700000,1.960000,-1.120000
74.480808,-0.031720,-0.264496,0.913048,-1.260000,-0.840000,0.560000
74.488895,-0.094672,-0.195688,0.954040,1.400000,0.700000,-1.820000
74.496982,0.021960,-0.219112,1.088728,-1.960000,1.260000,-0.700000
74.505069,-0.046360,-0.225944,0.914024,-1.680000,-1.820000,-0.140000
74.513156,-0.062952,-0.267424,1.002352,0.420000,3.360000,-2.660000
74.521244,-0.001952,-0.221552,0.971120,-1.120000,0.140000,0.140000
74.529331,-0.067832,-0.209840,0.955504,-0.280000,-0.840000,-0.700000
74.537418,-0.016592,-0.265472,1.031632,-0.560000,2.240000,-2.240000
74.545505,-0.010248,-0.224480,0.960872,-1.400000,0.280000,0.420000
74.553592,-0.126392,-0.236680,0.907192,0.420000,1.960000,-2.100000
74.561679,0.031720,-0.243512,1.068720,-0.560000,-0.280000,-0.280000
74.569767,-0.025376,-0.227896,0.941352,-0.840000,0.840000,-0.420000
74.577854,-0.118584,-0.203008,0.970632,-0.420000,0.280000,-1.960000
74.585941,0.046848,-0.246928,1.037488,-1.820000,0.980000,-0.420000
74.594028,-0.053680,-0.264008,0.914024,-0.420000,-0.420000,-0.420000
74.602115,-0.074664,-0.231800,0.979904,0.840000,1.820000,-1.820000
74.610202,0.023424,-0.215208,1.050176,-1.260000,-0.560000,0.140000
74.618290,-0.064904,-0.223992,0.930616,-1.540000,0.560000,-0.980000
74.626377,-0.042456,-0.268888,0.995032,-0.420000,1.820000,-1.820000
74.634464,-0.019520,-0.227408,0.986248,-1.120000,-0.560000,0.560000
74.642551,-0.063928,-0.222528,0.939888,-0.140000,0.700000,-1.540000
74.650638,0.004392,-0.242048,1.035536,-0.280000,0.980000,-0.980000
74.658725,-0.033184,-0.249368,0.961360,-1.540000,-0.980000,0.560000
74.666813,-0.100040,-0.244976,0.943792,1.820000,3.360000,-2.100000
74.674900,0.022936,-0.244488,0.984296,0.700000,-0.840000,0.000000
74.682987,-0.061000,-0.223504,0.992104,0.420000,-0.560000,-0.420000
74.691074,-0.037576,-0.233752,0.993568,0.980000,1.540000,-1.680000
74.699161,0.011224,-0.244000,0.980392,-0.420000,-0.280000,0.280000
74.707248,-0.108336,-0.231312,0.942816,0.700000,1.120000,-1.260000
74.715336,-0.020008,-0.238144,0.987224,1.540000,0.420000,-0.840000
74.723423,0.007320,-0.246928,0.996008,-0.700000,-0.280000,0.280000
74.731510,-0.112728,-0.198128,0.976000,-0.140000,1.820000,-1.820000
74.739597,0.003416,-0.257664,1.003816,0.000000,0.280000,-0.560000
74.747684,-0.014640,-0.272792,0.976488,0.140000,-0.420000,-0.140000
74.755771,-0.101016,-0.190808,0.919880,1.260000,2.240000,-1.400000
74.763859,0.029280,-0.250344,1.051152,-0.420000,-1.120000,0.000000
74.771946,-0.041968,-0.265472,0.963312,0.000000,0.000000,-0.140000
74.780033,-0.091744,-0.229848,0.944280,2.380000,3.080000,-2.240000
74.788120,0.009272,-0.235704,1.013088,1.260000,-1.400000,0.840000
74.796207,-0.028304,-0.216672,0.964776,1.120000,-0.420000,-0.560000
74.804294,-0.060512,-0.226432,0.982832,1.260000,2.380000,-0.980000
74.812382,-0.019520,-0.267424,1.004304,-0.840000,-0.700000,0.280000
74.820469,-0.063440,-0.232776,0.933056,0.560000,1.820000,-1.820000
74.828556,-0.002928,-0.236680,1.024312,0.980000,0.000000,-0.980000
74.836643,-0.019032,-0.246440,0.977464,0.140000,-0.560000,0.280000
74.844730,-0.097112,-0.226432,0.962824,0.420000,2.240000,-1.680000
74.852817,0.007320,-0.224480,0.991128,1.120000,0.280000,0.280000
74.860905,-0.066368,-0.280112,0.944768,0.420000,0.560000,0.000000
74.868992,-0.049776,-0.209840,0.969656,1.680000,0.840000,-0.840000
74.877079,0.023912,-0.238144,1.042856,0.840000,-0.560000,-0.140000
74.885166,-0.066856,-0.265472,0.938912,0.420000,0.140000,-0.140000
74.893253,-0.058072,-0.210816,0.962336,2.520000,2.520000,-1.400000
74.901340,-0.009760,-0.252784,1.025288,1.820000,-0.980000,0.420000
74.909428,-0.055632,-0.219112,0.949648,1.260000,0.140000,-0.560000
74.917515,-0.015128,-0.214720,1.004304,1.400000,1.400000,-0.560000
74.925602,-0.045384,-0.274256,1.028216,0.000000,-0.560000,0.420000
74.933689,-0.051240,-0.229360,0.892064,1.960000,1.960000,-1.120000
74.941776,-0.013176,-0.230824,0.990640,1.820000,-0.280000,0.420000
74.949863,-0.046848,-0.258152,1.029680,-0.140000,-0.980000,-0.280000
74.957951,-0.025376,-0.234240,0.953064,1.260000,1.960000,-1.400000
74.966038,-0.019032,-0.233264,1.004792,1.400000,0.280000,0.280000
74.974125,-0.087840,-0.246928,0.922320,0.840000,-0.280000,-0.140000
74.982212,0.001464,-0.209352,0.998936,2.660000,1.960000,-0.840000
74.990299,-0.035136,-0.246440,1.025288,0.280000,-1.120000,0.280000
74.998386,-0.077104,-0.245464,0.939888,0.420000,0.980000,-1.400000
75.006474,0.006832,-0.235216,1.002840,2.520000,1.120000,-0.420000
75.014561,-0.061000,-0.254736,0.962336,1.120000,-0.280000,0.280000
75.022648,-0.052216,-0.225944,0.949648,2.240000,0.420000,-1.400000
75.030735,0.019520,-0.216672,1.042856,1.680000,0.000000,0.140000
75.038822,-0.066368,-0.260592,0.953064,0.280000,0.560000,-0.140000
75.046909,-0.061976,-0.234728,0.955992,2.100000,2.240000,-1.680000
75.054997,-0.009272,-0.217648,0.992592,2.380000,-1.260000,0.560000
75.063084,-0.038064,-0.256688,0.990640,1.540000,0.420000,-0.980000
75.071171,-0.054168,-0.222040,1.001864,1.820000,1.400000,-1.400000
75.079258,-0.010736,-0.241560,0.980392,1.400000,-0.420000,0.280000
75.087345,-0.073200,-0.263032,0.919392,2.520000,1.680000,-1.120000
75.095432,0.000000,-0.200568,1.038952,2.380000,0.140000,-0.560000
75.103520,-0.040016,-0.255712,0.964288,1.120000,-0.280000,0.280000
75.111607,-0.061976,-0.234728,0.954528,2.100000,1.400000,-1.680000
75.119694,0.000488,-0.227896,1.029680,1.680000,0.420000,-0.280000
75.127781,-0.056120,-0.240584,0.946720,1.540000,-0.140000,0.000000
75.135868,-0.039528,-0.221552,0.956968,2.100000,0.980000,-1.260000
75.143955,-0.013176,-0.244976,1.057984,1.120000,0.420000,-0.560000
75.152043,-0.061000,-0.220576,0.911096,0.840000,0.000000,-0.280000
75.160130,-0.039528,-0.260104,0.989664,2.520000,1.960000,-1.820000
75.168217,-0.025864,-0.214720,0.984296,2.520000,0.280000,-0.280000
75.176304,-0.059536,-0.221552,0.978928,1.400000,-0.700000,-0.700000
75.184391,-0.007320,-0.240096,1.008696,1.540000,1.400000,-0.980000
75.192478,-0.029768,-0.246928,0.979416,1.400000,0.560000,-0.420000
75.200565,-0.109800,-0.235216,0.923296,1.400000,0.980000,-1.400000
75.208653,0.050264,-0.232288,1.031144,1.260000,0.140000,-0.420000
75.216740,-0.056120,-0.233264,0.983808,1.260000,0.700000,0.140000
75.224827,-0.082472,-0.224968,0.953552,1.540000,0.840000,-1.820000
75.232914,0.007808,-0.248880,1.012112,1.260000,0.560000,-0.840000
75.241001,-0.050752,-0.223504,0.950624,1.960000,-0.420000,0.140000
75.249088,-0.043920,-0.248880,0.970632,2.660000,2.100000,-1.400000
75.257176,-0.007808,-0.235704,1.030168,1.820000,-1.120000,0.420000
75.265263,-0.059536,-0.223992,0.951112,2.240000,0.280000,-0.840000
75.273350,-0.031720,-0.247904,0.935008,3.640000,2.240000,-0.700000
75.281437,-0.030744,-0.222528,1.035536,1.540000,-1.120000,0.840000
75.289524,-0.080520,-0.204960,0.972096,2.100000,1.120000,-0.980000
75.297611,0.017568,-0.251808,0.980880,2.100000,0.700000,-0.700000
75.305699,-0.061000,-0.237168,0.994544,1.680000,-0.420000,-0.280000
75.313786,-0.061488,-0.213744,0.947208,2.660000,1.960000,-1.260000
75.321873,0.013176,-0.230824,0.992592,1.680000,-0.560000,0.140000
75.329960,-0.066856,-0.224480,0.998936,0.560000,0.280000,-0.560000
75.338047,-0.044408,-0.233752,0.964288,2.240000,1.260000,-1.540000
75.346134,0.003416,-0.267912,0.998936,1.400000,-0.140000,-0.420000
75.354222,-0.076616,-0.193248,0.956968,1.680000,0.840000,-0.700000
75.362309,-0.010736,-0.235704,0.998936,1.400000,0.000000,-0.280000
75.370396,-0.020496,-0.243024,1.016016,1.120000,-0.140000,-0.420000
75.378483,-0.081984,-0.242536,0.945256,1.260000,2.520000,-1.260000
75.386570,-0.022448,-0.239608,0.955504,2.100000,-0.280000,-0.560000
75.394657,-0.016592,-0.235216,1.000400,1.680000,-0.560000,-0.420000
75.402745,-0.047336,-0.202032,0.985760,1.960000,2.100000,-0.700000
75.410832,-0.047336,-0.257176,0.990640,1.540000,0.280000,-0.280000
75.418919,-0.038552,-0.239120,0.969168,2.240000,-0.140000,-0.980000
75.427006,-0.032696,-0.210328,0.980392,3.500000,1.960000,-0.980000
75.435093,-0.037576,-0.234728,0.988200,1.680000,-1.120000,0.000000
75.443180,-0.025376,-0.223504,1.012600,1.820000,0.140000,-0.420000
75.451268,-0.039040,-0.206912,0.950136,3.360000,1.540000,0.000000
75.459355,-0.055632,-0.277672,0.973072,1.820000,-0.280000,-0.280000
75.467442,-0.013664,-0.213744,0.993080,2.240000,0.840000,-0.280000
75.475529,-0.029280,-0.205936,0.995032,2.240000,-0.420000,0.000000
75.483616,-0.047336,-0.251808,0.983320,1.260000,0.420000,-0.560000
75.491703,-0.043432,-0.211304,0.950624,3.080000,1.820000,-0.140000
75.499791,-0.030256,-0.235704,1.003328,2.100000,-0.700000,0.420000
75.507878,-0.043432,-0.236192,0.948672,1.820000,1.120000,-0.420000
75.515965,-0.034648,-0.199104,1.011136,2.660000,-0.280000,0.840000
75.524052,-0.040992,-0.233752,1.012112,0.700000,0.140000,-0.140000
75.532139,-0.022448,-0.228872,0.933544,1.260000,1.400000,-0.280000
75.540226,-0.045872,-0.214720,1.006256,1.960000,-0.700000,0.700000
75.548314,-0.037088,-0.243024,0.981368,0.560000,0.420000,0.280000
75.556401,-0.003416,-0.222040,0.983808,1.260000,0.560000,0.420000
75.564488,-0.070760,-0.232776,0.989664,0.560000,0.140000,0.140000
75.572575,-0.040992,-0.241072,0.932568,1.960000,1.120000,0.000000
75.580662,0.009272,-0.225944,1.022360,2.520000,-0.980000,1.400000
75.588749,-0.071736,-0.202032,0.980392,0.840000,0.980000,0.000000
75.596837,-0.037576,-0.250832,0.981368,1.400000,0.140000,0.140000
75.604924,-0.021960,-0.235704,0.996008,1.820000,0.560000,0.700000
75.613011,-0.062464,-0.243024,0.938912,1.680000,0.840000,-0.420000
75.621098,-0.019032,-0.222040,1.003816,2.940000,-0.420000,0.000000
75.629185,-0.035624,-0.194224,0.984784,3.080000,0.420000,0.420000
75.637272,-0.038552,-0.263032,0.994544,1.960000,1.120000,-0.700000
75.645360,-0.037088,-0.219600,0.993080,2.100000,0.980000,-0.560000
75.653447,-0.041968,-0.225944,0.961360,2.520000,0.140000,0.000000
75.661534,-0.041480,-0.249368,0.962824,2.380000,0.280000,-0.420000
75.669621,-0.009760,-0.191784,1.033096,2.380000,0.280000,-0.140000
75.677708,-0.058560,-0.263520,0.941352,1.820000,1.120000,-0.140000
75.685795,-0.032696,-0.222528,0.972584,3.220000,0.700000,-0.420000
75.693883,-0.042456,-0.217160,1.009672,2.660000,0.280000,-0.280000
75.701970,-0.020984,-0.218136,0.982832,1.540000,-1.120000,-0.420000
75.710057,-0.030744,-0.231800,0.977464,2.240000,1.680000,-0.840000
75.718144,-0.053192,-0.211792,0.982832,2.520000,0.560000,0.280000
75.726231,-0.043920,-0.235704,0.977952,2.800000,0.700000,-0.560000
75.734318,-0.019520,-0.216184,0.989664,1.820000,-0.700000,0.000000
75.742406,-0.032208,-0.192760,1.010648,1.400000,0.980000,0.000000
75.750493,-0.069296,-0.246928,0.951112,1.400000,1.260000,-0.980000
75.758580,-0.005856,-0.234728,1.006744,2.100000,-0.700000,-0.420000
75.766667,-0.067832,-0.214720,0.954528,1.960000,1.540000,0.140000
75.774754,-0.033672,-0.226432,0.978928,2.380000,-0.280000,-0.140000
75.782841,0.008784,-0.230824,1.034560,2.380000,-0.140000,-0.280000
75.790929,-0.060512,-0.214232,0.952088,1.680000,1.260000,-0.140000
75.799016,-0.044408,-0.248392,0.964288,2.240000,0.700000,-0.280000
75.807103,-0.029768,-0.191296,1.020896,1.960000,-0.140000,0.140000
75.815190,-0.027816,-0.212280,0.949648,1.400000,0.420000,-0.140000
75.823277,-0.042944,-0.254736,0.992104,1.820000,0.280000,0.000000
75.831364,-0.045872,-0.205936,0.993568,1.260000,0.700000,0.000000
75.839452,-0.038552,-0.239608,0.958920,2.100000,0.700000,-0.700000
75.847539,-0.017568,-0.230336,0.982344,2.660000,-0.140000,0.280000
75.855626,-0.047824,-0.204960,0.999912,1.820000,0.980000,0.000000
75.863713,-0.028304,-0.218136,0.988200,1.960000,0.140000,-0.140000
75.871800,-0.057584,-0.230336,0.987224,1.960000,1.400000,-0.840000
75.879887,-0.044408,-0.238632,0.960384,2.240000,0.420000,-0.280000
75.887975,-0.016592,-0.216184,0.985760,2.800000,-0.280000,-0.420000
75.896062,-0.034648,-0.205448,1.010648,2.240000,0.420000,-0.560000
75.904149,-0.026352,-0.216672,0.969656,1.820000,0.840000,-0.140000
75.912236,-0.073688,-0.248880,0.961848,2.100000,0.980000,-0.700000
75.920323,0.007808,-0.203984,0.997472,2.240000,0.140000,-0.140000
75.928410,-0.048800,-0.242536,0.982832,1.960000,0.420000,-0.840000
75.936497,-0.055144,-0.184952,0.987712,1.820000,-0.280000,-0.280000
75.944585,-0.022448,-0.229360,0.999424,1.960000,2.240000,-0.840000
75.952672,-0.063440,-0.230824,0.936472,1.120000,0.280000,-0.700000
75.960759,-0.019032,-0.206424,0.992592,1.960000,-0.560000,-0.140000
75.968846,-0.034648,-0.222040,1.011624,0.980000,1.400000,-0.700000
75.976933,-0.034648,-0.233752,0.963800,0.560000,0.000000,-0.420000
75.985020,-0.058072,-0.226432,0.990640,2.520000,1.820000,-1.260000
75.993108,-0.043432,-0.209840,0.972584,2.940000,0.700000,-0.280000
76.001195,0.001952,-0.237168,1.003816,2.380000,-1.540000,0.140000
76.009282,-0.049776,-0.176168,1.007720,2.380000,1.680000,-1.260000
76.017369,-0.034160,-0.236192,0.960384,0.980000,-0.140000,-0.140000
76.025456,-0.028792,-0.233264,0.954528,1.960000,1.400000,-0.840000
76.033543,-0.067832,-0.213744,0.988688,2.380000,0.000000,-0.420000
76.041631,0.002440,-0.209352,1.016504,1.400000,-0.560000,0.000000
76.049718,-0.052216,-0.244976,0.978440,1.540000,1.400000,-0.840000
76.057805,-0.061000,-0.200568,0.975024,1.960000,0.840000,-0.700000
76.065892,-0.002440,-0.240584,0.968192,1.820000,0.280000,-0.700000
76.073979,-0.061976,-0.203984,0.978928,2.800000,0.280000,-0.560000
76.082066,-0.011224,-0.184464,1.042856,1.400000,0.140000,-0.560000
76.090154,-0.050264,-0.253760,0.961848,0.700000,1.540000,-0.980000
76.098241,-0.047336,-0.217648,0.963800,1.960000,0.560000,-0.700000
76.106328,-0.035136,-0.195200,0.979904,1.960000,0.700000,-0.560000
76.114415,-0.030744,-0.237656,0.998448,0.980000,-0.700000,0.000000
76.122502,-0.026352,-0.204472,1.013088,1.680000,1.680000,-1.260000
76.130589,-0.049776,-0.207400,0.980880,1.120000,0.000000,0.140000
76.138677,-0.034160,-0.245464,0.945744,1.400000,0.840000,-0.980000
76.146764,-0.031232,-0.199592,1.015528,1.540000,0.000000,-0.700000
76.154851,-0.002928,-0.210328,0.987712,0.420000,0.140000,0.000000
76.162938,-0.080520,-0.245952,0.972584,0.840000,1.540000,-1.260000
76.171025,-0.031720,-0.193736,1.016016,0.700000,0.980000,-0.980000
76.179112,-0.023424,-0.223016,0.924272,0.420000,0.280000,-0.560000
76.187200,-0.052216,-0.219112,0.994544,0.980000,-0.280000,-0.700000
76.195287,-0.011712,-0.209840,1.040416,0.560000,1.260000,-0.840000
76.203374,-0.027816,-0.236192,0.929152,0.140000,0.420000,-0.420000
76.211461,-0.084912,-0.214232,0.977464,1.260000,1.400000,-1.540000
76.219548,-0.009760,-0.208376,1.015528,0.280000,0.420000,-0.420000
76.227635,-0.015128,-0.215208,0.974536,0.420000,-0.840000,-0.140000
76.235723,-0.075152,-0.212768,0.967704,0.840000,1.820000,-1.260000
76.243810,-0.021472,-0.219112,1.033096,-0.420000,0.840000,-0.980000
76.251897,-0.039040,-0.216184,0.952088,-0.420000,-0.140000,-0.560000
76.259984,-0.054168,-0.222528,0.968192,0.280000,1.540000,-1.400000
76.268071,-0.009272,-0.216184,1.011624,-0.840000,0.000000,-0.420000
76.276158,-0.047336,-0.215696,0.988688,0.000000,-0.420000,-1.120000
76.284246,-0.046360,-0.234240,0.999912,0.000000,2.380000,-1.680000
76.292333,-0.017080,-0.211304,0.951112,0.000000,0.280000,-0.140000
76.300420,-0.055632,-0.217648,0.990640,1.680000,-0.700000,-0.840000
76.308507,-0.034648,-0.240584,0.984784,0.840000,1.540000,-1.540000
76.316594,0.005368,-0.192760,1.027728,0.140000,0.000000,-0.140000
76.324681,-0.099064,-0.207400,0.911584,1.120000,1.120000,-1.120000
76.332769,-0.007808,-0.270840,0.999424,0.140000,1.120000,-1.540000
76.340856,-0.038064,-0.178120,0.981368,0.420000,0.140000,-0.280000
76.348943,-0.058560,-0.216672,0.960384,1.260000,-0.280000,-1.260000
76.357030,-0.000488,-0.261080,1.063352,-0.140000,1.820000,-1.680000
76.365117,-0.040992,-0.190320,0.928176,0.840000,0.280000,0.000000
76.373205,-0.083936,-0.244000,0.946720,2.520000,1.120000,-1.820000
76.381292,0.009272,-0.214720,1.047248,1.400000,-0.140000,-0.700000
76.389379,-0.041968,-0.196176,0.964288,1.260000,0.560000,-0.140000
76.397466,-0.067344,-0.233752,0.977952,1.680000,0.980000,-1.680000
76.405553,-0.000976,-0.224968,1.051640,0.700000,0.280000,-0.700000
76.413640,-0.049288,-0.192760,0.913048,1.260000,0.420000,-0.280000
76.421728,-0.052704,-0.238632,0.992104,2.100000,0.420000,-1.540000
76.429815,0.016592,-0.205448,1.057984,0.000000,0.420000,-0.700000
76.437902,-0.071736,-0.204472,0.912072,0.980000,0.840000,-0.980000
76.445989,-0.051728,-0.261080,0.994056,1.820000,1.120000,-1.820000
76.454076,-0.009760,-0.204960,0.998448,1.400000,0.140000,-0.840000
76.462163,-0.056608,-0.199104,0.933544,2.240000,-0.420000,-0.420000
76.470251,-0.039040,-0.252296,1.030168,1.400000,1.960000,-1.960000
76.478338,-0.008296,-0.209840,0.980880,1.680000,0.140000,-0.700000
76.486425,-0.058072,-0.227408,0.933056,3.220000,0.280000,-0.700000
76.494512,-0.034160,-0.217160,1.033096,1.960000,1.120000,-0.980000
76.502599,-0.022448,-0.206424,0.996984,1.120000,0.140000,-0.280000
76.510686,-0.043432,-0.207888,0.943304,1.680000,0.140000,-1.120000
76.518774,-0.053192,-0.244488,1.006744,1.680000,2.100000,-1.680000
76.526861,-0.032208,-0.212768,0.970632,0.700000,-0.560000,-0.280000
76.534948,-0.041968,-0.193736,0.967704,2.660000,0.560000,-1.120000
76.543035,-0.027328,-0.236680,1.037976,0.980000,0.840000,-1.120000
76.551122,-0.017080,-0.191296,0.978928,0.420000,-0.280000,-0.140000
76.559209,-0.075152,-0.234728,0.943792,2.240000,1.820000,-2.100000
76.567297,-0.020496,-0.224480,1.009672,1.400000,-0.140000,-0.840000
76.575384,-0.002928,-0.193248,0.974536,0.980000,-0.280000,-0.140000
76.583471,-0.084912,-0.238144,0.990152,1.540000,1.820000,-1.540000
76.591558,-0.009272,-0.222040,1.017968,1.120000,0.140000,-0.560000
76.599645,-0.045872,-0.204472,0.926224,1.960000,0.700000,-0.700000
76.607732,-0.058560,-0.214720,0.998448,2.380000,0.840000,-1.540000
76.615820,0.011224,-0.233752,1.025776,0.840000,-0.280000,-0.280000
76.623907,-0.059536,-0.177144,0.953064,1.680000,1.260000,-0.980000
76.631994,-0.080032,-0.242536,0.986248,1.260000,0.980000,-1.680000
76.640081,0.025376,-0.219112,0.981368,0.840000,0.420000,-0.560000
76.648168,-0.091256,-0.179584,0.945744,2.660000,0.280000,-1.400000
76.656255,-0.003904,-0.256200,1.060424,0.560000,0.280000,-1.820000
76.664343,-0.022448,-0.213744,0.928664,1.820000,0.980000,-0.700000
76.672430,-0.081008,-0.192760,0.988200,1.400000,1.120000,-1.120000
76.680517,-0.018056,-0.239120,1.013088,0.700000,0.560000,-1.260000
76.688604,-0.005368,-0.225944,0.978928,1.260000,-0.840000,-0.280000
76.696691,-0.064904,-0.192760,0.985272,2.100000,1.820000,-1.400000
76.704778,-0.021960,-0.235216,1.005280,0.840000,0.560000,-0.980000
76.712866,-0.034648,-0.226432,0.942328,1.680000,-0.420000,-0.560000
76.720953,-0.057584,-0.183000,0.991128,2.940000,0.700000,-0.980000
76.729040,-0.008296,-0.243512,1.015040,1.120000,0.140000,-0.560000
76.737127,-0.034648,-0.208376,0.987224,1.400000,0.420000,-0.840000
76.745214,-0.074664,-0.207400,0.959408,2.380000,1.960000,-1.260000
76.753301,-0.006344,-0.236680,0.985272,1.540000,0.000000,-0.840000
76.761389,-0.044408,-0.195688,0.993568,2.240000,-0.140000,-0.840000
76.769476,-0.037576,-0.225456,0.987712,2.380000,1.680000,-1.400000
76.777563,-0.006832,-0.213256,0.954528,1.820000,-0.280000,-0.140000
76.785650,-0.084912,-0.221552,0.992104,2.800000,1.400000,-1.540000
76.793737,-0.017080,-0.205448,0.996008,1.680000,0.280000,-0.560000
76.801824,-0.021472,-0.232776,0.989176,1.540000,-0.280000,-0.280000
76.809912,-0.048800,-0.175680,0.973560,2.380000,0.280000,-0.980000
76.817999,-0.030256,-0.243024,1.039928,1.400000,1.960000,-1.260000
76.826086,-0.045872,-0.211792,0.909144,1.540000,-0.840000,-0.140000
76.834173,-0.048800,-0.199104,1.002840,2.660000,1.960000,-1.820000
76.842260,-0.014640,-0.236680,1.033584,1.680000,-0.560000,-0.840000
76.850347,-0.021472,-0.206912,0.949648,2.100000,0.140000,-0.140000
76.858435,-0.104920,-0.192272,0.990640,2.800000,2.660000,-1.820000
76.866522,0.009272,-0.237656,0.982344,0.700000,-0.560000,-0.280000
76.874609,-0.038064,-0.195688,0.970632,2.520000,0.280000,-1.120000
76.882696,-0.073688,-0.203984,0.998448,1.820000,1.260000,-1.400000
76.890783,0.026352,-0.236192,1.021872,0.560000,0.280000,-0.560000
76.898870,-0.097112,-0.198616,0.909144,2.660000,0.840000,-1.120000
76.906958,-0.002440,-0.219112,1.037488,2.240000,0.140000,-0.840000
76.915045,-0.025864,-0.210816,0.967704,0.700000,0.560000,-0.280000
76.923132,-0.058072,-0.196176,0.987224,1.260000,-0.140000,-0.840000
76.931219,-0.047336,-0.209352,1.017480,1.680000,2.520000,-1.820000
76.939306,-0.012200,-0.238144,0.933544,1.120000,-1.400000,-0.560000
76.947393,-0.056120,-0.196664,1.018456,3.360000,1.820000,-1.960000
76.955481,-0.011224,-0.211792,1.011136,1.120000,0.420000,-0.560000
76.963568,-0.029280,-0.237168,0.937936,2.100000,-0.140000,-0.140000
76.971655,-0.081496,-0.206912,0.983808,3.080000,2.380000,-2.100000
76.979742,0.016104,-0.216672,1.027728,1.960000,-1.540000,0.140000
76.987829,-0.061488,-0.190320,0.938424,2.800000,0.980000,-1.120000
76.995916,-0.040504,-0.214232,1.033096,2.800000,1.120000,-1.400000
77.004004,-0.005856,-0.205936,1.008208,1.120000,0.000000,-0.700000
77.012091,-0.070760,-0.220576,0.901824,1.960000,0.700000,-0.420000
77.020178,-0.038552,-0.210816,1.015528,2.240000,1.120000,-1.540000
77.028265,0.009760,-0.206912,1.033096,1.260000,-1.120000,-0.140000
77.036352,-0.067344,-0.206424,0.913536,1.960000,1.260000,-0.840000
77.044439,-0.049288,-0.204960,1.045784,1.960000,2.100000,-1.680000
77.052527,-0.024400,-0.224480,0.949160,1.120000,-1.260000,0.000000
77.060614,-0.040504,-0.196176,0.965752,2.520000,1.120000,-1.680000
77.068701,-0.033672,-0.199592,1.053592,1.120000,1.400000,-0.980000
77.076788,-0.025864,-0.228384,0.956480,0.700000,-0.420000,0.000000
77.084875,-0.078568,-0.223992,0.937448,3.220000,2.240000,-2.240000
77.092962,-0.009760,-0.178120,1.054080,1.540000,-0.980000,0.280000
77.101050,-0.026840,-0.233264,0.956480,1.540000,0.560000,-0.560000
77.109137,-0.065880,-0.178608,0.978928,2.100000,0.560000,-1.400000
77.117224,-0.007320,-0.225944,1.052128,0.560000,1.120000,-0.840000
77.125311,-0.067344,-0.223992,0.883280,1.400000,-0.280000,0.000000
77.133398,0.000488,-0.203008,1.037976,3.080000,1.400000,-1.400000
77.141485,-0.033672,-0.216184,1.018456,1.400000,-0.700000,-0.140000
77.149573,-0.052216,-0.226432,0.926712,2.380000,1.120000,-1.260000
77.157660,-0.039040,-0.185440,0.989176,3.640000,1.680000,-1.400000
77.165747,-0.002440,-0.209840,1.012112,1.400000,-1.120000,0.420000
77.173834,-0.090280,-0.201544,0.960872,2.380000,1.120000,-1.260000
77.181921,-0.014640,-0.218136,1.012112,2.100000,1.120000,-1.120000
77.190008,-0.022936,-0.205448,0.994544,2.520000,-0.420000,0.000000
77.198096,-0.087840,-0.204472,0.941840,2.660000,1.120000,-0.980000
77.206183,0.015616,-0.193248,1.034072,1.960000,0.840000,-0.840000
77.214270,-0.027816,-0.201544,0.977464,2.100000,-1.680000,0.000000
77.222357,-0.070272,-0.249856,0.983808,2.940000,3.220000,-2.380000
77.230444,-0.028304,-0.176656,0.970632,1.960000,0.420000,0.000000
77.238531,-0.031720,-0.222528,0.988688,3.360000,-1.260000,-0.420000
77.246619,-0.060024,-0.203984,0.995520,3.640000,1.680000,-1.540000
77.254706,0.006832,-0.188856,1.015528,1.400000,-0.420000,0.560000
77.262793,-0.079544,-0.226920,0.956480,3.080000,0.980000,-1.120000
77.270880,-0.018544,-0.214232,0.995032,3.500000,1.120000,-1.400000
77.278967,0.016592,-0.199104,0.988200,1.540000,-0.980000,0.140000
77.287054,-0.118584,-0.186416,0.949648,3.080000,1.120000,-1.260000
77.295142,0.011224,-0.219112,1.065304,2.240000,0.420000,-0.700000
77.303229,-0.049776,-0.225456,0.911096,2.660000,1.400000,-0.840000
77.311316,-0.073688,-0.167384,0.982344,4.200000,-1.120000,-0.560000
77.319403,0.013176,-0.197640,1.066768,1.680000,1.960000,-1.260000
77.327490,-0.040016,-0.187880,0.943304,1.820000,-1.260000,-0.420000
77.335577,-0.059048,-0.241560,1.016992,3.080000,2.380000,-2.240000
77.343665,-0.009272,-0.186904,0.974536,2.520000,-0.280000,0.140000
77.351752,-0.048800,-0.210816,0.950136,3.220000,-0.280000,-0.840000
77.359839,-0.041968,-0.207400,1.045784,2.940000,1.400000,-1.820000
77.367926,-0.000976,-0.186416,0.987224,2.240000,0.000000,0.000000
77.376013,-0.103456,-0.224480,0.923296,3.220000,0.840000,-1.120000
77.384101,0.009760,-0.181536,1.044808,2.520000,1.540000,-1.680000
77.392188,-0.026352,-0.193248,0.967216,1.960000,-1.260000,0.140000
77.400275,-0.089304,-0.212768,0.967216,2.100000,1.820000,-1.680000
77.408362,0.004880,-0.187392,1.027728,0.980000,1.540000,-1.120000
77.416449,-0.034648,-0.209840,0.964288,1.400000,-1.400000,0.420000
77.424536,-0.071736,-0.191296,0.953064,2.800000,1.820000,-1.820000
77.432624,0.009272,-0.206912,1.078480,0.700000,0.560000,-0.560000
77.440711,-0.064416,-0.203008,0.918904,1.540000,-0.560000,-0.140000
77.448798,-0.065880,-0.204472,0.976488,3.780000,2.100000,-2.240000
77.456885,0.012200,-0.182024,1.025288,0.420000,-0.420000,-0.140000
77.464972,-0.063928,-0.205936,0.972584,1.260000,-0.140000,-0.840000
77.473059,-0.037088,-0.207888,0.993080,2.660000,2.240000,-1.960000
77.481147,-0.002440,-0.215208,0.970144,1.820000,-0.280000,-0.140000
77.489234,-0.090768,-0.193248,0.979416,3.080000,0.280000,-1.260000
77.497321,0.007320,-0.164456,1.063840,1.120000,1.120000,-0.700000
77.505408,-0.022448,-0.204960,0.953552,0.280000,-0.280000,-0.840000
77.513495,-0.098088,-0.190808,0.971608,1.120000,1.260000,-2.800000
77.521582,0.028304,-0.224968,1.016016,-0.140000,0.560000,-0.560000
77.529670,-0.042944,-0.190808,0.966728,1.820000,-0.420000,-0.280000
77.537757,-0.088328,-0.210328,0.992592,1.120000,1.680000,-1.960000
77.545844,0.029280,-0.199104,1.037488,-0.140000,0.140000,-0.560000
77.553931,-0.072224,-0.186904,0.885720,2.240000,0.420000,-0.700000
77.562018,-0.051728,-0.230336,1.036024,1.820000,1.260000,-2.240000
77.570105,0.014152,-0.160064,1.043832,0.000000,-0.700000,0.000000
77.578193,-0.088328,-0.199104,0.915000,1.680000,1.260000,-1.120000
77.586280,-0.011712,-0.245464,1.010160,1.260000,1.680000,-1.960000
77.594367,-0.034648,-0.175192,0.980392,1.260000,-0.560000,-0.140000
77.602454,-0.068320,-0.200080,0.976976,2.800000,0.560000,-1.400000
77.610541,0.016592,-0.202032,1.054568,0.420000,1.260000,-1.120000
77.618628,-0.050752,-0.206912,0.927200,1.120000,-0.280000,-0.140000
77.626716,-0.084912,-0.203984,0.975512,3.220000,1.540000,-2.100000
77.634803,0.036112,-0.161040,1.061888,0.280000,0.000000,0.000000
77.642890,-0.058072,-0.203496,0.938424,-0.420000,0.140000,-0.840000
77.650977,-0.070760,-0.207400,0.998448,0.980000,1.540000,-1.960000
77.659064,0.018056,-0.208864,1.003328,-0.140000,0.420000,-0.420000
77.667151,-0.096136,-0.197640,0.934032,1.680000,0.420000,-1.400000
77.675239,-0.010248,-0.200568,1.029680,0.280000,0.980000,-1.540000
77.683326,-0.003904,-0.184464,0.990152,0.140000,0.560000,0.000000
77.691413,-0.114680,-0.218136,0.936960,0.560000,1.400000,-1.680000
77.699500,0.024888,-0.203008,1.057984,0.280000,0.420000,-0.560000
77.707587,-0.033184,-0.183488,0.941840,0.840000,-0.420000,-0.140000
77.715674,-0.076128,-0.221552,1.020408,1.120000,1.120000,-2.240000
77.723762,0.002440,-0.186416,1.016016,0.280000,0.980000,-0.420000
77.731849,-0.066856,-0.196176,0.916464,0.980000,0.000000,-0.280000
77.739936,-0.036600,-0.223992,1.004304,1.400000,0.840000,-1.540000
77.748023,0.003904,-0.160552,1.074576,-0.280000,0.140000,-0.140000
77.756110,-0.080032,-0.175192,0.920368,0.280000,0.420000,-0.980000
77.764197,-0.003416,-0.257176,0.989664,1.680000,1.680000,-1.960000
77.772285,-0.020496,-0.181536,1.034560,0.280000,-0.560000,-0.560000
77.780372,-0.096624,-0.184952,0.928664,0.840000,0.560000,-1.260000
77.788459,0.027816,-0.219600,1.026752,0.280000,0.980000,-0.980000
77.796546,-0.043920,-0.181536,1.014064,-0.280000,-0.140000,-0.700000
77.804633,-0.088328,-0.221064,0.900848,0.700000,1.820000,-2.100000
77.812720,0.020008,-0.195200,1.016992,0.420000,-0.280000,0.000000
77.820808,-0.056120,-0.183000,1.008208,-0.140000,0.280000,-0.840000
77.828895,-0.052216,-0.203496,0.992104,1.120000,1.400000,-2.100000
77.836982,-0.002928,-0.221552,0.956968,1.120000,0.560000,-0.700000
77.845069,-0.091256,-0.181536,0.976488,1.680000,0.140000,-1.120000
77.853156,0.009760,-0.204472,1.047736,0.140000,1.260000,-1.260000
77.861243,-0.041480,-0.227408,0.930616,1.400000,-0.420000,-0.140000
77.869331,-0.065880,-0.191784,0.999424,2.520000,1.680000,-1.820000
77.877418,-0.010736,-0.179096,1.017480,0.700000,0.980000,-0.840000
77.885505,-0.023424,-0.172752,0.981856,0.560000,-1.540000,-0.560000
77.893592,-0.075640,-0.223992,0.973072,0.140000,2.940000,-2.660000
77.901679,0.004392,-0.222040,1.016504,-0.420000,-0.560000,-0.420000
77.909766,-0.063440,-0.185928,0.933544,1.680000,0.700000,-1.120000
77.917854,-0.040504,-0.208864,1.018456,0.840000,0.980000,-2.100000
77.925941,0.003416,-0.202520,1.001376,0.000000,-0.560000,0.000000
77.934028,-0.070272,-0.190808,0.976488,0.840000,0.980000,-1.260000
77.942115,-0.006344,-0.226920,1.006744,1.260000,1.120000,-1.260000
77.950202,-0.040504,-0.207400,0.952088,1.540000,0.280000,-0.420000
77.958289,-0.068320,-0.169824,1.002352,1.960000,0.280000,-1.400000
77.966377,0.004880,-0.206912,1.010648,1.120000,0.840000,-1.400000
77.974464,-0.044896,-0.222528,0.955992,1.680000,-0.140000,-0.840000
77.982551,-0.084424,-0.177632,0.975512,2.380000,1.820000,-1.960000
77.990638,0.025376,-0.191784,1.034072,0.420000,-0.700000,-0.560000
77.998725,-0.039528,-0.216184,0.968680,0.700000,0.140000,-0.420000
78.006812,-0.105896,-0.194712,0.981856,1.820000,2.800000,-2.100000
78.014900,0.026840,-0.217648,0.984784,1.540000,-0.840000,-0.280000
78.022987,-0.051728,-0.171776,0.979416,2.100000,0.560000,-1.400000
78.031074,-0.043432,-0.210816,1.029680,0.840000,0.700000,-1.260000
78.039161,-0.011712,-0.201056,0.989664,1.680000,0.280000,-0.420000
78.047248,-0.064416,-0.209840,0.959408,1.680000,0.700000,-1.120000
78.055335,0.004880,-0.206424,0.979904,1.960000,0.700000,-1.260000
78.063423,-0.054656,-0.189344,1.010648,1.120000,-0.560000,-0.280000
78.071510,-0.051728,-0.191784,0.978440,1.400000,1.540000,-1.400000
78.079597,-0.024400,-0.210328,0.999424,1.120000,1.260000,-1.540000
78.087684,-0.018544,-0.186904,0.979416,1.120000,-1.120000,0.000000
78.095771,-0.108336,-0.150792,0.994056,1.960000,2.240000,-2.800000
78.103858,0.039040,-0.224968,1.028216,-0.700000,0.140000,-1.260000
78.111946,-0.039528,-0.214720,0.933056,1.960000,0.000000,-1.400000
78.120033,-0.093696,-0.200080,0.991616,2.380000,1.960000,-1.960000
78.128120,0.016104,-0.200568,1.023824,0.560000,-0.280000,-0.140000
78.136207,-0.052216,-0.187880,0.965264,0.980000,0.420000,-1.260000
78.144294,-0.035624,-0.233752,0.987712,2.520000,1.540000,-1.680000
78.152381,-0.034648,-0.205936,0.991128,1.680000,-0.560000,-0.140000
78.160469,-0.056608,-0.153232,0.952088,2.240000,1.540000,-1.540000
78.168556,-0.003904,-0.214232,1.044320,0.980000,-0.700000,-1.120000
78.176643,-0.016104,-0.217648,0.994544,0.700000,0.140000,-0.280000
78.184730,-0.115656,-0.165432,0.941352,1.400000,3.360000,-1.960000
78.192817,0.029768,-0.206424,1.009184,-0.140000,-1.540000,-0.420000
78.200904,-0.017080,-0.194224,1.006256,0.700000,-0.140000,-0.420000
78.208992,-0.107360,-0.189344,0.969656,0.560000,2.940000,-1.540000
78.217079,0.028792,-0.232776,0.986248,0.420000,-0.420000,-0.840000
78.225166,-0.065392,-0.165920,0.973072,2.520000,-0.840000,-0.980000
78.233253,-0.043920,-0.217160,1.026752,0.980000,2.520000,-1.680000
78.241340,0.004880,-0.210328,0.970144,0.140000,-0.140000,-0.140000
78.249428,-0.068808,-0.188856,0.961848,1.960000,0.560000,-0.980000
78.257515,-0.036112,-0.210816,0.995032,1.680000,1.820000,-1.120000
78.265602,-0.006832,-0.196664,1.033096,0.420000,-1.400000,0.560000
78.273689,-0.093208,-0.153232,0.934520,1.400000,1.680000,-1.820000
78.281776,0.006832,-0.234728,1.052128,0.000000,0.700000,-1.680000
78.289863,-0.044408,-0.203008,0.926712,0.840000,-0.420000,-0.140000
78.297951,-0.074176,-0.166408,0.997472,2.100000,1.960000,-2.240000
78.306038,0.026352,-0.225456,1.055544,-0.420000,-0.700000,-0.840000
78.314125,-0.045384,-0.165432,0.955504,0.700000,0.560000,-0.560000
78.322212,-0.094184,-0.230336,0.947696,1.540000,2.380000,-1.820000
78.330299,0.038552,-0.204472,1.052616,0.280000,-0.700000,-0.420000
78.338386,-0.067832,-0.159576,0.929640,1.540000,0.140000,-0.840000
78.346474,-0.044408,-0.244976,1.035048,0.560000,1.540000,-1.680000
78.354561,-0.005856,-0.196664,0.970144,0.840000,0.280000,-0.280000
78.362648,-0.068808,-0.187392,0.968680,2.940000,0.420000,-1.260000
78.370735,-0.021960,-0.201056,1.005768,0.980000,0.700000,-1.400000
78.378822,-0.008296,-0.203496,0.986736,1.120000,0.000000,0.140000
78.386909,-0.101016,-0.183488,0.960384,2.380000,1.960000,-1.680000
78.394997,-0.004880,-0.218624,1.027728,0.560000,0.280000,-0.980000
78.403084,-0.016592,-0.171288,0.962824,1.400000,-0.140000,-0.700000
78.411171,-0.096136,-0.169824,1.004792,0.980000,0.980000,-1.680000
78.419258,0.028792,-0.232288,1.039440,-0.700000,0.280000,-1.680000
78.427345,-0.047336,-0.177632,0.929152,1.400000,0.000000,-0.420000
78.435432,-0.065880,-0.223992,0.996008,1.260000,1.400000,-1.820000
78.443520,0.002440,-0.188368,1.009672,-0.560000,-0.140000,-0.560000
78.451607,-0.034648,-0.196176,0.970144,0.140000,0.420000,-0.560000
78.459694,-0.079056,-0.193248,0.988200,1.120000,1.960000,-1.960000
78.467781,0.010248,-0.208864,1.018456,-0.420000,0.000000,-0.560000
78.475868,-0.052216,-0.166408,0.952088,0.420000,0.000000,-0.980000
78.483955,-0.038552,-0.239120,1.003816,0.000000,1.680000,-1.960000
78.492043,-0.009760,-0.186416,0.987712,0.000000,-0.420000,-0.420000
78.500130,-0.086864,-0.184464,0.957944,0.840000,1.820000,-1.400000
78.508217,-0.011712,-0.213744,1.029680,-0.700000,0.700000,-1.400000
78.516304,0.001464,-0.186416,0.995520,-1.120000,-1.260000,0.280000
78.524391,-0.091256,-0.191296,0.947208,0.560000,2.380000,-1.680000
78.532478,-0.007808,-0.232288,1.029680,0.140000,0.420000,-1.120000
78.540566,-0.017568,-0.196664,0.968192,0.280000,-0.840000,-0.280000
78.548653,-0.099064,-0.138104,0.969656,0.840000,1.820000,-2.100000
78.556740,0.039040,-0.261080,1.054080,-1.820000,0.140000,-0.560000
78.564827,-0.054168,-0.194224,0.937936,-0.560000,0.700000,-0.980000
78.572914,-0.078080,-0.181048,0.979416,0.980000,1.400000,-1.680000
78.581002,0.013176,-0.215208,1.041392,-0.980000,0.280000,-0.700000
78.589089,-0.033184,-0.157624,0.950136,-0.560000,-0.840000,-0.700000
78.597176,-0.078568,-0.236192,1.009184,-0.140000,2.800000,-2.380000
78.605263,0.012688,-0.212768,0.954040,-0.420000,-0.280000,-0.280000
78.613350,-0.079544,-0.165920,0.961360,1.260000,0.560000,-1.120000
78.621437,-0.015128,-0.224480,1.078968,-1.120000,0.700000,-1.680000
78.629525,-0.007808,-0.192272,0.940376,-1.540000,0.140000,-0.140000
78.637612,-0.109312,-0.214720,0.951600,0.840000,2.100000,-2.100000
78.645699,0.019520,-0.200568,1.043832,-0.840000,0.140000,-0.420000
78.653786,-0.038064,-0.194712,0.951600,-0.700000,-0.280000,-0.420000
78.661873,-0.084424,-0.198128,0.994056,-0.420000,1.680000,-1.960000
78.669960,0.023912,-0.223504,1.029680,-1.120000,-0.140000,-0.280000
78.678048,-0.059536,-0.213744,0.934520,0.420000,0.840000,-0.840000
78.686135,-0.056608,-0.167872,0.983808,0.280000,0.980000,-1.540000
78.694222,0.021472,-0.206424,1.061400,-2.240000,-0.700000,0.140000
78.702309,-0.076128,-0.187880,0.944280,-1.400000,1.400000,-0.980000
78.710396,-0.035136,-0.213256,0.985272,-0.700000,1.680000,-1.960000
78.718483,0.001464,-0.208864,0.989664,-1.400000,-1.400000,0.700000
78.726571,-0.089792,-0.187392,0.979416,-0.700000,1.540000,-1.400000
78.734658,0.000000,-0.217160,1.011624,-1.540000,0.420000,-1.260000
78.742745,-0.020984,-0.218624,0.988688,-1.260000,-0.700000,0.280000
78.750832,-0.091744,-0.190808,0.938912,0.700000,2.800000,-1.820000
78.758919,0.016104,-0.200568,1.025288,-0.420000,-0.140000,-0.700000
78.767006,-0.046360,-0.209352,1.003816,-0.980000,-1.120000,-0.140000
78.775094,-0.070760,-0.203008,0.966728,-0.420000,3.920000,-2.240000
78.783181,0.000976,-0.226920,0.983808,-0.140000,-0.980000,0.280000
78.791268,-0.040016,-0.191784,0.988200,0.140000,-0.700000,-0.700000
78.799355,-0.071736,-0.194712,0.981856,0.140000,1.960000,-1.400000
78.807442,0.035624,-0.229360,1.003328,-1.820000,0.280000,-0.140000
78.815529,-0.106384,-0.196664,0.947696,-0.140000,0.840000,-1.260000
78.823617,0.003904,-0.213256,1.021872,-0.280000,1.120000,-1.820000
78.831704,-0.008784,-0.217160,0.968192,-0.840000,-0.560000,0.420000
78.839791,-0.096136,-0.169336,0.986736,-0.140000,1.260000,-1.540000
78.847878,-0.007320,-0.227408,1.003816,-0.560000,1.260000,-1.260000
78.855965,-0.011224,-0.222040,0.965752,-0.420000,-0.840000,0.140000
78.864052,-0.110288,-0.174704,0.957944,1.120000,2.520000,-2.100000
78.872140,0.040992,-0.227408,1.071648,-1.820000,-0.840000,-0.420000
78.880227,-0.063440,-0.217648,0.927200,-0.560000,0.280000,-0.420000
78.888314,-0.080520,-0.202520,0.977464,1.120000,2.660000,-1.960000
78.896401,0.021960,-0.217648,1.031632,-0.980000,-1.260000,0.140000
78.904488,-0.055632,-0.194712,0.970144,-0.420000,0.140000,-0.840000
78.912575,-0.053680,-0.206912,0.974536,0.000000,2.660000,-1.820000
78.920663,0.008784,-0.225944,1.020408,-0.980000,-0.980000,0.140000
78.928750,-0.085888,-0.190320,0.939400,-0.420000,1.260000,-1.400000
78.936837,-0.005368,-0.199592,1.007720,-0.140000,0.560000,-1.260000
78.944924,-0.000488,-0.239120,1.014552,-1.260000,-0.700000,0.420000
78.953011,-0.118584,-0.194224,0.938912,0.140000,2.100000,-1.680000
78.961099,0.022448,-0.214720,1.003816,0.840000,0.420000,-0.700000
78.969186,-0.017568,-0.237168,0.995032,0.000000,-1.260000,0.280000
78.977273,-0.100528,-0.164456,0.977464,1.400000,2.240000,-2.100000
78.985360,0.038552,-0.215696,1.029680,-0.560000,-0.280000,-0.420000
78.993447,-0.066368,-0.244976,0.926224,-0.140000,0.560000,-0.560000
79.001534,-0.078568,-0.180072,0.985272,1.260000,1.960000,-1.540000
79.009622,0.025376,-0.209352,1.020408,-0.140000,-0.280000,0.000000
79.017709,-0.055144,-0.218136,0.981368,-0.140000,-0.700000,-0.280000
79.025796,-0.082472,-0.231312,0.965752,1.680000,3.360000,-1.960000
79.033883,0.020984,-0.218624,0.993568,0.840000,-1.260000,0.560000
79.041970,-0.068808,-0.181048,0.967704,1.540000,0.420000,-0.980000
79.050057,-0.018056,-0.203496,1.012112,1.540000,1.400000,-1.120000
79.058145,-0.020984,-0.241072,0.998448,-0.140000,-0.280000,0.140000
79.066232,-0.076128,-0.183488,0.935496,1.960000,2.100000,-1.680000
79.074319,0.006344,-0.227896,1.008208,1.260000,-0.280000,-0.840000
79.082406,-0.037576,-0.202032,1.003328,0.140000,-0.700000,0.420000
79.090493,-0.073688,-0.200080,0.976976,0.980000,3.500000,-2.520000
79.098580,0.008784,-0.226432,0.967216,1.260000,-1.540000,-0.420000
79.106668,-0.033672,-0.210816,0.979416,1.260000,0.000000,0.140000
79.114755,-0.107848,-0.168360,0.995520,0.700000,2.800000,-2.100000
79.122842,0.053680,-0.230824,1.020896,-0.840000,-1.960000,0.140000
79.130929,-0.085400,-0.228872,0.966240,0.840000,1.400000,-1.260000
79.139016,-0.054656,-0.197152,0.975512,0.980000,1.540000,-1.260000
79.147103,0.018544,-0.228872,1.000400,0.420000,-0.420000,-0.420000
79.155191,-0.071248,-0.168360,0.987224,1.120000,-0.840000,-0.140000
79.163278,-0.031720,-0.233264,1.014552,1.400000,3.220000,-1.540000
79.171365,-0.023424,-0.231312,0.958432,1.260000,-1.120000,0.140000
79.179452,-0.058560,-0.180072,0.978928,2.240000,0.280000,-1.540000
79.187539,0.002440,-0.201056,1.018456,0.840000,1.120000,-1.120000
79.195626,-0.035624,-0.239120,0.957456,-0.280000,-0.420000,0.000000
79.203714,-0.101016,-0.202032,0.975512,1.820000,2.380000,-1.960000
79.211801,0.029280,-0.204960,1.005280,1.120000,-0.420000,-0.280000
79.219888,-0.030744,-0.229848,0.977952,1.260000,-0.560000,0.000000
79.227975,-0.089304,-0.182512,1.005768,1.820000,2.520000,-2.100000
79.236062,0.024888,-0.212280,1.014064,0.980000,-0.700000,-0.140000
79.244150,-0.076128,-0.209352,0.919880,1.260000,0.700000,-1.120000
79.252237,-0.048800,-0.201056,1.001376,1.120000,1.680000,-1.540000
79.260324,0.038064,-0.219112,1.042856,0.140000,-1.260000,0.000000
79.268411,-0.095160,-0.211792,0.908656,0.700000,0.840000,-0.840000
79.276498,-0.033672,-0.227408,1.007720,2.240000,2.240000,-1.400000
79.284585,-0.007808,-0.204472,1.011624,1.680000,-1.400000,0.700000
79.292673,-0.063440,-0.168848,0.967704,1.400000,0.700000,-1.260000
79.300760,-0.033672,-0.200080,1.003328,0.840000,1.260000,-1.120000
79.308847,-0.005368,-0.248880,1.010160,-0.140000,-0.420000,0.000000
79.316934,-0.093208,-0.200080,0.924760,2.100000,2.520000,-1.680000
79.325021,0.033672,-0.212280,1.002352,1.260000,-0.980000,0.140000
79.333108,-0.062464,-0.243512,1.001864,0.560000,0.000000,0.000000
79.341196,-0.072224,-0.169336,0.967704,1.960000,2.800000,-1.960000
79.349283,0.015128,-0.230336,0.984784,1.260000,-0.700000,0.000000
79.357370,-0.069296,-0.229360,0.980392,1.960000,-0.560000,-0.280000
79.365457,-0.036112,-0.172264,1.004304,2.800000,1.820000,-1.260000
79.373544,-0.001464,-0.236192,0.996984,0.980000,-0.140000,-0.280000
79.381631,-0.076128,-0.203496,0.960384,1.540000,0.140000,-0.700000
79.389719,-0.041968,-0.196664,0.990152,2.800000,2.240000,-1.540000
79.397806,0.020496,-0.212768,0.994544,0.700000,-1.820000,0.980000
79.405893,-0.089304,-0.205936,1.008208,1.540000,1.680000,-1.400000
79.413980,-0.014640,-0.184952,0.987712,2.240000,0.700000,-0.280000
79.422067,-0.031232,-0.264984,0.964776,1.960000,0.140000,-0.280000
79.430154,-0.055632,-0.152744,0.968192,2.380000,0.560000,-0.980000
79.438242,0.013176,-0.206912,1.030168,1.260000,0.140000,-0.700000
79.446329,-0.065880,-0.231312,0.986736,0.840000,-0.420000,0.280000
79.454416,-0.054656,-0.221552,0.946720,3.080000,3.220000,-1.960000
79.462503,0.003416,-0.210328,1.004304,2.940000,-1.680000,0.280000
79.470590,-0.053192,-0.199104,0.988688,2.240000,0.840000,-0.560000
79.478677,-0.078080,-0.182024,0.976488,2.100000,2.240000,-1.260000
79.486765,0.036600,-0.231312,1.010160,1.820000,-0.980000,-0.420000
79.494852,-0.083936,-0.204472,0.961360,2.520000,0.140000,-0.700000
79.502939,-0.023424,-0.180072,1.005768,2.520000,1.820000,-1.120000
79.511026,-0.011224,-0.248392,0.991616,1.540000,-0.420000,0.140000
79.519113,-0.067832,-0.171288,0.991616,2.520000,0.560000,-1.120000
79.527201,-0.039040,-0.222528,0.961848,2.100000,2.100000,-1.120000
79.535288,0.008784,-0.197640,1.006256,1.120000,-1.820000,0.700000
79.543375,-0.095648,-0.187880,0.976000,1.820000,2.380000,-1.820000
79.551462,0.000976,-0.209840,1.034072,1.260000,0.140000,-0.560000
79.559549,-0.037576,-0.241560,0.928664,1.540000,0.560000,-0.420000
79.567636,-0.071248,-0.171288,0.982344,3.220000,0.560000,-0.700000
79.575724,0.021960,-0.204960,1.055056,1.820000,0.140000,-0.420000
79.583811,-0.064904,-0.225944,0.950136,1.260000,-0.140000,-0.420000
79.591898,-0.052704,-0.207400,0.966240,3.080000,2.940000,-2.240000
79.599985,-0.014152,-0.187392,1.004792,3.080000,-1.540000,0.840000
79.608072,-0.023424,-0.206424,0.995032,1.960000,0.280000,-0.840000
79.616159,-0.079056,-0.198128,0.995032,1.680000,1.680000,-1.540000
79.624247,0.031720,-0.199104,1.007720,1.400000,-1.120000,0.840000
79.632334,-0.101016,-0.218136,0.936960,3.080000,2.520000,-1.260000
79.640421,-0.005856,-0.197640,0.993080,2.240000,-0.840000,-0.700000
79.648508,-0.009272,-0.217160,1.019432,1.680000,-0.280000,0.420000
79.656595,-0.098576,-0.190320,0.936472,3.080000,2.520000,-1.540000
79.664682,0.010248,-0.206912,1.000400,2.660000,-0.280000,-0.420000
79.672770,-0.045872,-0.217648,1.010648,2.240000,-0.420000,0.000000
79.680857,-0.067344,-0.151280,0.982344,2.240000,2.380000,-1.400000
79.688944,0.008296,-0.236192,1.010160,0.840000,-0.420000,-0.560000
79.697031,-0.055144,-0.210816,0.973072,2.100000,-0.560000,-0.140000
79.705118,-0.065392,-0.182512,0.967704,3.920000,2.380000,-1.120000
79.713205,0.020496,-0.223016,1.004792,1.960000,-0.980000,0.560000
79.721293,-0.065392,-0.184952,1.012600,1.680000,0.840000,-1.120000
79.729380,-0.019520,-0.188856,0.970632,3.220000,0.980000,-0.560000
79.737467,-0.037576,-0.240096,0.966728,2.100000,0.280000,0.000000
79.745554,-0.060512,-0.176168,1.001376,2.660000,0.560000,-0.840000
79.753641,0.011712,-0.190320,0.993080,2.940000,0.140000,-0.280000
79.761728,-0.052704,-0.204960,0.995032,0.980000,0.140000,-0.140000
79.769816,-0.075640,-0.193248,0.953064,1.820000,2.520000,-1.960000
79.777903,0.021960,-0.202032,1.013088,1.820000,-1.120000,0.420000
79.785990,-0.061000,-0.198616,1.006256,1.260000,0.140000,-0.560000
79.794077,-0.067832,-0.189344,0.963800,0.840000,2.240000,-1.540000
79.802164,0.001952,-0.226432,1.012112,0.980000,0.000000,-0.280000
79.810252,-0.047336,-0.188856,0.967704,1.400000,0.000000,-0.280000
79.818339,-0.029768,-0.192760,0.978440,1.960000,1.400000,-1.400000
79.826426,-0.023424,-0.218624,1.015528,1.120000,-1.120000,0.420000
79.834513,-0.071248,-0.177144,0.974048,1.260000,1.820000,-1.400000
79.842600,-0.030744,-0.201544,0.976976,0.980000,1.260000,-0.980000
79.850687,0.013664,-0.216672,1.005768,1.680000,-1.680000,0.280000
79.858775,-0.094672,-0.177144,0.988200,1.820000,2.240000,-0.840000
79.866862,0.013664,-0.195200,0.999424,1.400000,-0.140000,-0.700000
79.874949,-0.046848,-0.242048,0.968680,1.680000,-0.280000,-0.140000
79.883036,-0.082960,-0.164456,0.966728,2.660000,2.240000,-1.540000
79.891123,0.018544,-0.210328,1.028216,1.120000,-0.840000,0.280000
79.899210,-0.043432,-0.203008,1.004792,0.840000,0.700000,-0.840000
79.907298,-0.064416,-0.193736,0.953552,2.380000,1.540000,-1.260000
79.915385,0.003416,-0.203496,1.001864,1.260000,-0.700000,0.560000
79.923472,-0.062464,-0.162016,1.006256,0.700000,0.980000,-0.980000
79.931559,-0.010248,-0.196664,0.986248,0.980000,0.140000,-0.980000
79.939646,-0.029280,-0.236680,0.997472,0.280000,0.420000,0.000000
79.947733,-0.097600,-0.194712,0.938912,0.980000,1.960000,-1.260000
79.955821,0.036112,-0.193736,0.999424,2.240000,-0.980000,0.000000
79.963908,-0.044408,-0.209840,1.020408,0.700000,0.560000,-0.140000
79.971995,-0.087352,-0.152256,0.977952,0.700000,2.100000,-1.400000
79.980082,0.010736,-0.242048,0.968680,1.260000,-0.140000,-0.560000
79.988169,-0.033184,-0.175680,1.031144,0.840000,-0.840000,0.000000
79.996256,-0.065880,-0.187392,0.973560,0.560000,2.100000,-1.400000
80.004344,-0.013176,-0.227896,0.988200,-0.140000,-0.280000,-0.140000
80.012431,-0.062952,-0.195688,0.966240,0.420000,1.260000,-1.260000
80.020518,-0.029280,-0.190808,1.009184,0.980000,0.420000,-1.260000
80.028605,-0.003904,-0.201056,0.972584,0.420000,-0.280000,0.000000
80.036692,-0.071736,-0.179096,1.015528,-0.140000,1.260000,-0.980000
80.044779,-0.003904,-0.202520,0.996496,0.000000,0.560000,-0.840000
80.052867,-0.054168,-0.225944,0.976976,0.000000,0.560000,-0.280000
80.060954,-0.052704,-0.159576,0.964288,0.000000,1.260000,-1.260000
80.069041,0.008784,-0.211304,1.034072,-0.560000,-0.560000,-0.560000
80.077128,-0.048312,-0.198128,0.992104,-0.980000,0.420000,-0.700000
80.085215,-0.079056,-0.208864,0.942816,-0.140000,2.240000,-1.820000
80.093303,0.020496,-0.200080,1.006744,0.700000,-0.980000,0.560000
80.101390,-0.039528,-0.206912,0.989176,1.120000,0.560000,-0.560000
80.109477,-0.079544,-0.188368,0.976000,0.420000,1.260000,-1.400000
80.117564,0.010248,-0.212280,1.004304,-0.700000,-0.140000,-0.140000
80.125651,-0.074664,-0.188368,0.976000,0.560000,1.400000,-0.980000
80.133738,-0.009272,-0.185928,0.994544,-0.140000,-0.280000,-1.120000
80.141826,-0.020984,-0.233752,0.988200,-0.840000,0.840000,-0.280000
80.149913,-0.101016,-0.171776,0.969656,0.560000,1.680000,-0.980000
80.158000,0.006832,-0.231312,0.977952,0.140000,0.140000,-0.980000
80.166087,-0.016104,-0.205448,1.023824,0.280000,-0.840000,0.000000
80.174174,-0.076616,-0.148840,0.980392,0.280000,1.820000,-1.260000
80.182261,0.000976,-0.245464,1.004792,0.000000,0.000000,-0.280000
80.190349,-0.053192,-0.215696,0.960384,0.280000,1.120000,-0.700000
80.198436,-0.061976,-0.174704,0.960872,1.260000,1.680000,-1.400000
80.206523,0.003904,-0.209840,1.030656,-0.420000,-0.700000,0.140000
80.214610,-0.051240,-0.173728,0.981856,-1.400000,0.140000,-0.700000
80.222697,-0.032208,-0.210328,0.998448,0.280000,1.960000,-1.400000
80.230784,-0.026352,-0.220088,0.984784,-0.420000,-0.700000,0.700000
80.238872,-0.059536,-0.183488,0.972096,-0.280000,0.560000,-1.120000
80.246959,0.000488,-0.204472,1.009184,0.980000,0.280000,-0.560000
80.255046,-0.038552,-0.213256,0.997960,-0.980000,0.840000,0.000000
80.263133,-0.106384,-0.187880,0.931104,0.000000,1.820000,-1.400000
80.271220,0.037576,-0.212768,1.018944,0.280000,-0.700000,-0.140000
80.279307,-0.031232,-0.199104,1.036512,-0.700000,-0.560000,0.000000
80.287395,-0.079544,-0.185440,0.929152,-0.140000,2.100000,-1.680000
80.295482,-0.006344,-0.232288,1.023336,-0.700000,0.280000,-0.560000
80.303569,-0.040992,-0.196176,0.971608,0.140000,-0.140000,-0.140000
80.311656,-0.059536,-0.204960,0.956968,0.560000,1.960000,-1.680000
80.319743,0.009272,-0.203984,1.046760,-0.840000,-1.120000,0.140000
80.327830,-0.059536,-0.200080,0.955016,-0.280000,2.100000,-1.120000
80.335918,-0.048800,-0.207888,0.963800,0.420000,0.420000,-0.980000
80.344005,-0.001952,-0.199592,1.032120,-0.560000,-0.280000,0.280000
80.352092,-0.079056,-0.183976,0.959896,-0.700000,0.700000,-0.420000
80.360179,0.009272,-0.192760,1.005280,-0.280000,0.700000,-0.560000
80.368266,-0.047824,-0.248392,1.020408,-0.840000,0.140000,-0.140000
80.376354,-0.065880,-0.173728,0.925248,-0.420000,1.120000,-1.260000
80.384441,0.009272,-0.218136,1.011624,0.140000,-0.140000,-0.280000
80.392528,-0.035624,-0.197152,1.028216,-1.400000,0.420000,0.000000
80.400615,-0.089792,-0.215208,0.931104,0.140000,1.680000,-1.400000
80.408702,0.004392,-0.219112,0.987224,0.280000,-0.280000,0.140000
80.416789,-0.041480,-0.205448,1.008208,-0.420000,1.120000,-0.840000
80.424877,-0.040992,-0.196176,0.980880,0.560000,-0.140000,-0.980000
80.432964,-0.016104,-0.212280,0.986248,-0.560000,0.700000,-0.420000
80.441051,-0.079056,-0.191296,0.985760,-0.420000,1.120000,-0.700000
80.449138,-0.033672,-0.217648,0.946232,0.840000,0.420000,-1.120000
80.457225,0.028304,-0.216184,1.044320,0.140000,-0.560000,0.560000
80.465312,-0.103944,-0.180560,0.974536,0.000000,2.100000,-1.120000
80.473400,-0.023912,-0.223992,0.963800,0.700000,0.140000,-0.840000
80.481487,0.001464,-0.214720,1.017480,0.000000,0.420000,-0.280000
80.489574,-0.094672,-0.186904,0.947208,-0.140000,1.680000,-1.120000
80.497661,0.013176,-0.215696,1.014552,0.000000,-0.980000,-0.280000
80.505748,-0.037088,-0.207888,1.001376,-0.140000,0.420000,-0.140000
80.513835,-0.066856,-0.206424,0.939888,0.560000,2.100000,-1.540000
80.521923,-0.007320,-0.214720,1.017480,0.420000,-0.700000,0.140000
80.530010,-0.041480,-0.175680,0.990152,-0.840000,0.140000,-0.140000
80.538097,-0.050264,-0.217160,0.977952,-0.280000,2.100000,-1.820000
80.546184,-0.018056,-0.245464,0.996008,-0.700000,-0.140000,-0.280000
80.554271,-0.068320,-0.183000,0.951112,0.280000,0.560000,-0.700000
80.562358,-0.024400,-0.206424,1.004792,0.700000,0.980000,-1.540000
80.570446,0.020984,-0.198616,1.042856,-0.700000,-0.840000,0.420000
80.578533,-0.118584,-0.216672,0.947208,-0.700000,2.520000,-1.120000
80.586620,0.005368,-0.211792,0.962824,1.260000,-0.280000,-0.560000
80.594707,-0.006344,-0.212768,1.019920,-0.140000,0.560000,0.000000
80.602794,-0.103944,-0.164456,0.984296,-1.260000,-0.140000,-0.980000
80.610882,0.030256,-0.231312,0.989176,-1.540000,1.120000,-0.980000
80.618969,-0.049288,-0.230824,0.984784,-0.560000,0.140000,0.000000
80.627056,-0.089792,-0.195200,0.954528,0.420000,1.540000,-1.260000
80.635143,0.019520,-0.220088,1.031632,-0.700000,0.000000,-0.840000
80.643230,-0.038064,-0.191296,0.975512,-0.840000,-0.140000,0.000000
80.651317,-0.081984,-0.228384,0.968192,0.700000,2.800000,-1.820000
80.659405,-0.006832,-0.217648,1.002352,0.140000,-0.700000,-0.140000
80.667492,-0.029768,-0.192272,0.973072,-0.280000,0.140000,-0.560000
80.675579,-0.053680,-0.213256,0.981856,0.560000,1.680000,-1.400000
80.683666,0.001464,-0.197640,1.028216,-1.120000,0.140000,-0.140000
80.691753,-0.083936,-0.227408,0.931104,-0.140000,1.540000,-1.120000
80.699840,-0.022448,-0.213256,0.972584,0.840000,0.560000,-0.700000
80.707928,0.018056,-0.196664,1.054568,-0.420000,-0.560000,0.000000
80.716015,-0.104920,-0.223992,0.936472,-0.700000,0.980000,-1.260000
80.724102,0.003904,-0.212768,1.008208,-0.140000,0.840000,-0.980000
80.732189,-0.045384,-0.211304,0.977952,0.000000,0.420000,0.280000
80.740276,-0.051240,-0.197640,0.945744,0.420000,0.420000,-1.260000
80.748363,-0.000488,-0.204960,1.047736,-0.280000,-0.140000,-0.140000
80.756451,-0.066856,-0.200080,0.967704,-1.540000,0.980000,-0.140000
80.764538,-0.063928,-0.229848,0.946232,0.280000,1.680000,-1.680000
80.772625,0.020496,-0.190320,1.032120,-0.280000,-1.120000,0.700000
80.780712,-0.067344,-0.208376,1.000888,-1.260000,0.840000,-0.280000
80.788799,-0.043920,-0.234240,0.955504,0.000000,0.700000,-0.840000
80.796886,0.030744,-0.200080,1.003816,-0.700000,0.000000,-0.140000
80.804974,-0.123952,-0.235704,0.956480,-1.260000,0.980000,-0.700000
80.813061,0.009760,-0.191784,0.985760,-0.140000,0.840000,-0.980000
80.821148,-0.010736,-0.235216,1.031632,-0.840000,-0.560000,0.140000
80.829235,-0.074176,-0.205936,0.938424,-0.140000,1.120000,-1.120000
80.837322,-0.039040,-0.236192,0.980880,0.560000,1.540000,-0.980000
80.845409,0.004880,-0.183488,1.005768,0.560000,-1.680000,0.420000
80.853497,-0.095648,-0.218624,0.969656,0.560000,1.540000,-1.400000
80.861584,0.008784,-0.200080,1.008696,0.000000,0.420000,-0.140000
80.869671,-0.052216,-0.223016,0.983808,-0.420000,0.420000,0.280000
80.877758,-0.052216,-0.224480,0.934032,1.820000,1.540000,-0.840000
80.885845,0.003904,-0.208376,1.032608,0.840000,-0.700000,0.560000
80.893933,-0.061000,-0.207888,1.014552,-1.260000,-0.140000,-0.560000
80.902020,-0.045872,-0.216672,0.933544,0.980000,2.380000,-1.260000
80.910107,-0.006832,-0.223016,1.006744,0.420000,-0.140000,0.560000
80.918194,-0.080032,-0.210816,0.971608,-0.420000,0.140000,-0.560000
80.926281,0.018056,-0.199104,0.981856,1.400000,0.700000,-0.420000
80.934368,-0.047824,-0.230824,1.029192,0.140000,0.000000,0.420000
80.942456,-0.077104,-0.219600,0.931592,0.140000,1.260000,-1.260000
80.950543,0.011712,-0.207888,0.991128,2.380000,-0.140000,0.140000
80.958630,-0.050264,-0.200568,1.031632,0.280000,-0.140000,0.280000
80.966717,-0.050752,-0.228872,0.937936,0.700000,1.120000,-0.980000
80.974804,-0.021472,-0.226432,1.027728,0.980000,0.700000,-0.420000
80.982891,-0.056120,-0.196664,0.955504,0.000000,-0.140000,0.000000
80.990979,-0.029280,-0.237656,0.966240,1.260000,1.120000,-1.260000
80.999066,0.000976,-0.192760,1.037488,1.400000,-0.280000,0.280000
81.007153,-0.073688,-0.213256,0.967704,0.000000,1.260000,-0.980000
81.015240,-0.039528,-0.243512,0.938912,1.960000,1.540000,-0.980000
81.023327,-0.001464,-0.198128,1.026752,1.680000,-0.560000,-0.140000
81.031414,-0.067344,-0.212768,0.968680,0.280000,-0.280000,-0.700000
81.039502,-0.015616,-0.230336,0.978928,0.700000,1.820000,-1.540000
81.047589,-0.043920,-0.183000,1.003816,1.680000,0.280000,0.000000
81.055676,-0.040992,-0.233264,0.975512,1.260000,-0.420000,-0.560000
81.063763,-0.025864,-0.208864,0.977464,0.840000,1.540000,-1.120000
81.071850,-0.025376,-0.196176,0.997960,0.560000,-0.140000,0.140000
81.079937,-0.081984,-0.236192,0.975512,1.400000,1.400000,-1.400000
81.088025,-0.000488,-0.206424,1.008208,0.700000,0.560000,-0.700000
81.096112,-0.026352,-0.203496,0.966728,0.000000,0.000000,-0.280000
81.104199,-0.075640,-0.205448,0.971608,0.420000,0.840000,-0.980000
81.112286,0.004392,-0.215208,1.042368,-0.140000,0.980000,-1.120000
81.120373,-0.048800,-0.253272,0.918904,0.280000,0.000000,-0.140000
81.128461,-0.061000,-0.195200,0.980880,2.520000,1.400000,-1.260000
81.136548,-0.010736,-0.194224,1.041880,0.280000,-0.560000,0.000000
81.144635,-0.044896,-0.221552,0.981856,-0.560000,0.560000,-1.120000
81.152722,-0.047824,-0.218624,0.951112,1.120000,1.820000,-1.400000
81.160809,-0.007808,-0.187392,1.012112,-0.280000,-0.420000,0.140000
81.168896,-0.054656,-0.236680,0.972584,-0.560000,0.420000,-0.700000
81.176984,-0.033184,-0.212280,1.010648,0.280000,1.540000,-1.540000
81.185071,-0.016592,-0.211304,0.965264,-0.140000,-0.420000,-0.140000
81.193158,-0.065392,-0.229848,0.971608,0.140000,1.120000,-0.700000
81.201245,-0.043432,-0.195688,0.997960,-0.560000,1.120000,-1.260000
81.209332,0.022448,-0.213744,1.014064,-0.980000,-1.400000,-0.280000
81.217419,-0.092232,-0.238632,0.933056,-0.280000,2.520000,-1.260000
81.225507,-0.032696,-0.208376,1.006744,-0.140000,0.840000,-0.980000
81.233594,-0.016104,-0.223016,0.967216,0.280000,-0.840000,-0.420000
81.241681,-0.043920,-0.179584,0.983808,0.140000,0.000000,-0.560000
81.249768,-0.031720,-0.209352,1.019432,-1.540000,2.520000,-1.260000
81.257855,-0.027816,-0.251320,0.970144,-1.680000,-0.840000,-0.140000
81.265942,-0.055144,-0.212280,0.942328,0.560000,1.680000,-1.260000
81.274030,-0.028304,-0.205448,1.019432,-0.280000,0.280000,-0.700000
81.282117,-0.012688,-0.232288,1.008208,-0.980000,-1.120000,-0.280000
81.290204,-0.082472,-0.203496,0.954528,-0.280000,3.220000,-1.820000
81.298291,0.004880,-0.210816,0.979904,-0.560000,-0.140000,-0.280000
81.306378,-0.057584,-0.248880,0.990152,0.140000,-0.560000,-0.420000
81.314466,-0.040504,-0.182512,1.002840,-0.420000,1.540000,-1.260000
81.322553,-0.017080,-0.225944,0.983320,-0.840000,0.840000,-0.980000
81.330640,-0.068808,-0.233752,0.945256,-1.260000,-0.140000,-0.560000
81.338727,-0.029768,-0.209840,1.017968,0.140000,1.960000,-1.540000
81.346814,-0.001464,-0.199592,1.009184,-1.120000,-0.980000,0.140000
81.354901,-0.060024,-0.218624,0.970144,-1.540000,0.980000,-1.400000
81.362989,-0.050752,-0.231800,0.994056,-0.700000,1.540000,-1.260000
81.371076,-0.000488,-0.230824,0.967704,-1.120000,0.420000,-0.140000
81.379163,-0.071248,-0.208864,0.972584,-0.700000,-0.560000,-0.980000
81.387250,0.011224,-0.214720,1.027240,-0.980000,1.260000,-1.120000
81.395337,-0.061000,-0.232776,0.971608,-0.980000,0.280000,-0.280000
81.403424,-0.070272,-0.212280,0.940864,-0.560000,1.680000,-1.540000
81.411512,0.000000,-0.221552,1.004304,-1.120000,0.560000,-0.980000
81.419599,-0.033672,-0.216184,1.017968,-1.120000,-1.120000,0.420000
81.427686,-0.070760,-0.211792,0.936960,-0.700000,2.940000,-2.240000
81.435773,0.003416,-0.245464,1.003328,-0.980000,-0.840000,-0.280000
81.443860,-0.038064,-0.218624,0.975024,-0.700000,0.560000,-0.560000
81.451947,-0.094184,-0.180072,0.980880,-1.120000,1.960000,-1.540000
81.460035,0.052704,-0.248392,1.027240,-2.660000,-0.700000,-0.420000
81.468122,-0.106872,-0.227408,0.951600,-1.680000,1.120000,-0.980000
81.476209,-0.020496,-0.211792,0.971608,-0.700000,1.400000,-1.400000
81.484296,-0.011224,-0.252296,0.976976,-1.680000,-0.560000,-0.140000
81.492383,-0.050752,-0.184952,1.010160,-1.400000,-0.140000,-0.840000
81.500471,-0.054168,-0.229848,0.995520,-1.540000,3.080000,-2.240000
81.508558,-0.001952,-0.246928,0.924760,-2.240000,-1.540000,0.420000
81.516645,-0.083936,-0.214720,0.998448,-0.980000,2.100000,-1.540000
81.524732,-0.000976,-0.214720,1.031144,-1.960000,-0.140000,-0.700000
81.532819,-0.026840,-0.262056,0.930616,-1.820000,0.280000,-0.420000
81.540906,-0.086864,-0.197640,0.970632,-0.280000,1.960000,-1.960000
81.548994,0.022448,-0.221064,1.035048,-1.820000,-0.280000,-0.420000
81.557081,-0.048800,-0.241072,0.962824,-1.680000,-0.840000,-0.280000
81.565168,-0.068320,-0.206912,0.981368,-1.120000,3.080000,-2.100000
81.573255,0.009272,-0.237168,1.007232,-1.680000,-0.420000,-0.140000
81.581342,-0.057584,-0.231312,0.961360,-1.260000,-0.420000,-0.560000
81.589429,-0.081008,-0.199104,0.961360,-0.980000,2.940000,-1.960000
81.597517,0.052216,-0.252296,1.039440,-2.520000,-1.960000,0.560000
81.605604,-0.122976,-0.233264,0.948672,-1.400000,2.380000,-1.820000
81.613691,-0.003416,-0.223504,0.964776,-0.700000,1.120000,-1.120000
81.621778,-0.016592,-0.233752,0.984296,-1.400000,-0.560000,0.000000
81.629865,-0.056608,-0.181048,1.029680,-2.240000,0.280000,-1.120000
81.637952,-0.016592,-0.254736,0.967216,-2.800000,2.940000,-1.820000
81.646040,-0.018056,-0.249368,0.952576,-1.820000,-2.100000,0.980000
81.654127,-0.091744,-0.239120,0.958920,0.000000,3.360000,-2.660000
81.662214,0.000000,-0.205936,1.025776,-1.400000,-1.120000,0.140000
81.670301,-0.011224,-0.240584,0.956968,-1.960000,-0.280000,-0.280000
81.678388,-0.118584,-0.237168,0.983320,-1.120000,4.060000,-2.660000
81.686475,0.042456,-0.212280,0.981368,-2.520000,-1.120000,0.420000
81.694563,-0.096136,-0.253760,0.947696,-1.120000,0.140000,-1.260000
81.702650,-0.003904,-0.226432,1.032608,-1.540000,1.260000,-1.120000
81.710737,-0.027816,-0.246440,0.985760,-1.820000,1.400000,-0.840000
81.718824,-0.089304,-0.212768,0.918416,-1.260000,-0.840000,-0.560000
81.726911,0.020496,-0.240096,1.047736,-1.960000,2.940000,-2.380000
81.734999,-0.034648,-0.252784,0.950624,-2.240000,-2.660000,1.260000
81.743086,-0.066856,-0.218136,0.976488,0.420000,2.660000,-2.240000
81.751173,-0.037576,-0.237656,1.024800,-1.680000,0.420000,-0.980000
81.759260,0.019520,-0.245464,0.935984,-1.400000,-0.560000,0.000000
81.767347,-0.127368,-0.193736,0.967216,0.840000,1.820000,-1.680000
81.775434,0.050264,-0.274744,1.054568,-3.080000,-0.700000,-0.280000
81.783522,-0.084912,-0.265960,0.904752,-0.280000,2.100000,-0.840000
81.791609,-0.047336,-0.199592,0.974048,2.380000,-0.140000,-0.420000
81.799696,-0.005368,-0.259128,1.029680,-1.260000,1.260000,-1.540000
81.807783,-0.020496,-0.209840,0.943792,-0.560000,-2.520000,0.420000
81.815870,-0.059536,-0.231800,0.990640,0.980000,4.340000,-2.520000
81.823957,-0.053680,-0.270840,1.017480,-1.960000,-1.540000,0.420000
81.832045,0.018544,-0.203008,0.911096,0.980000,1.400000,-1.540000
81.840132,-0.106872,-0.247904,0.996008,0.700000,0.420000,-0.560000
81.848219,0.033184,-0.239608,1.030656,-1.120000,0.000000,-0.560000
81.856306,-0.121512,-0.233752,0.891088,1.260000,2.240000,-1.400000
81.864393,0.035136,-0.241072,1.019920,0.560000,-1.680000,-0.140000
81.872480,-0.062464,-0.239608,1.021872,-0.840000,2.100000,-1.400000
81.880568,-0.026352,-0.196664,0.953064,0.420000,-1.820000,0.700000
81.888655,-0.057584,-0.288896,0.968680,0.420000,4.620000,-2.520000
81.896742,-0.005856,-0.212280,1.004304,-0.980000,-3.640000,0.980000
81.904829,-0.034160,-0.220576,0.956968,0.560000,3.080000,-2.100000
81.912916,-0.072712,-0.285480,0.995032,-0.420000,-0.420000,0.000000
81.921004,0.011224,-0.190320,0.939888,0.700000,1.820000,-1.260000
81.929091,-0.108336,-0.273768,0.989176,0.560000,-0.420000,-0.560000
81.937178,0.055144,-0.197152,1.057008,-0.700000,-0.560000,-0.280000
81.945265,-0.125904,-0.253760,0.926224,-0.140000,2.940000,-1.400000
81.953352,0.019520,-0.258640,0.977464,0.700000,-1.960000,-0.140000
81.961439,-0.055632,-0.212768,0.981368,-0.280000,3.080000,-1.680000
81.969527,-0.021960,-0.246440,0.983808,-1.400000,-2.380000,0.560000
81.977614,-0.027816,-0.249856,0.992592,0.140000,3.780000,-2.380000
81.985701,-0.091744,-0.230824,0.955504,0.000000,-0.980000,0.700000
81.993788,0.028304,-0.218624,0.967704,0.280000,1.260000,-1.680000
82.001875,-0.086864,-0.235704,1.060912,-0.980000,0.140000,-0.420000
82.009962,0.037088,-0.227896,0.925736,-0.560000,-0.420000,-0.560000
82.018050,-0.128344,-0.284992,0.958920,-0.560000,3.360000,-1.680000
82.026137,0.018544,-0.192760,0.998936,-0.280000,-3.640000,0.840000
82.034224,-0.023424,-0.268400,0.962336,-0.980000,4.060000,-2.100000
82.042311,-0.079056,-0.249368,1.021872,0.420000,-1.260000,0.420000
82.050398,-0.004392,-0.216672,0.921832,0.280000,2.240000,-1.260000
82.058485,-0.095648,-0.270352,0.991128,0.560000,-0.140000,-0.140000
82.066573,0.051240,-0.199592,0.998936,0.280000,-1.260000,-0.140000
82.074660,-0.096624,-0.270352,0.986736,-0.840000,3.220000,-2.100000
82.082747,-0.016104,-0.241560,0.965264,1.260000,-2.660000,0.980000
82.090834,-0.020984,-0.209840,0.956480,-0.280000,3.220000,-1.400000
82.098921,-0.097600,-0.254248,1.008208,-0.420000,-1.400000,0.140000
82.107008,0.052704,-0.238632,0.968680,0.420000,0.700000,-1.120000
82.115096,-0.111752,-0.263520,0.971608,-0.700000,3.500000,-1.260000
82.123183,0.004880,-0.227896,0.976488,1.400000,-4.760000,1.120000
82.131270,-0.021472,-0.232776,1.003816,-0.980000,4.480000,-2.100000
82.139357,-0.096136,-0.268400,0.954528,0.560000,-0.280000,-0.280000
82.147444,0.038064,-0.212280,0.981368,1.400000,-1.120000,0.000000
82.155532,-0.111752,-0.232288,1.016992,-1.120000,3.080000,-1.400000
82.163619,0.020008,-0.247416,0.970632,0.420000,-3.640000,0.840000
82.171706,-0.021472,-0.259128,0.945256,-0.140000,4.200000,-1.960000
82.179793,-0.138592,-0.249368,0.980392,1.260000,-0.280000,-0.140000
82.187880,0.085400,-0.214720,0.976000,2.100000,-2.380000,0.420000
82.195967,-0.089792,-0.245464,1.024800,-0.700000,5.040000,-1.680000
82.204055,-0.038064,-0.257176,0.934032,2.100000,-3.920000,0.980000
82.212142,0.009760,-0.249368,0.973072,0.560000,3.220000,-1.540000
82.220229,-0.122000,-0.233264,0.999424,0.700000,0.000000,0.140000
82.228316,0.054168,-0.217160,0.960384,1.820000,-1.400000,0.280000
82.236403,-0.073688,-0.264496,1.008696,0.560000,4.480000,-1.820000
82.244490,-0.059048,-0.256688,0.952088,2.240000,-3.220000,1.120000
82.252578,0.020008,-0.215696,0.988688,1.960000,2.100000,-1.120000
82.260665,-0.099064,-0.223016,0.999912,0.140000,0.700000,-0.420000
82.268752,0.030744,-0.246440,0.964776,1.260000,-1.820000,0.140000
82.276839,-0.097112,-0.252784,0.965264,0.140000,5.180000,-1.820000
82.284926,-0.018056,-0.226920,1.008208,1.400000,-4.620000,1.820000
82.293013,0.030744,-0.221064,0.986248,0.560000,2.660000,-1.260000
82.301101,-0.160552,-0.292800,0.951600,-0.140000,2.660000,-1.120000
82.309188,0.056120,-0.228384,0.963800,3.500000,-3.920000,1.820000
82.317275,-0.051728,-0.250832,0.991128,1.400000,4.620000,-0.980000
82.325362,-0.080520,-0.246440,0.991128,2.100000,-2.380000,0.700000
82.333449,0.043920,-0.221552,0.993568,2.660000,0.980000,-0.980000
82.341536,-0.134200,-0.261568,0.957456,2.520000,3.500000,-0.840000
82.349624,0.032696,-0.202520,0.960872,2.240000,-3.500000,1.120000
82.357711,-0.043432,-0.275232,1.023824,1.680000,3.360000,-1.400000
82.365798,-0.055632,-0.244488,0.962336,2.800000,-1.260000,0.560000
82.373885,-0.013176,-0.242536,0.945744,3.360000,2.520000,-1.120000
82.381972,-0.092720,-0.236192,0.962336,3.220000,-0.700000,0.420000
82.390059,0.039040,-0.216184,1.011136,2.800000,-0.280000,-0.140000
82.398147,-0.093208,-0.265472,1.021872,1.960000,3.500000,-1.400000
82.406234,-0.008784,-0.220088,0.920856,2.940000,-2.660000,0.700000
82.414321,-0.028304,-0.261080,0.977464,3.220000,2.520000,-1.400000
82.422408,-0.061976,-0.195200,1.019920,2.800000,-1.260000,0.560000
82.430495,-0.006344,-0.264496,0.981856,2.240000,1.680000,-1.120000
82.438583,-0.058072,-0.263032,0.963800,3.640000,0.560000,-0.420000
82.446670,-0.013176,-0.202032,0.958432,3.780000,0.280000,-0.280000
82.454757,-0.065880,-0.272792,1.007720,3.360000,0.420000,-0.420000
82.462844,0.004880,-0.203984,0.978440,3.640000,0.420000,-0.560000
82.470931,-0.091744,-0.269376,0.960872,4.200000,2.240000,-1.400000
82.479018,0.008296,-0.218136,0.979904,3.780000,-2.100000,0.560000
82.487106,-0.061000,-0.215208,1.000888,3.640000,2.800000,-1.540000
82.495193,-0.030744,-0.239608,0.984784,2.100000,-1.820000,0.420000
82.503280,-0.020496,-0.258640,0.955992,3.920000,2.520000,-1.820000
82.511367,-0.059536,-0.209352,0.967216,4.060000,-0.980000,0.280000
82.519454,0.000976,-0.249856,0.997960,3.080000,1.540000,-1.260000
82.527541,-0.081984,-0.215208,0.980880,2.800000,0.000000,-0.140000
82.535629,0.020008,-0.248392,1.005280,3.640000,0.280000,-0.840000
82.543716,-0.111752,-0.244976,0.942816,3.500000,1.540000,-0.980000
82.551803,0.036112,-0.195200,1.016992,3.080000,-1.400000,0.140000
82.559890,-0.084424,-0.256200,0.971120,3.500000,2.940000,-1.960000
82.567977,0.005368,-0.211304,0.986248,2.520000,-2.380000,1.120000
82.576064,-0.082472,-0.265960,0.969168,3.360000,4.900000,-2.520000
82.584152,-0.032208,-0.194712,0.966240,4.060000,-3.780000,0.980000
82.592239,0.020496,-0.268400,0.999424,3.640000,2.800000,-1.680000
82.600326,-0.122488,-0.180072,0.980392,3.920000,-0.140000,0.140000
82.608413,0.039040,-0.272792,0.983808,4.200000,0.840000,-1.120000
82.616500,-0.117608,-0.250832,0.964776,5.040000,0.560000,-0.560000
82.624587,0.029768,-0.168848,0.995520,3.780000,-0.140000,-0.140000
82.632675,-0.087352,-0.263520,0.988688,3.920000,1.540000,-1.540000
82.640762,0.032208,-0.191296,0.986248,2.940000,-2.660000,0.840000
82.648849,-0.106872,-0.276696,0.963312,3.780000,5.740000,-2.800000
82.656936,-0.002928,-0.194712,0.961360,4.060000,-4.620000,1.680000
82.665023,-0.005368,-0.245464,1.026264,4.200000,4.200000,-2.800000
82.673111,-0.097112,-0.182512,0.965264,2.520000,-2.100000,0.980000
82.681198,0.049288,-0.273280,1.002352,3.780000,2.100000,-1.540000
82.689285,-0.153232,-0.221064,0.954528,4.760000,0.560000,-0.280000
82.697372,0.095648,-0.207400,1.003328,3.500000,-1.260000,-0.140000
82.705459,-0.152744,-0.244976,0.971608,4.340000,2.520000,-1.400000
82.713546,0.046360,-0.177632,0.994056,3.080000,-2.800000,0.980000
82.721634,-0.091744,-0.304024,0.946720,4.480000,5.460000,-2.660000
82.729721,-0.031720,-0.176168,0.976488,4.480000,-4.760000,1.960000
82.737808,-0.010248,-0.243024,1.037000,4.200000,4.760000,-2.940000
82.745895,-0.062464,-0.208376,0.940376,4.060000,-2.660000,1.400000
82.753982,0.020496,-0.248392,1.010160,5.040000,2.940000,-2.240000
82.762069,-0.148840,-0.176656,0.966240,4.760000,-0.280000,-0.140000
82.770157,0.122000,-0.209840,1.023824,3.220000,-1.400000,0.140000
82.778244,-0.175680,-0.264496,0.963312,3.640000,3.500000,-1.680000
82.786331,0.047336,-0.192760,0.975512,3.780000,-2.800000,0.280000
82.794418,-0.092720,-0.256200,0.976488,4.900000,3.920000,-2.660000
82.802505,-0.018056,-0.198128,0.967704,4.200000,-3.080000,1.120000
82.810592,-0.020008,-0.201056,1.016016,4.200000,4.200000,-2.100000
82.818680,-0.073200,-0.240096,0.981856,4.340000,-3.220000,0.840000
82.826767,0.012200,-0.216672,1.001376,5.040000,3.640000,-2.240000
82.834854,-0.101992,-0.212768,0.925248,4.900000,-1.260000,0.700000
82.842941,0.066856,-0.203496,1.054568,4.620000,-0.840000,-0.420000
82.851028,-0.126880,-0.195688,0.989664,3.360000,2.800000,-1.540000
82.859115,0.041968,-0.223016,0.935984,2.520000,-1.820000,0.420000
82.867203,-0.100528,-0.257664,0.986248,4.060000,3.080000,-1.960000
82.875290,-0.013176,-0.173728,1.006256,2.940000,-1.540000,0.280000
82.883377,-0.018544,-0.233264,0.976488,3.220000,2.800000,-1.960000
82.891464,-0.081984,-0.219600,0.957944,4.340000,-1.400000,0.560000
82.899551,0.003904,-0.201544,1.034560,3.920000,2.240000,-1.680000
82.907639,-0.080520,-0.219600,0.950136,3.920000,-1.400000,0.000000
82.915726,0.043432,-0.203496,1.020896,3.920000,0.700000,-0.980000
82.923813,-0.123952,-0.206424,0.985760,3.360000,1.960000,-0.980000
82.931900,0.017568,-0.212280,0.941840,2.100000,-1.820000,0.420000
82.939987,-0.076128,-0.223504,0.998936,4.060000,3.360000,-2.800000
82.948074,0.015128,-0.196176,1.009184,2.520000,-3.220000,1.400000
82.956162,-0.080520,-0.254248,0.973072,3.920000,4.060000,-2.520000
82.964249,-0.047336,-0.169336,0.953064,3.920000,-1.540000,0.420000
82.972336,0.041480,-0.219600,1.028704,2.660000,1.120000,-1.120000
82.980423,-0.139568,-0.200080,0.968680,2.380000,-0.140000,-0.280000
82.988510,0.059536,-0.206912,1.009672,2.380000,0.840000,-1.120000
82.996597,-0.116632,-0.216672,0.966240,2.800000,1.540000,-0.980000
83.004685,0.037576,-0.195200,0.995032,1.540000,-2.100000,0.280000
83.012772,-0.110776,-0.208864,1.011624,1.680000,4.060000,-2.240000
83.020859,0.036600,-0.195688,0.981368,0.420000,-3.500000,1.120000
83.028946,-0.081984,-0.258640,0.955016,2.100000,5.320000,-3.360000
83.037033,-0.033672,-0.196176,0.986248,2.520000,-3.500000,1.260000
83.045120,0.005368,-0.207400,1.009184,2.940000,2.520000,-1.680000
83.053208,-0.102480,-0.176656,0.988688,1.680000,-0.700000,-0.280000
83.061295,0.064904,-0.221064,1.003816,1.260000,1.680000,-1.120000
83.069382,-0.164456,-0.226920,0.932568,2.520000,0.560000,-0.980000
83.077469,0.070760,-0.194224,1.031632,1.680000,-0.840000,-0.420000
83.085556,-0.090768,-0.215208,0.972096,1.820000,2.100000,-1.400000
83.093644,-0.005368,-0.207400,0.996008,1.120000,-2.380000,0.560000
83.101731,-0.069784,-0.207888,0.994544,2.100000,4.900000,-2.800000
83.109818,-0.020496,-0.190808,0.955504,0.840000,-3.500000,1.120000
83.117905,0.002440,-0.231800,1.021384,1.540000,3.080000,-2.240000
83.125992,-0.102480,-0.167384,0.986248,0.840000,-0.420000,0.000000
83.134079,0.043432,-0.232776,0.969656,0.420000,0.700000,-1.120000
83.142167,-0.125416,-0.186416,0.981856,1.400000,0.980000,-1.260000
83.150254,0.067832,-0.227896,1.029680,-0.140000,-0.980000,0.000000
83.158341,-0.135664,-0.239608,0.934032,1.820000,2.940000,-1.820000
83.166428,0.034160,-0.169824,0.984296,1.960000,-2.240000,0.420000
83.174515,-0.062464,-0.217648,0.994056,0.840000,3.640000,-2.100000
83.182602,-0.044896,-0.172752,0.989176,-1.540000,-3.500000,1.400000
83.190690,-0.031232,-0.221552,1.002840,0.000000,5.460000,-3.080000
83.198777,-0.064904,-0.225456,0.961360,0.140000,-2.520000,0.560000
83.206864,0.043432,-0.199592,1.007720,-0.280000,1.820000,-1.540000
83.214951,-0.139568,-0.168848,0.977464,-0.140000,0.560000,-1.260000
83.223038,0.085888,-0.236680,1.025288,-2.660000,-0.840000,0.140000
83.231126,-0.157624,-0.203008,0.926224,0.420000,4.620000,-3.080000
83.239213,0.049776,-0.231800,1.012600,-1.680000,-4.200000,0.980000
83.247300,-0.061000,-0.218136,0.988688,-0.560000,4.480000,-2.520000
83.255387,-0.066368,-0.172752,1.009184,-1.680000,-1.120000,0.700000
83.263474,0.013176,-0.229360,0.976000,-0.840000,2.380000,-2.520000
83.271561,-0.086864,-0.209352,0.948184,-1.540000,-2.100000,0.840000
83.279649,0.029768,-0.184952,1.040904,-0.280000,2.520000,-1.400000
83.287736,-0.107360,-0.253760,0.954528,-0.840000,-0.280000,-0.280000
83.295823,0.046360,-0.186416,1.002352,-0.420000,-0.420000,-1.260000
83.303910,-0.122976,-0.215696,0.972096,-1.540000,3.080000,-1.820000
83.311997,0.048800,-0.200080,1.006744,-2.800000,-3.500000,1.400000
83.320084,-0.113704,-0.252784,0.959408,-0.840000,5.880000,-3.500000
83.328172,-0.002440,-0.195200,0.975024,-1.820000,-3.780000,1.120000
83.336259,-0.026352,-0.218624,1.022360,-1.260000,4.200000,-2.520000
83.344346,-0.104432,-0.130296,0.970632,-2.940000,-2.520000,0.840000
83.352433,0.084912,-0.240096,1.039440,-4.340000,2.380000,-2.240000
83.360520,-0.164944,-0.263520,0.913536,-3.920000,0.420000,-0.560000
83.368607,0.091256,-0.177144,1.014064,-1.400000,0.000000,-0.420000
83.376695,-0.145912,-0.241560,0.983320,-2.800000,2.380000,-0.980000
83.384782,0.065392,-0.157136,1.027240,-4.620000,-3.920000,0.420000
83.392869,-0.135176,-0.264008,0.957944,-2.800000,7.140000,-3.920000
83.400956,0.021472,-0.215208,0.944280,-4.060000,-4.900000,1.960000
83.409043,-0.041480,-0.257176,0.984784,-1.960000,5.460000,-2.940000
83.417131,-0.068320,-0.179096,1.013576,-2.520000,-3.360000,1.400000
83.425218,0.035624,-0.216184,0.996008,-3.360000,2.940000,-2.380000
83.433305,-0.139568,-0.231312,0.953064,-2.800000,0.280000,-0.560000
83.441392,0.100528,-0.205936,1.025288,-2.100000,-0.280000,-0.140000
83.449479,-0.173728,-0.268400,0.926224,-1.820000,2.100000,-1.540000
83.457566,0.082960,-0.183488,1.030656,-0.980000,-2.940000,0.140000
83.465654,-0.127856,-0.242536,0.974048,-0.980000,4.900000,-2.520000
83.473741,0.007808,-0.204472,0.956968,-2.940000,-2.940000,1.400000
83.481828,-0.060512,-0.240584,0.981368,-1.680000,5.740000,-3.920000
83.489915,-0.024888,-0.225944,1.001376,-1.680000,-5.460000,2.380000
83.498002,-0.006344,-0.217648,0.981856,-0.700000,5.600000,-3.220000
83.506089,-0.131272,-0.208376,0.943792,-1.680000,-1.120000,0.280000
83.514177,0.104432,-0.226432,1.019920,-1.120000,0.000000,-0.700000
83.522264,-0.190808,-0.238632,0.984784,-1.400000,2.100000,-1.960000
83.530351,0.133712,-0.194712,0.999424,-1.680000,-3.500000,1.400000
83.538438,-0.159576,-0.286944,0.962336,-0.280000,6.160000,-3.500000
83.546525,0.000488,-0.174704,0.957944,-1.540000,-4.060000,1.680000
83.554612,-0.030256,-0.225944,0.993568,-1.260000,5.460000,-3.360000
83.562700,-0.068808,-0.245952,0.982832,-2.800000,-5.320000,2.240000
83.570787,0.041968,-0.208864,1.035048,0.000000,6.580000,-3.220000
83.578874,-0.161528,-0.271816,0.910120,-0.700000,-2.660000,1.400000
83.586961,0.101992,-0.203496,1.014552,1.260000,0.840000,-1.820000
83.595048,-0.150304,-0.203008,0.993568,0.700000,1.120000,-0.420000
83.603136,0.084424,-0.191296,1.026264,-2.240000,-2.520000,0.840000
83.611223,-0.181048,-0.297680,0.886208,-0.700000,6.440000,-4.060000
83.619310,0.085400,-0.206912,1.021872,0.000000,-6.020000,2.800000
83.627397,-0.099064,-0.271328,0.959896,1.400000,6.860000,-3.360000
83.635484,-0.046848,-0.193736,1.002840,0.140000,-5.180000,1.680000
83.643571,0.050264,-0.201056,1.007232,0.700000,5.040000,-2.940000
83.651659,-0.192760,-0.265960,0.912560,0.560000,-1.540000,0.700000
83.659746,0.133224,-0.208864,1.038952,1.680000,1.120000,-0.700000
83.667833,-0.169824,-0.268888,0.947208,1.540000,1.120000,-0.840000
83.675920,0.075640,-0.181048,1.020896,2.100000,-2.660000,0.140000
83.684007,-0.145424,-0.248880,0.967216,1.680000,6.300000,-2.800000
83.692094,0.059048,-0.171288,0.974048,-1.540000,-6.580000,2.800000
83.700182,-0.092232,-0.262544,0.995032,0.840000,7.840000,-4.900000
83.708269,-0.013664,-0.238144,0.979416,0.000000,-6.020000,3.080000
83.716356,-0.010248,-0.242048,0.991128,2.800000,5.600000,-3.360000
83.724443,-0.138592,-0.224480,0.924760,1.960000,-1.540000,0.980000
83.732530,0.129808,-0.161040,1.057984,0.700000,0.000000,-0.560000
83.740618,-0.228872,-0.250832,0.936960,-0.840000,2.520000,-2.100000
83.748705,0.134688,-0.258640,1.011136,0.840000,-1.960000,1.120000
83.756792,-0.160064,-0.270352,0.921344,3.780000,4.060000,-2.380000
83.764879,0.008296,-0.175680,1.003816,2.240000,-3.640000,1.120000
83.772966,-0.013664,-0.205936,1.028216,1.540000,4.480000,-3.080000
83.781053,-0.062952,-0.206912,0.975024,-0.700000,-4.480000,2.520000
83.789141,0.016592,-0.235704,0.967704,1.540000,6.720000,-3.500000
83.797228,-0.114680,-0.291336,0.962824,0.980000,-4.620000,1.400000
83.805315,0.043920,-0.188856,1.013088,2.240000,2.940000,-2.520000
83.813402,-0.126880,-0.204960,0.977952,1.260000,0.700000,-0.560000
83.821489,0.080520,-0.204960,1.043344,-0.140000,-1.820000,0.980000
83.829576,-0.199104,-0.238144,0.875960,-0.280000,5.320000,-3.920000
83.837664,0.105408,-0.243512,1.049200,0.140000,-5.180000,2.520000
83.845751,-0.088328,-0.279136,0.927200,2.240000,5.600000,-2.800000
83.853838,-0.076616,-0.184952,1.024312,1.120000,-2.660000,0.700000
83.861925,0.057096,-0.222528,0.958432,2.240000,3.500000,-2.380000
83.870012,-0.154208,-0.200080,0.970632,0.560000,-2.800000,0.840000
83.878099,0.122488,-0.212768,1.050176,1.120000,1.820000,-0.560000
83.886187,-0.201056,-0.310856,0.912072,1.260000,1.680000,-0.840000
83.894274,0.082472,-0.165920,1.000400,2.520000,-2.940000,-0.140000
83.902361,-0.105408,-0.238144,0.990640,1.960000,5.460000,-2.660000
83.910448,0.020984,-0.194224,1.012112,-1.400000,-6.160000,2.800000
83.918535,-0.080032,-0.248880,0.966240,0.980000,7.980000,-4.760000
83.926623,-0.037576,-0.246928,0.944280,1.120000,-4.760000,2.100000
83.934710,-0.003416,-0.210328,1.029680,2.380000,4.340000,-2.800000
83.942797,-0.128344,-0.186904,0.956968,0.420000,-1.540000,0.420000
83.950884,0.135176,-0.226432,1.027728,0.000000,0.140000,-0.700000
83.958971,-0.248392,-0.264984,0.936960,-0.420000,2.940000,-2.520000
83.967058,0.141520,-0.224480,1.006744,1.400000,-2.800000,1.680000
83.975146,-0.142008,-0.253760,0.937448,2.520000,5.320000,-2.240000
83.983233,-0.013664,-0.143472,1.017968,-0.280000,-5.740000,1.540000
83.991320,0.009272,-0.245952,1.010648,0.280000,6.440000,-3.360000
83.999407,-0.103456,-0.256688,0.918416,-0.700000,-4.060000,1.820000
84.007494,0.042456,-0.231312,1.044808,1.260000,4.480000,-2.940000
84.015581,-0.107360,-0.243024,0.945256,1.540000,-1.540000,0.840000
84.023669,0.045384,-0.200080,1.000888,2.100000,-0.420000,-0.840000
84.031756,-0.153720,-0.242048,0.953552,1.540000,4.340000,-2.380000
84.039843,0.091256,-0.193736,1.025776,-0.280000,-5.040000,2.380000
84.047930,-0.142984,-0.251320,0.944768,0.840000,6.300000,-3.920000
84.056017,0.036112,-0.225456,1.010160,0.000000,-4.900000,2.380000
84.064104,-0.046848,-0.244000,0.989176,1.400000,4.900000,-3.360000
84.072192,-0.101992,-0.175192,0.951600,0.280000,-2.520000,0.980000
84.080279,0.090768,-0.157624,1.036024,-1.260000,3.220000,-1.400000
84.088366,-0.186904,-0.303048,0.945744,-3.360000,-1.120000,-0.420000
84.096453,0.125416,-0.228872,1.006744,0.420000,0.700000,-0.560000
84.104540,-0.187392,-0.241072,0.940376,0.980000,2.800000,-1.400000
84.112627,0.052704,-0.182512,1.008208,-1.540000,-4.760000,0.980000
84.120715,-0.038552,-0.236192,1.024800,-1.400000,6.860000,-3.920000
84.128802,-0.065880,-0.219112,0.949648,-2.380000,-5.040000,3.080000
84.136889,-0.005368,-0.266448,0.940864,0.560000,5.880000,-3.640000
84.144976,-0.097600,-0.264496,1.000400,-0.140000,-2.800000,1.680000
84.153063,0.049776,-0.168360,0.982344,0.840000,0.840000,-1.540000
84.161151,-0.133224,-0.242048,0.966240,0.560000,1.820000,-1.400000
84.169238,0.095160,-0.196664,1.038464,-1.960000,-1.400000,1.400000
84.177325,-0.206424,-0.265472,0.897432,0.280000,4.900000,-4.060000
84.185412,0.103456,-0.238632,1.022848,0.140000,-5.320000,2.380000
84.193499,-0.077592,-0.230336,0.989664,1.120000,5.880000,-2.660000
84.201586,-0.122000,-0.183000,1.004792,-1.260000,-3.080000,0.420000
84.209674,0.122000,-0.225944,0.980880,-0.560000,3.360000,-1.680000
84.217761,-0.192760,-0.252784,0.928664,-1.820000,-0.420000,-0.420000
84.225848,0.083448,-0.241560,1.042856,-0.420000,0.140000,-0.560000
84.233935,-0.082960,-0.259128,0.944280,1.680000,1.400000,-0.980000
84.242022,-0.040992,-0.175680,1.003816,0.700000,-1.820000,0.000000
84.250109,-0.034648,-0.261568,0.982832,0.140000,5.040000,-2.940000
84.258197,-0.002440,-0.212768,0.965264,-1.120000,-5.320000,2.940000
84.266284,-0.087840,-0.247904,0.979416,0.840000,6.440000,-4.340000
84.274371,-0.031720,-0.236192,1.002840,0.420000,-3.500000,1.120000
84.282458,0.032696,-0.207888,0.947696,0.700000,2.660000,-1.400000
84.290545,-0.174704,-0.198128,0.959408,-0.420000,1.680000,-1.260000
84.298632,0.135176,-0.197152,1.059936,-3.500000,-2.800000,1.400000
84.306720,-0.188368,-0.293288,0.937448,-1.960000,4.760000,-3.500000
84.314807,0.053680,-0.248392,0.966728,-0.560000,-2.100000,0.980000
84.322894,-0.070272,-0.245952,0.971608,1.540000,2.940000,-1.820000
84.330981,-0.067832,-0.172752,0.999912,-0.980000,-2.660000,0.420000
84.339068,0.085888,-0.214720,1.022848,-1.400000,3.500000,-1.960000
84.347155,-0.160064,-0.315248,0.956480,-2.240000,-2.380000,0.700000
84.355243,0.045872,-0.212768,0.950136,2.520000,3.360000,-1.960000
84.363330,-0.101992,-0.249368,0.997960,1.400000,0.140000,0.140000
84.371417,0.020008,-0.192760,0.997472,0.000000,-3.080000,0.140000
84.379504,-0.082472,-0.233264,1.008208,0.000000,6.020000,-3.780000
84.387591,-0.005368,-0.242048,0.950136,-1.120000,-4.060000,2.660000
84.395679,-0.058072,-0.261568,0.949160,1.820000,4.340000,-2.660000
84.403766,-0.039528,-0.210328,1.003816,1.400000,-2.380000,0.980000
84.411853,0.053680,-0.215208,1.012112,-0.420000,0.840000,-1.400000
84.419940,-0.190808,-0.257176,0.942816,0.280000,2.520000,-1.820000
84.428027,0.108336,-0.188368,0.995032,0.140000,-1.260000,1.400000
84.436114,-0.153720,-0.297192,0.966728,-0.980000,2.100000,-1.400000
84.444202,0.034648,-0.184952,1.008208,1.120000,-1.680000,-0.280000
84.452289,-0.029280,-0.254736,0.996984,-0.140000,2.940000,-1.820000
84.460376,-0.106384,-0.228872,0.892064,-0.560000,-1.260000,0.420000
84.468463,0.011224,-0.214720,1.020896,0.700000,3.640000,-2.660000
84.476550,-0.034160,-0.271328,1.014064,-0.980000,-3.780000,1.680000
84.484637,-0.037088,-0.230336,0.945744,1.820000,3.500000,-2.240000
84.492725,-0.070272,-0.225944,1.031144,1.120000,0.420000,-0.420000
84.500812,0.024888,-0.204960,0.954528,-0.140000,-0.980000,-0.140000
84.508899,-0.129808,-0.250832,0.951600,0.000000,2.520000,-2.100000
84.516986,0.071248,-0.212768,1.038464,-1.260000,-1.680000,0.840000
84.525073,-0.091744,-0.278648,0.932080,0.560000,2.240000,-1.400000
84.533160,-0.052216,-0.187392,0.994544,0.840000,-0.420000,-0.420000
84.541248,0.018056,-0.242048,1.013576,-1.400000,1.120000,-1.120000
84.549335,-0.072712,-0.239120,0.938424,-0.280000,-1.260000,0.140000
84.557422,-0.013664,-0.252296,1.014552,0.560000,3.360000,-1.680000
84.565509,-0.071736,-0.268400,0.945744,0.420000,-0.420000,-0.140000
84.573596,0.008296,-0.196664,0.962824,2.380000,-0.840000,-0.420000
84.581683,-0.092720,-0.226432,1.022848,0.700000,2.940000,-1.540000
84.589771,0.035136,-0.236192,1.006744,-1.680000,-2.100000,0.560000
84.597858,-0.114680,-0.271328,0.862784,2.100000,3.500000,-1.820000
84.605945,-0.005856,-0.224480,1.066768,1.680000,-1.680000,0.140000
84.614032,-0.024400,-0.226920,0.969168,0.840000,1.260000,-0.980000
84.622119,-0.042456,-0.218624,0.960384,1.540000,-0.980000,-0.140000
84.630207,-0.024888,-0.248392,1.039440,0.840000,2.940000,-1.680000
84.638294,-0.077592,-0.253760,0.924760,0.280000,-1.400000,0.420000
84.646381,0.020496,-0.204472,0.974536,2.380000,1.400000,-1.680000
84.654468,-0.072224,-0.238632,1.042856,0.420000,0.140000,-0.420000
84.662555,-0.000976,-0.241072,0.937936,0.140000,0.560000,-0.280000
84.670642,-0.111264,-0.244488,0.947208,2.240000,2.520000,-1.820000
84.678730,0.043920,-0.222528,1.032608,0.700000,-1.960000,0.280000
84.686817,-0.081984,-0.252784,0.947696,1.400000,1.820000,-1.260000
84.694904,-0.034648,-0.195200,0.992592,1.120000,0.140000,-0.140000
84.702991,-0.031232,-0.272792,0.995520,1.260000,2.240000,-1.820000
84.711078,-0.033672,-0.222528,0.955504,1.120000,-2.100000,0.560000
84.719165,-0.034648,-0.215696,0.976976,2.380000,3.360000,-1.820000
84.727253,-0.037088,-0.276208,1.010160,0.420000,-2.380000,0.560000
84.735340,0.001464,-0.209352,0.974048,2.240000,2.660000,-1.680000
84.743427,-0.118584,-0.252296,0.933056,2.380000,0.140000,-0.420000
84.751514,0.050752,-0.211304,1.015040,0.560000,-0.840000,0.140000
84.759601,-0.118096,-0.245464,0.968192,0.840000,2.660000,-1.680000
84.767688,0.028792,-0.228872,1.006256,1.540000,-1.400000,0.000000
84.775776,-0.089304,-0.266448,0.953552,2.100000,3.080000,-1.400000
84.783863,-0.013664,-0.174704,0.993568,0.280000,-2.380000,0.560000
84.791950,-0.028304,-0.242536,1.024800,0.280000,3.640000,-2.660000
84.800037,-0.046848,-0.254248,0.955504,-0.140000,-2.940000,1.260000
84.808124,-0.017568,-0.214720,0.958920,2.240000,4.480000,-1.960000
84.816212,-0.091744,-0.264496,0.957944,0.560000,-1.680000,0.420000
84.824299,0.055144,-0.209352,1.042856,0.700000,0.280000,-1.260000
84.832386,-0.117608,-0.243512,0.948672,1.400000,1.120000,-0.840000
84.840473,0.051728,-0.246440,0.994544,1.120000,0.140000,-0.280000
84.848560,-0.150304,-0.243512,0.943304,2.520000,1.960000,-1.120000
84.856647,0.066368,-0.198616,1.008208,1.400000,-2.940000,0.560000
84.864735,-0.099552,-0.257176,0.989664,0.560000,4.900000,-2.520000
84.872822,-0.023424,-0.203008,0.978440,0.000000,-3.500000,1.260000
84.880909,-0.007320,-0.273768,0.960872,2.940000,4.900000,-2.520000
84.888996,-0.089792,-0.236192,0.981856,1.820000,-3.360000,1.400000
84.897083,0.043432,-0.189344,1.023824,2.520000,2.800000,-2.100000
84.905170,-0.118096,-0.249368,0.962336,1.680000,-0.560000,-0.140000
84.913258,0.060512,-0.231312,0.972096,0.840000,0.560000,-0.420000
84.921345,-0.168848,-0.237656,0.966240,1.820000,2.380000,-1.960000
84.929432,0.095160,-0.201056,1.014552,0.700000,-4.340000,1.400000
84.937519,-0.109312,-0.288896,0.963800,1.400000,5.880000,-2.660000
84.945606,-0.060512,-0.179584,0.981856,-0.140000,-2.520000,1.400000
84.953693,0.027328,-0.262056,0.976976,1.820000,3.360000,-2.520000
84.961781,-0.094184,-0.273768,0.958920,1.960000,-2.520000,1.400000
84.969868,0.030744,-0.169336,1.019432,2.660000,2.940000,-1.820000
84.977955,-0.118096,-0.276208,0.984296,2.240000,-1.400000,0.000000
84.986042,0.067344,-0.198128,0.956480,2.380000,0.560000,-0.700000
84.994129,-0.165432,-0.226920,0.962336,1.540000,3.080000,-1.400000
85.002217,0.095160,-0.213256,1.037488,0.560000,-5.180000,1.680000
85.010304,-0.127856,-0.300120,0.915488,1.820000,7.140000,-3.360000
85.018391,-0.018056,-0.200568,1.003328,1.400000,-3.780000,1.960000
85.026478,-0.018056,-0.248880,0.976488,1.960000,3.780000,-2.240000
85.034565,-0.078568,-0.196664,1.006256,1.400000,-2.100000,0.560000
85.042652,0.050264,-0.198616,1.006256,0.840000,2.380000,-1.400000
85.050740,-0.141520,-0.316712,0.931104,0.980000,-0.140000,-0.140000
85.058827,0.059048,-0.179096,0.984296,2.380000,0.840000,-1.260000
85.066914,-0.115656,-0.241072,0.969168,1.400000,0.560000,-0.420000
85.075001,0.047824,-0.205936,1.036024,0.280000,-2.520000,0.420000
85.083088,-0.116632,-0.263520,0.975512,0.560000,5.460000,-3.080000
85.091175,0.002928,-0.195200,0.940376,0.420000,-3.780000,1.680000
85.099263,-0.051240,-0.288408,0.976000,2.100000,4.060000,-2.380000
85.107350,-0.043432,-0.187392,1.030168,1.260000,-2.800000,1.120000
85.115437,0.016592,-0.216672,0.976488,0.700000,2.660000,-1.820000
85.123524,-0.122000,-0.282064,0.959896,0.980000,-0.280000,-0.280000
85.131611,0.057584,-0.176656,0.996984,1.120000,0.700000,-0.560000
85.139698,-0.124440,-0.278160,0.955016,0.980000,1.120000,-0.560000
85.147786,0.042456,-0.191784,1.013576,1.260000,-1.820000,-0.280000
85.155873,-0.102968,-0.252296,0.994544,1.260000,3.920000,-1.960000
85.163960,-0.002928,-0.212280,0.935496,0.000000,-1.960000,0.840000
85.172047,-0.055632,-0.281088,0.975024,1.540000,3.500000,-2.660000
85.180134,-0.003904,-0.192272,1.024312,1.260000,-3.360000,1.540000
85.188222,-0.030256,-0.234240,0.981856,1.120000,3.780000,-2.100000
85.196309,-0.095160,-0.232288,0.951112,1.260000,-0.280000,-0.280000
85.204396,0.066368,-0.212280,0.989664,0.980000,0.140000,-0.420000
85.212483,-0.156160,-0.269864,1.001376,1.120000,0.980000,-0.840000
85.220570,0.064904,-0.200080,0.975024,0.840000,-0.840000,-0.280000
85.228657,-0.097600,-0.280112,0.973072,2.940000,2.800000,-1.820000
85.236745,-0.029280,-0.187880,0.948672,0.980000,-2.520000,0.840000
85.244832,-0.029280,-0.233752,1.017968,0.000000,5.040000,-3.080000
85.252919,-0.038552,-0.219600,0.977464,0.000000,-4.620000,1.820000
85.261006,0.000488,-0.246928,0.998936,1.540000,4.200000,-1.820000
85.269093,-0.127368,-0.237656,0.939400,0.700000,0.700000,-0.140000
85.277180,0.086864,-0.184952,1.007720,0.980000,-2.380000,0.000000
85.285268,-0.137616,-0.275720,0.978928,0.560000,3.360000,-1.960000
85.293355,0.036600,-0.200568,0.977464,-0.140000,-1.960000,0.980000
85.301442,-0.093696,-0.300608,0.953552,2.100000,4.200000,-2.940000
85.309529,-0.033672,-0.185440,0.985272,1.260000,-2.660000,1.260000
85.317616,0.006344,-0.209352,1.012600,1.400000,3.640000,-1.960000
85.325703,-0.099064,-0.263520,0.979416,0.000000,-3.220000,0.980000
85.333791,0.053680,-0.210328,0.989664,1.540000,3.780000,-1.820000
85.341878,-0.144448,-0.255224,0.949648,0.980000,-0.420000,0.000000
85.349965,0.067832,-0.188856,1.000888,0.840000,-1.820000,-0.700000
85.358052,-0.110776,-0.267912,1.001376,0.560000,3.640000,-1.820000
85.366139,0.020496,-0.185440,0.997472,-0.700000,-3.080000,1.260000
85.374227,-0.104432,-0.299144,0.901824,1.960000,5.600000,-3.080000
85.382314,0.018056,-0.212280,1.044320,1.400000,-4.620000,1.820000
85.390401,-0.040992,-0.201544,0.964776,1.120000,5.040000,-2.100000
85.398488,-0.089792,-0.238144,0.959896,0.700000,-2.660000,0.280000
85.406575,0.081008,-0.214720,1.022848,0.140000,2.240000,-1.400000
85.414662,-0.184464,-0.264496,0.937448,0.280000,0.560000,-0.560000
85.422750,0.092720,-0.214232,1.002840,1.540000,-1.540000,0.140000
85.430837,-0.097600,-0.255712,0.993568,1.680000,2.660000,-1.400000
85.438924,-0.035136,-0.194712,0.973560,-0.140000,-1.820000,0.140000
85.447011,-0.051728,-0.275232,0.951112,0.980000,4.760000,-2.940000
85.455098,-0.007808,-0.205936,0.988688,0.980000,-4.480000,2.100000
85.463185,-0.042944,-0.218136,1.014552,1.400000,4.900000,-2.800000
85.471273,-0.078568,-0.271328,0.953064,0.980000,-2.520000,1.120000
85.479360,0.060512,-0.206424,0.976000,2.520000,1.820000,-1.680000
85.487447,-0.177144,-0.221552,0.987712,2.240000,0.980000,-0.980000
85.495534,0.113216,-0.211792,1.018944,-0.280000,-2.240000,0.840000
85.503621,-0.163480,-0.278160,0.919880,1.400000,3.080000,-2.380000
85.511709,0.045384,-0.205448,1.027240,1.960000,-1.960000,0.840000
85.519796,-0.081984,-0.284016,0.943304,2.660000,4.760000,-2.380000
85.527883,-0.035136,-0.163480,0.974048,0.560000,-3.780000,1.400000
85.535970,0.021472,-0.234240,1.049200,1.120000,3.780000,-2.800000
85.544057,-0.100040,-0.287920,0.955504,0.560000,-2.660000,1.540000
85.552144,0.025864,-0.190808,0.961848,3.920000,3.080000,-2.100000
85.560232,-0.107360,-0.255224,0.984296,3.360000,-0.420000,0.140000
85.568319,0.059536,-0.166896,1.021872,1.120000,-2.240000,0.280000
85.576406,-0.149816,-0.283040,0.941840,0.980000,5.320000,-3.220000
85.584493,0.073200,-0.215696,0.998936,1.540000,-4.200000,1.960000
85.592580,-0.127368,-0.244000,0.943792,2.660000,5.320000,-2.520000
85.600667,-0.018544,-0.196176,0.998936,0.840000,-3.920000,0.980000
85.608755,0.032208,-0.237168,1.018456,0.280000,3.500000,-2.380000
85.616842,-0.134688,-0.210328,0.980880,0.420000,-1.120000,0.420000
85.624929,0.080032,-0.229360,0.987224,1.680000,1.820000,-1.400000
85.633016,-0.135664,-0.283040,0.962336,1.400000,-1.120000,-0.140000
85.641103,0.040016,-0.176656,1.009184,1.960000,0.420000,-0.700000
85.649190,-0.103944,-0.248880,0.957456,2.100000,3.080000,-1.820000
85.657278,0.034160,-0.215696,0.970632,-0.420000,-3.080000,1.540000
85.665365,-0.125416,-0.257176,0.957456,1.680000,5.740000,-3.640000
85.673452,0.021472,-0.217648,1.035536,1.540000,-5.740000,2.940000
85.681539,-0.024888,-0.233264,0.964288,1.960000,5.040000,-2.800000
85.689626,-0.110288,-0.198616,0.974536,0.840000,-0.560000,0.000000
85.697714,0.086376,-0.204960,0.976000,0.840000,-0.140000,-0.280000
85.705801,-0.202520,-0.250832,1.015528,-0.700000,1.540000,-1.680000
85.713888,0.116632,-0.238632,0.969168,0.560000,-1.120000,0.560000
85.721975,-0.117120,-0.283040,0.972584,2.800000,2.660000,-1.400000
85.730062,-0.042944,-0.173728,0.932080,1.960000,-1.960000,0.420000
85.738149,0.003904,-0.230336,1.021384,0.560000,3.920000,-2.940000
85.746237,-0.049288,-0.230824,0.986736,0.000000,-5.040000,2.380000
85.754324,-0.007320,-0.235216,0.995032,1.960000,6.160000,-3.500000
85.762411,-0.104432,-0.247416,0.964776,0.700000,-2.240000,1.260000
85.770498,0.049776,-0.202520,0.984784,1.680000,0.840000,-1.540000
85.778585,-0.145912,-0.205448,0.998448,1.120000,1.260000,-0.980000
85.786672,0.109800,-0.212280,1.000400,-1.260000,-1.680000,1.120000
85.794760,-0.210328,-0.301096,0.909632,0.840000,5.180000,-3.500000
85.802847,0.085400,-0.212280,1.009184,2.100000,-4.340000,1.820000
85.810934,-0.057584,-0.253272,0.974048,3.080000,4.340000,-1.960000
85.819021,-0.098576,-0.161528,0.988200,0.560000,-2.940000,0.700000
85.827108,0.088816,-0.205448,1.042368,0.420000,3.920000,-2.100000
85.835195,-0.162504,-0.299632,0.907680,-0.560000,-2.100000,1.260000
85.843283,0.041480,-0.231800,0.997472,3.080000,1.960000,-2.240000
85.851370,-0.078568,-0.222528,1.011624,3.220000,-0.280000,0.140000
85.859457,0.016592,-0.191296,0.983808,1.120000,-1.820000,0.140000
85.867544,-0.119072,-0.270840,0.943304,1.960000,5.320000,-3.220000
85.875631,0.050264,-0.187392,1.014552,1.400000,-4.060000,2.800000
85.883719,-0.135176,-0.258152,0.943304,2.240000,4.480000,-3.080000
85.891806,0.041480,-0.238144,1.017968,2.240000,-3.360000,0.980000
85.899893,-0.009760,-0.210816,0.993080,2.660000,3.640000,-1.820000
85.907980,-0.176656,-0.209352,0.924760,0.980000,-0.280000,-0.420000
85.916067,0.142984,-0.170312,1.085800,0.840000,-0.140000,-0.140000
85.924154,-0.155184,-0.306464,0.911096,-0.560000,0.840000,-0.420000
