Time [s],lsm6dsv16x_acc_x [g],lsm6dsv16x_acc_y [g],lsm6dsv16x_acc_z [g],lsm6dsv16x_gyro_x [dps],lsm6dsv16x_gyro_y [dps],lsm6dsv16x_gyro_z [dps]
7.478530,-0.036600,0.008296,1.001864,0.980000,0.980000,-0.700000
7.486617,-0.031720,0.017080,1.015040,1.400000,0.140000,-0.840000
7.494704,-0.038552,-0.006832,1.000888,0.420000,0.280000,-0.700000
7.502791,-0.022936,0.000976,1.022848,1.120000,0.980000,-0.980000
7.510879,-0.050264,0.012688,0.990640,0.840000,0.980000,-0.560000
7.518966,-0.020984,0.018056,1.026264,0.700000,0.280000,-0.980000
7.527053,-0.039040,-0.009272,1.000400,0.420000,0.560000,-0.700000
7.535140,-0.024400,0.025376,1.027240,1.540000,0.840000,-0.980000
7.543227,-0.033184,-0.001952,0.984784,0.560000,0.280000,-0.700000
7.551315,-0.028304,0.012688,1.023824,0.980000,0.420000,-1.120000
7.559402,-0.038552,0.007320,0.998936,0.980000,0.700000,-0.560000
7.567489,-0.022936,0.015616,1.031144,0.840000,0.000000,-0.980000
7.575576,-0.043432,-0.000976,0.990640,0.980000,1.120000,-0.700000
7.583663,-0.027816,0.009272,1.027728,0.980000,0.140000,-1.120000
7.591751,-0.039528,0.009272,0.989664,1.120000,1.260000,-0.560000
7.599838,-0.028304,0.005856,1.019432,0.280000,-0.420000,-0.980000
7.607925,-0.028792,0.003416,1.003816,0.700000,1.260000,-0.840000
7.616012,-0.032208,0.014640,1.025776,0.700000,0.000000,-0.420000
7.624100,-0.046848,-0.011224,0.992104,0.980000,1.260000,-1.260000
7.632187,-0.010736,0.038064,1.016992,0.840000,0.140000,-0.560000
7.640274,-0.051240,-0.031720,1.003328,1.260000,0.560000,-0.700000
7.648361,-0.010736,0.039040,1.013088,0.700000,0.840000,-1.120000
7.656448,-0.045384,-0.011712,1.005768,1.120000,-0.140000,-0.140000
7.664536,-0.040992,0.003416,1.019920,1.260000,1.680000,-1.540000
7.672623,-0.020008,0.022448,0.991616,1.120000,0.420000,-0.140000
7.680710,-0.050264,0.002440,1.006744,0.560000,0.420000,-1.260000
7.688797,-0.011224,0.006344,1.026264,0.560000,0.420000,-0.560000
7.696884,-0.045384,0.004880,1.003328,1.400000,0.840000,-0.700000
7.704972,-0.027328,0.010248,1.018456,0.700000,0.420000,-0.980000
7.713059,-0.031232,0.006344,0.993080,1.260000,0.700000,-0.560000
7.721146,-0.047824,0.012688,1.010648,0.560000,0.420000,-0.700000
7.729233,-0.014640,-0.004880,1.024800,0.560000,0.840000,-1.120000
7.737321,-0.041480,0.009760,1.005768,1.260000,0.420000,-0.560000
7.745408,-0.037576,0.014152,1.002840,0.840000,0.840000,-0.840000
7.753495,-0.021960,0.013664,1.017968,0.700000,0.000000,-0.840000
7.761582,-0.045384,0.007320,1.006256,0.840000,0.700000,-0.700000
7.769669,-0.020008,-0.000488,1.016016,0.840000,0.560000,-0.980000
7.777757,-0.033672,0.007808,0.990152,1.120000,0.840000,-0.280000
7.785844,-0.035624,0.010736,1.024800,0.840000,0.280000,-1.400000
7.793931,-0.020984,0.010248,1.014064,0.560000,0.280000,-0.420000
7.802018,-0.041480,0.000488,1.009184,0.980000,0.700000,-0.980000
7.810105,-0.039040,0.017080,0.993568,0.700000,0.980000,-0.840000
7.818193,-0.025864,-0.004880,1.028216,0.840000,0.280000,-0.700000
7.826280,-0.045384,0.018056,0.991616,0.980000,1.120000,-0.840000
7.834367,-0.023912,0.001952,1.016016,0.420000,0.420000,-0.980000
7.842454,-0.032208,0.000976,1.005280,1.120000,0.420000,-0.700000
7.850542,-0.026840,0.017080,1.019432,1.120000,0.280000,-0.700000
7.858629,-0.043432,0.010248,0.996984,1.120000,0.840000,-0.980000
7.866716,-0.036112,-0.004880,1.005768,0.420000,0.000000,-0.560000
7.874803,-0.026352,0.013664,1.030168,1.120000,0.840000,-0.840000
7.882890,-0.033184,0.003904,0.998936,0.700000,0.560000,-0.700000
7.890978,-0.037088,0.011224,1.008696,0.840000,0.840000,-0.980000
7.899065,-0.032696,0.004392,1.014064,0.560000,0.420000,-0.560000
7.907152,-0.026840,0.016104,1.001376,1.120000,0.560000,-0.840000
7.915239,-0.033672,-0.011224,1.010160,0.700000,0.000000,-0.560000
7.923326,-0.023424,0.019520,1.016504,1.400000,1.540000,-1.260000
7.931414,-0.050752,0.004880,1.005768,0.840000,0.000000,-0.280000
7.939501,-0.027816,0.014152,0.998936,0.840000,1.120000,-1.540000
7.947588,-0.028304,-0.003904,1.024800,0.700000,-0.420000,0.000000
7.955675,-0.039528,0.019520,0.997960,1.260000,1.820000,-1.820000
7.963763,-0.032208,-0.002928,0.998448,0.280000,-0.280000,0.000000
7.971850,-0.050752,0.018056,1.011624,0.420000,0.700000,-1.540000
7.979937,0.006344,0.000488,1.019920,0.420000,-0.140000,-0.140000
7.988024,-0.068320,0.000000,1.004304,1.120000,0.700000,-0.980000
7.996111,0.000488,0.014640,1.037488,0.700000,0.700000,-1.120000
8.004199,-0.046848,0.001952,0.981856,1.540000,0.980000,-0.280000
8.012286,-0.043920,0.022936,1.022848,0.560000,0.140000,-1.260000
8.020373,-0.005856,-0.008296,1.000400,0.980000,0.420000,-0.560000
8.028460,-0.062952,0.017568,1.021384,0.840000,0.560000,-0.840000
8.036547,-0.029280,-0.008784,0.972584,0.420000,0.840000,-0.980000
8.044635,-0.002440,0.005856,1.035536,1.820000,0.280000,-0.700000
8.052722,-0.056120,0.019032,1.012112,0.560000,0.140000,-0.700000
8.060809,-0.034160,-0.002440,1.004304,1.400000,1.960000,-1.260000
8.068896,-0.018056,0.027816,1.007232,0.420000,-0.560000,-0.420000
8.076984,-0.057096,-0.018544,0.994056,0.280000,0.560000,-0.840000
8.085071,-0.000488,0.019032,1.035536,1.540000,0.700000,-0.980000
8.093158,-0.030744,0.017568,1.018456,0.700000,0.280000,-0.420000
8.101245,-0.071248,-0.004392,0.996496,0.840000,0.980000,-1.260000
8.109332,0.013176,0.021960,1.013088,0.980000,0.560000,-0.700000
8.117420,-0.070272,-0.005856,1.012112,0.980000,0.280000,-0.420000
8.125507,-0.031720,0.015128,1.008208,0.700000,1.540000,-1.680000
8.133594,-0.003904,0.004392,0.993568,1.120000,-0.280000,0.140000
8.141681,-0.067832,-0.009272,1.019920,1.120000,0.980000,-1.260000
8.149769,0.001464,0.030744,1.029680,0.700000,0.140000,-0.840000
8.157856,-0.052216,-0.006832,0.976976,1.260000,0.560000,-0.280000
8.165943,-0.027328,0.008296,1.046272,0.560000,0.840000,-1.120000
8.174030,-0.041480,-0.005368,0.966240,0.840000,0.700000,-0.700000
8.182117,-0.025376,0.027328,1.032120,1.400000,0.560000,-0.980000
8.190205,-0.044896,0.002928,1.019432,0.140000,0.000000,-0.560000
8.198292,-0.047824,0.007808,0.975512,0.140000,1.120000,-0.980000
8.206379,0.014152,0.005856,1.025288,0.980000,0.280000,-0.980000
8.214466,-0.060024,-0.009760,1.018944,1.120000,-0.280000,-0.140000
8.222553,-0.049288,0.014152,0.990640,0.420000,1.820000,-1.400000
8.230641,0.021472,0.031720,1.014064,1.960000,-0.140000,-0.840000
8.238728,-0.089304,0.000000,1.018456,0.000000,-0.280000,-0.280000
8.246815,-0.027816,-0.002440,1.002352,-1.540000,1.260000,-1.260000
8.254902,0.022448,0.000488,1.012112,1.820000,-0.420000,-0.700000
8.262990,-0.059048,0.006832,1.020896,2.520000,0.420000,-0.420000
8.271077,-0.068320,0.020496,0.995520,0.000000,1.540000,-0.980000
8.279164,-0.002440,0.001952,0.994056,0.700000,0.420000,-0.700000
8.287251,-0.019520,-0.008784,1.024800,0.560000,0.140000,-0.980000
8.295338,-0.021960,0.011224,1.030168,1.400000,0.420000,-0.840000
8.303426,-0.095648,0.011712,0.979904,0.980000,0.980000,0.000000
8.311513,-0.016104,0.001952,1.008696,0.140000,1.260000,-1.680000
8.319600,0.017080,0.030256,1.025288,1.120000,-0.700000,-0.840000
8.327687,-0.045872,-0.011712,1.008208,1.400000,0.140000,-0.420000
8.335774,-0.078568,0.000488,1.014064,-0.700000,1.680000,-0.980000
8.343862,-0.000488,0.010248,0.988200,-0.280000,0.420000,-0.840000
8.351949,-0.002928,0.018544,1.037000,2.100000,-0.140000,-0.700000
8.360036,-0.050264,-0.000488,1.007232,1.120000,0.280000,-0.980000
8.368123,-0.031720,0.013664,1.002840,1.540000,0.280000,-0.700000
8.376211,-0.071736,0.009272,0.996008,0.980000,0.560000,-0.280000
8.384298,-0.039040,-0.017568,1.012112,-0.280000,1.820000,-1.540000
8.392385,0.016104,0.021472,1.015528,1.120000,0.420000,-0.980000
8.400472,-0.032696,0.011224,1.002840,1.680000,0.140000,-0.280000
8.408559,-0.041968,0.007808,1.016504,0.560000,0.840000,-1.260000
8.416647,-0.012688,0.004880,1.013576,0.420000,-0.420000,-0.560000
8.424734,-0.073688,-0.010248,0.991616,0.560000,1.400000,-0.420000
8.432821,-0.022936,0.009272,1.033584,0.420000,1.400000,-1.260000
8.440908,0.002928,0.019520,1.005768,1.120000,-0.560000,-0.700000
8.448996,-0.041968,0.014640,0.993080,1.680000,0.000000,-0.560000
8.457083,-0.032208,0.000488,1.039440,1.400000,0.420000,-0.980000
8.465170,-0.060024,-0.000488,0.997960,0.840000,0.560000,-0.840000
8.473257,-0.049776,0.002440,0.982832,0.420000,1.260000,-0.420000
8.481344,-0.020008,0.005368,1.025288,0.280000,1.400000,-1.120000
8.489432,-0.011712,0.019520,1.011136,0.840000,0.280000,-0.840000
8.497519,-0.027816,0.020984,1.011136,1.120000,0.000000,-0.700000
8.505606,-0.035136,-0.009272,1.012600,0.560000,0.420000,-0.980000
8.513693,-0.022448,0.000000,1.012112,0.700000,0.280000,-0.840000
8.521780,-0.058072,-0.003904,0.990152,0.840000,0.420000,-0.560000
8.529868,-0.046360,0.007320,1.013576,0.000000,1.680000,-0.980000
8.537955,-0.021472,0.010248,1.009672,0.000000,0.840000,-0.980000
8.546042,-0.034160,0.006344,1.009672,0.420000,0.560000,-0.560000
8.554129,-0.037088,0.016592,1.012112,0.140000,0.420000,-0.980000
8.562217,-0.017568,0.010248,1.020896,0.700000,0.000000,-0.840000
8.570304,-0.028792,-0.006832,0.995032,1.400000,0.280000,-0.700000
8.578391,-0.020008,0.001464,1.015040,1.540000,0.420000,-0.840000
8.586478,-0.029768,0.025864,1.016016,1.540000,0.560000,-0.700000
8.594565,-0.041968,0.014152,1.003328,0.420000,0.560000,-0.980000
8.602653,-0.015128,-0.002440,1.012600,0.840000,0.280000,-0.840000
8.610740,-0.021960,0.010248,1.018944,1.120000,0.280000,-0.560000
8.618827,-0.038064,0.002440,1.002840,0.280000,0.700000,-1.120000
8.626914,-0.023912,0.011712,1.015040,0.980000,-0.140000,-0.560000
8.635002,-0.040504,-0.004880,1.009672,1.260000,1.260000,-0.980000
8.643089,-0.029768,0.017080,1.008208,0.980000,0.560000,-0.840000
8.651176,-0.040992,0.000000,1.000888,0.560000,0.280000,-0.560000
8.659263,-0.038064,0.003416,1.013576,0.840000,0.560000,-0.980000
8.667350,-0.016592,0.002928,0.996984,1.120000,0.700000,-0.700000
8.675438,-0.037088,0.005368,1.025288,1.120000,0.280000,-0.840000
8.683525,-0.033672,0.009272,0.987712,-0.280000,0.700000,-0.980000
8.691612,-0.014640,0.007808,1.020408,1.400000,0.000000,-0.420000
8.699699,-0.049288,0.006344,1.008696,0.840000,1.260000,-0.980000
8.707786,-0.021960,0.016592,1.032608,0.420000,0.000000,-0.980000
8.715874,-0.028304,0.000976,0.994056,1.120000,0.420000,-0.280000
8.723961,-0.040016,-0.013176,1.026264,0.980000,0.840000,-1.260000
8.732048,-0.032696,0.018544,0.986736,1.260000,0.560000,-0.840000
8.740135,-0.041968,0.002440,1.011624,1.120000,0.280000,-0.420000
8.748223,-0.043432,0.002440,0.999424,0.000000,0.700000,-1.120000
8.756310,-0.000488,-0.000488,1.018456,1.120000,0.420000,-0.980000
8.764397,-0.041480,0.022448,0.996496,1.680000,0.280000,-0.280000
8.772484,-0.040992,0.013664,1.037976,0.140000,1.120000,-1.260000
8.780571,-0.018056,0.003416,0.987224,0.700000,0.280000,-0.700000
8.788659,-0.042944,-0.005856,1.018456,1.260000,0.700000,-0.700000
8.796746,-0.037576,0.012688,1.020408,0.560000,0.840000,-0.980000
8.804833,-0.017080,-0.001952,0.992104,0.840000,0.000000,-0.700000
8.812920,-0.045384,-0.002928,1.004304,1.540000,0.560000,-0.700000
8.821008,-0.020496,0.013176,1.024800,0.560000,0.840000,-1.120000
8.829095,-0.029768,0.031232,1.017968,0.140000,0.000000,-0.700000
8.837182,-0.031720,0.000488,1.007720,0.000000,0.560000,-0.980000
8.845269,-0.032696,0.009760,1.034560,0.840000,0.560000,-0.840000
8.853356,-0.028304,0.002928,0.979904,0.840000,0.560000,-0.420000
8.861444,-0.064904,0.001464,1.010648,0.980000,0.420000,-0.840000
8.869531,-0.022936,0.013664,0.996496,-0.140000,1.120000,-0.980000
8.877618,-0.025864,0.000488,1.019920,0.980000,0.700000,-0.700000
8.885705,-0.060512,0.007808,1.002352,0.980000,0.840000,-0.840000
8.893792,-0.025376,-0.013664,1.013576,0.420000,0.560000,-0.840000
8.901880,-0.030256,0.000000,0.996008,0.700000,0.000000,-0.560000
8.909967,-0.014640,-0.002928,1.008208,1.820000,0.140000,-0.700000
8.918054,-0.018544,-0.006832,1.021872,1.120000,0.560000,-0.980000
8.926141,-0.044408,0.048312,1.007232,1.400000,0.700000,-0.700000
8.934229,-0.037088,0.007808,0.996984,0.700000,0.280000,-0.840000
8.942316,-0.039040,0.022448,1.038464,-1.960000,-0.420000,-0.700000
8.950403,-0.019520,0.005856,1.012600,-2.520000,0.280000,-0.840000
8.958490,-0.013176,-0.054168,0.970632,0.700000,1.260000,-0.980000
8.966577,-0.062464,0.001464,1.019432,2.380000,-0.280000,-0.700000
8.974665,0.007320,0.011712,1.005768,2.800000,0.840000,-0.420000
8.982752,-0.043432,0.030256,1.019920,1.820000,0.420000,-1.120000
8.990839,-0.048312,0.013176,1.023824,-0.420000,0.840000,-0.280000
8.998926,-0.040016,-0.027328,0.982344,1.120000,1.260000,-1.820000
9.007014,-0.009760,0.044896,1.054080,1.960000,0.140000,0.000000
9.015101,-0.052216,-0.015128,0.975512,0.420000,0.140000,-1.260000
9.023188,-0.020496,0.030256,1.055544,0.420000,0.420000,-0.420000
9.031275,-0.029280,0.002440,0.961848,1.400000,0.980000,-1.260000
9.039362,-0.055632,-0.016592,1.034072,0.840000,0.840000,-0.700000
9.047450,-0.029280,0.019520,0.978928,0.840000,0.560000,-0.980000
9.055537,-0.010736,0.025864,1.014552,0.280000,-0.140000,-0.140000
9.063624,-0.021472,-0.036112,1.048224,0.980000,0.420000,-1.400000
9.071711,-0.046360,0.003904,0.979904,1.260000,1.260000,-0.840000
9.079798,-0.028792,0.049776,1.002352,1.540000,0.420000,-0.560000
9.087886,-0.050752,-0.017080,1.011624,-0.140000,0.700000,-0.980000
9.095973,-0.030744,-0.022448,1.009184,0.840000,0.420000,-1.120000
9.104060,0.006344,0.018544,1.009184,1.960000,0.140000,-0.560000
9.112147,-0.039040,0.022936,1.030656,0.980000,0.840000,-0.560000
9.120235,-0.063440,-0.024888,0.995520,-0.280000,0.840000,-1.120000
9.128322,-0.026840,0.038552,1.013576,1.960000,1.120000,-1.120000
9.136409,-0.020984,0.014640,1.007232,0.980000,-0.140000,-0.560000
9.144496,-0.044408,-0.012200,1.003816,-1.120000,0.420000,-0.560000
9.152583,-0.005856,-0.017080,1.002352,0.840000,0.000000,-0.840000
9.160671,-0.020008,0.016104,1.033584,2.380000,1.260000,-0.980000
9.168758,-0.068808,0.015128,0.992592,0.700000,0.840000,-0.700000
9.176845,-0.039040,0.018544,0.999424,0.840000,0.980000,-1.260000
9.184932,-0.018056,-0.001952,0.999424,1.400000,-0.560000,-0.140000
9.193019,-0.001952,-0.016592,1.049688,0.280000,0.140000,-1.120000
9.201107,-0.050264,0.009760,0.984296,0.840000,1.260000,-0.560000
9.209194,-0.019032,0.006832,0.997960,2.100000,0.700000,-0.840000
9.217281,-0.043920,0.006832,1.041392,1.120000,2.100000,-0.980000
9.225368,-0.062952,0.008784,0.980880,1.400000,0.700000,-0.980000
9.233456,-0.013176,0.019520,1.005768,1.260000,0.560000,-0.560000
9.241543,-0.032696,-0.000488,1.053104,0.560000,-0.280000,-1.120000
9.249630,-0.003416,-0.007808,0.992592,0.420000,1.400000,-0.980000
9.257717,-0.044408,0.009272,0.984296,2.520000,0.000000,-0.700000
9.265804,-0.041480,0.015128,1.021872,0.700000,0.560000,-0.700000
9.273892,-0.028792,-0.001952,1.016016,-0.560000,0.700000,-0.980000
9.281979,-0.001952,0.011224,1.007232,2.240000,0.560000,-0.700000
9.290066,-0.059536,0.039040,1.028216,1.540000,1.400000,-0.700000
9.298153,-0.049288,0.007320,0.998936,-0.560000,0.700000,-1.120000
9.306240,-0.038552,-0.007808,0.993080,0.560000,-0.140000,-0.420000
9.314328,-0.008296,-0.027328,1.006744,1.400000,0.420000,-0.840000
9.322415,-0.023912,0.011224,1.038464,0.840000,1.260000,-0.980000
9.330502,-0.052704,0.030744,0.985760,0.840000,0.420000,-0.980000
9.338589,-0.025376,-0.017080,1.005280,0.840000,0.280000,-0.700000
9.346677,-0.027816,-0.011224,1.012600,0.420000,-0.420000,-0.700000
9.354764,-0.017080,0.033672,1.035536,0.840000,0.840000,-0.840000
9.362851,-0.035136,0.024400,1.010648,-0.140000,0.140000,-0.560000
9.370938,-0.056608,-0.012200,0.969168,-0.140000,1.540000,-1.400000
9.379025,-0.038064,-0.005856,1.012112,1.960000,-0.420000,-0.560000
9.387113,-0.014640,0.050752,1.028216,1.120000,0.700000,-0.700000
9.395200,-0.017080,-0.000488,1.043344,-2.240000,-0.560000,-0.560000
9.403287,-0.003904,-0.021960,1.010160,0.280000,0.560000,-0.980000
9.411374,-0.034160,-0.004880,0.998936,2.100000,0.280000,-0.840000
9.419462,-0.071736,-0.001952,1.015040,1.260000,1.820000,-0.980000
9.427549,-0.044896,0.028304,0.959896,0.560000,0.280000,-0.700000
9.435636,0.001464,0.000976,1.004792,0.980000,0.420000,-0.840000
9.443723,-0.045872,-0.004392,1.042856,0.980000,-1.120000,-0.560000
9.451810,-0.023912,0.008784,1.008696,-0.140000,2.380000,-0.840000
9.459898,-0.064416,0.008784,0.969656,0.840000,1.120000,-0.840000
9.467985,-0.022448,0.012200,1.043832,1.540000,-0.560000,-1.260000
9.476072,-0.008296,0.011712,0.996496,0.420000,0.000000,0.140000
9.484159,-0.033672,-0.001952,1.055056,0.000000,1.540000,-1.260000
9.492246,-0.061488,-0.005856,0.985760,0.560000,0.420000,-1.120000
9.500334,0.013176,0.018544,0.983808,1.680000,0.840000,-0.700000
9.508421,-0.065880,0.008296,1.020408,0.000000,0.000000,-0.700000
9.516508,-0.001464,-0.011224,1.023824,-0.280000,0.140000,-0.700000
9.524595,-0.034648,0.008784,1.007720,1.680000,1.400000,-0.700000
9.532683,-0.049776,-0.001464,1.002840,0.560000,0.280000,-1.260000
9.540770,-0.039528,0.006344,0.995032,0.280000,1.400000,-1.260000
9.548857,-0.007320,0.028304,1.012600,0.980000,-1.120000,0.980000
9.556944,-0.019032,-0.007808,1.037000,0.140000,1.120000,-2.100000
9.565031,-0.056608,-0.020496,1.008696,-0.140000,1.400000,0.140000
9.573119,-0.048800,0.035624,0.957456,1.120000,0.840000,-0.980000
9.581206,-0.030256,0.004880,1.053104,0.420000,0.140000,-1.400000
9.589293,0.010248,0.040504,1.033584,-1.680000,0.700000,0.420000
9.597380,-0.092232,0.035624,1.010648,-3.360000,0.840000,-2.800000
9.605467,0.022936,-0.010248,0.982344,-3.920000,0.560000,0.700000
9.613555,-0.054656,-0.014152,1.019432,-3.360000,1.400000,-1.400000
9.621642,-0.052704,0.013664,1.010160,-2.380000,-0.420000,-0.840000
9.629729,0.019520,0.021472,1.025776,-3.500000,1.400000,-0.560000
9.637816,-0.083448,-0.010248,1.017480,-4.480000,0.560000,-1.960000
9.645904,-0.001464,0.015616,0.972584,-4.060000,0.980000,-0.280000
9.653991,-0.027816,-0.045872,1.040416,-3.500000,0.840000,-0.700000
9.662078,-0.031720,0.005856,0.992104,-3.080000,-0.700000,-0.840000
9.670165,-0.022448,0.024400,1.029680,-2.800000,2.520000,-0.980000
9.678252,-0.073200,-0.014640,0.957456,-4.340000,-0.420000,-0.140000
9.686340,0.002928,0.009272,1.029192,-3.640000,0.980000,-1.680000
9.694427,-0.030744,-0.016592,1.054080,-3.360000,0.980000,0.420000
9.702514,-0.048312,0.008784,0.975512,-4.480000,0.560000,-1.680000
9.710601,-0.023912,-0.018056,1.024312,-3.920000,1.260000,-1.120000
9.718688,-0.036112,0.009272,1.000888,-3.920000,0.700000,0.000000
9.726776,-0.038552,-0.013664,0.973072,-4.060000,0.000000,-2.100000
9.734863,-0.000976,-0.010736,1.067256,-3.220000,0.420000,1.260000
9.742950,-0.061976,0.006344,0.974048,-4.060000,1.960000,-2.100000
9.751037,-0.042944,-0.041968,1.019920,-3.500000,-0.420000,-0.420000
9.759125,0.011712,0.041480,1.047736,-4.060000,1.680000,-0.700000
9.767212,-0.098088,0.073200,0.986248,-9.100000,-0.280000,-1.960000
9.775299,0.049776,0.008784,1.064816,-11.200000,1.540000,-0.140000
9.783386,-0.087840,-0.094672,0.977464,-10.220000,1.680000,-1.400000
9.791473,-0.019032,-0.023424,0.973560,-6.580000,0.000000,-0.980000
9.799561,-0.015616,-0.010736,1.039928,-6.860000,1.400000,-0.560000
9.807648,-0.052704,-0.002440,1.002840,-8.120000,-0.980000,-1.120000
9.815735,0.000000,-0.014152,1.025776,-7.980000,2.800000,-1.400000
9.823822,-0.049288,-0.030744,0.983808,-8.680000,0.420000,0.280000
9.831909,-0.057584,0.000976,1.000888,-7.560000,0.980000,-2.520000
9.839997,0.000488,-0.024888,1.030656,-8.260000,0.560000,0.560000
9.848084,-0.031232,-0.006344,1.026752,-9.800000,0.560000,-1.400000
9.856171,-0.076616,-0.034648,0.985760,-8.960000,1.680000,-1.960000
9.864258,0.016104,-0.020496,1.020408,-9.100000,0.420000,0.560000
9.872346,-0.070760,-0.039528,0.980392,-9.380000,1.120000,-2.380000
9.880433,0.008784,-0.012200,1.032608,-8.120000,0.420000,0.700000
9.888520,-0.034648,-0.045384,1.030168,-9.520000,0.980000,-1.260000
9.896607,-0.070760,-0.046848,0.986248,-8.120000,1.400000,-1.400000
9.904694,0.013664,-0.010248,1.017480,-8.540000,1.260000,-0.420000
9.912782,-0.074176,-0.037088,0.976488,-9.660000,-0.280000,-1.540000
9.920869,0.010248,0.003904,1.053104,-9.240000,0.980000,-0.560000
9.928956,-0.055632,-0.072224,0.982832,-10.360000,1.820000,-0.560000
9.937043,-0.054168,-0.067344,1.007232,-8.260000,0.140000,-1.540000
9.945130,0.001464,-0.018544,1.017480,-7.840000,1.540000,-0.560000
9.953218,-0.061488,-0.036112,0.974536,-9.520000,-0.420000,-0.840000
9.961305,0.005856,-0.049288,1.042856,-8.540000,0.840000,-0.840000
9.969392,-0.041968,-0.033184,1.008696,-9.380000,2.380000,-0.420000
9.977479,-0.054656,-0.056120,0.989176,-9.660000,0.140000,-1.680000
9.985567,-0.029280,-0.041968,1.022848,-7.980000,2.100000,-0.980000
9.993654,-0.031232,-0.057096,0.998448,-9.380000,-0.840000,-0.280000
10.001741,-0.016104,-0.041480,1.012600,-8.540000,1.540000,-2.240000
10.009828,-0.043432,-0.054168,1.006744,-8.960000,1.120000,-0.140000
10.017915,-0.036112,-0.067344,1.022360,-8.680000,0.560000,-1.400000
10.026003,-0.033672,-0.037576,0.986248,-7.280000,1.820000,-1.680000
10.034090,-0.025864,-0.060024,1.016016,-9.240000,-0.700000,0.280000
10.042177,-0.045384,-0.049776,1.007720,-9.100000,1.400000,-2.380000
10.050264,-0.001952,-0.056120,1.026752,-8.260000,1.260000,-0.420000
10.058351,-0.070760,-0.089792,0.995520,-9.100000,0.840000,-1.400000
10.066439,-0.046848,-0.048800,0.968192,-7.560000,1.120000,-1.540000
10.074526,0.006344,-0.051728,1.045784,-6.860000,-0.140000,-0.280000
10.082613,-0.058560,-0.086864,1.018944,-8.820000,0.840000,-1.540000
10.090700,-0.004880,-0.048312,0.980392,-7.000000,2.380000,-1.400000
10.098788,-0.050752,-0.071248,1.008208,-7.420000,0.420000,-0.700000
10.106875,-0.055632,-0.080520,0.994544,-7.420000,0.560000,-1.120000
10.114962,-0.020008,-0.039528,1.001376,-5.880000,1.260000,-1.540000
10.123049,0.002440,-0.098576,1.057496,-6.440000,-0.840000,0.000000
10.131136,-0.049288,-0.068320,0.973560,-6.440000,2.800000,-2.380000
10.139224,-0.049776,-0.075152,0.983320,-5.880000,0.000000,-0.560000
10.147311,-0.014640,-0.069784,1.024312,-5.880000,0.280000,-0.700000
10.155398,-0.080032,-0.021472,0.987224,-6.580000,1.120000,-1.820000
10.163485,0.026352,-0.114680,1.069208,-6.860000,-0.420000,0.000000
10.171572,-0.056608,-0.097112,0.974536,-6.020000,2.660000,-2.100000
10.179660,-0.047824,-0.071736,0.983320,-4.200000,0.140000,-0.980000
10.187747,-0.008784,-0.108824,1.005280,-4.900000,0.980000,-0.840000
10.195834,-0.074176,-0.035136,0.971120,-4.900000,0.980000,-1.260000
10.203921,0.012200,-0.075152,1.073112,-4.620000,-0.140000,-0.840000
10.212009,-0.041480,-0.106384,1.009672,-5.600000,1.400000,-0.840000
10.220096,-0.063928,-0.065880,0.972584,-4.340000,0.840000,-1.820000
10.228183,-0.013176,-0.096624,1.003816,-3.360000,0.980000,-0.420000
10.236270,-0.011712,-0.059536,0.993080,-4.900000,-0.420000,-0.560000
10.244357,-0.058072,-0.082960,1.030656,-4.620000,0.420000,-2.240000
10.252445,0.000488,-0.102480,0.999912,-4.340000,1.120000,0.840000
10.260532,-0.094672,-0.069296,1.004304,-3.920000,2.100000,-2.800000
10.268619,-0.027328,-0.077104,0.990640,-3.640000,-0.700000,-0.560000
10.276706,0.044896,-0.079056,1.024312,-5.040000,0.700000,-0.140000
10.284793,-0.112240,-0.075152,1.005768,-4.900000,0.420000,-2.240000
10.292881,0.022936,-0.092720,1.013576,-4.900000,1.680000,0.000000
10.300968,-0.092720,-0.124440,0.983808,-4.200000,0.980000,-1.680000
10.309055,-0.024400,-0.085888,0.994056,-1.400000,-0.280000,-1.120000
10.317142,0.007808,-0.088816,1.042368,-1.540000,1.960000,-0.700000
10.325230,-0.086864,-0.072712,0.978440,-3.500000,-1.120000,-0.700000
10.333317,0.002928,-0.092720,1.000400,-2.380000,2.240000,-1.960000
10.341404,-0.051240,-0.099552,1.032608,-2.520000,0.000000,0.840000
10.349491,-0.037088,-0.089792,0.987224,-2.660000,0.700000,-2.800000
10.357578,0.003904,-0.077104,0.997960,-2.100000,1.120000,-0.280000
10.365666,-0.027328,-0.089792,1.045784,-3.360000,-0.420000,-0.140000
10.373753,-0.088816,-0.088328,0.962336,-3.500000,2.380000,-2.940000
10.381840,0.018056,-0.090280,0.984296,-2.520000,0.420000,0.980000
10.389927,-0.097600,-0.114192,1.025288,-2.520000,0.000000,-2.660000
10.398015,0.007808,-0.081496,1.011624,-1.540000,0.420000,-0.280000
10.406102,-0.012688,-0.105408,1.026264,-2.100000,0.980000,0.000000
10.414189,-0.070760,-0.092720,0.973072,-2.380000,-0.140000,-2.240000
10.422276,0.002440,-0.058560,0.987712,-1.540000,2.940000,0.000000
10.430363,-0.086376,-0.128832,1.043344,-3.920000,-1.820000,-0.980000
10.438451,-0.002928,-0.062952,0.967704,-1.540000,1.260000,-1.260000
10.446538,-0.007320,-0.136640,1.069696,-2.380000,0.700000,0.420000
10.454625,-0.093696,-0.091744,0.940376,-3.500000,1.120000,-2.240000
10.462712,0.005856,-0.077104,0.979904,-0.420000,1.680000,-0.700000
10.470799,-0.052704,-0.111752,1.072624,-2.380000,-0.980000,0.280000
10.478887,-0.034648,-0.073688,0.956968,-2.380000,1.400000,-3.080000
10.486974,-0.005368,-0.100040,1.051640,-0.700000,0.840000,0.980000
10.495061,-0.053192,-0.123464,0.989664,-3.500000,-0.140000,-1.540000
10.503148,-0.042944,-0.076616,0.939888,0.000000,1.820000,-1.400000
10.511236,0.005368,-0.113216,1.085312,-1.260000,-0.840000,0.700000
10.519323,-0.093208,-0.077592,0.979904,-2.660000,1.820000,-3.220000
10.527410,0.021472,-0.091256,0.997960,-1.400000,0.000000,0.700000
10.535497,-0.047336,-0.128344,1.041392,-3.080000,0.560000,-0.980000
10.543584,-0.066368,-0.089792,0.915488,-1.400000,1.120000,-2.100000
10.551672,0.016592,-0.112240,1.076040,-0.980000,0.000000,0.560000
10.559759,-0.094672,-0.090768,0.974536,-2.520000,0.840000,-2.380000
10.567846,-0.012688,-0.071248,1.014064,-1.260000,1.120000,-0.280000
10.575933,0.013176,-0.156160,1.035536,-1.960000,0.280000,-0.420000
10.584020,-0.095160,-0.097112,0.937936,-1.680000,1.540000,-2.660000
10.592108,0.015616,-0.077592,1.046760,0.700000,-0.420000,0.980000
10.600195,-0.066856,-0.098576,1.006744,-2.660000,0.700000,-1.960000
10.608282,-0.040016,-0.073688,1.015528,-0.840000,0.420000,-0.700000
10.616369,0.010736,-0.151280,1.011136,-1.400000,0.700000,0.000000
10.624457,-0.084424,-0.103944,0.948672,-1.960000,1.680000,-2.380000
10.632544,-0.012200,-0.075152,1.013088,0.000000,-0.560000,-0.140000
10.640631,-0.027328,-0.128832,1.023824,-2.660000,0.560000,-0.140000
10.648718,-0.071248,-0.056120,1.018456,-1.120000,0.420000,-1.960000
10.656805,0.011712,-0.150792,0.994544,-1.680000,1.680000,0.000000
10.664893,-0.060024,-0.099064,0.994056,-2.800000,0.000000,-1.120000
10.672980,-0.048312,-0.086376,0.964288,-0.280000,0.700000,-1.400000
10.681067,0.036112,-0.136152,1.071160,-1.120000,0.140000,0.560000
10.689154,-0.117608,-0.078568,0.974048,-2.240000,1.400000,-2.660000
10.697241,0.019520,-0.125416,0.989664,0.280000,0.280000,0.140000
10.705329,-0.048800,-0.100528,1.037976,-1.680000,1.540000,-0.980000
10.713416,-0.077592,-0.105408,0.944280,-0.980000,-0.140000,-1.820000
10.721503,0.048312,-0.080032,1.086776,-0.280000,1.120000,0.280000
10.729590,-0.091256,-0.109800,0.996984,-2.520000,0.140000,-1.540000
10.737678,0.005368,-0.122976,0.962824,-1.540000,0.420000,-1.400000
10.745765,-0.023424,-0.117120,1.037488,-0.980000,1.820000,0.140000
10.753852,-0.086864,-0.095160,0.961848,-1.680000,-0.700000,-1.960000
10.761939,0.000976,-0.091744,1.019432,-0.980000,1.820000,-0.420000
10.770026,-0.047824,-0.113216,1.028704,-3.360000,-1.540000,0.000000
10.778114,-0.010736,-0.135176,0.971120,-2.240000,2.520000,-2.520000
10.786201,-0.047824,-0.106384,1.026264,-0.560000,1.820000,0.700000
10.794288,-0.083448,-0.103456,0.977952,-1.540000,-0.420000,-2.100000
10.802375,-0.001952,-0.087840,0.995520,-1.400000,1.260000,-0.840000
10.810462,-0.010736,-0.118584,1.050664,-2.660000,-0.980000,0.420000
10.818550,-0.057096,-0.121512,0.960384,-3.500000,1.260000,-2.520000
10.826637,-0.019520,-0.074664,1.055056,-0.840000,2.100000,0.420000
10.834724,-0.051240,-0.162016,0.957944,-3.640000,-0.420000,-1.680000
10.842811,-0.021960,-0.092232,0.999424,-0.700000,0.560000,-1.400000
10.850899,-0.007808,-0.132736,0.991616,-1.400000,0.140000,0.700000
10.858986,-0.074664,-0.090768,1.052616,-2.940000,0.560000,-2.100000
10.867073,-0.030256,-0.088816,0.960872,-0.980000,2.240000,0.000000
10.875160,-0.011712,-0.163480,1.037488,-2.940000,-0.980000,-1.120000
10.883247,-0.053680,-0.075152,0.967704,-1.120000,1.120000,-1.960000
10.891335,-0.005368,-0.146888,1.016504,-1.820000,0.420000,-0.280000
10.899422,-0.065880,-0.081008,1.034072,-2.660000,0.140000,-1.260000
10.907509,-0.012200,-0.135176,0.961848,-1.540000,1.400000,-0.840000
10.915596,-0.025376,-0.139568,1.023336,-2.100000,1.120000,-0.840000
10.923683,-0.110776,-0.083448,0.934032,-2.240000,1.120000,-2.240000
10.931771,0.037088,-0.105408,1.064328,-1.260000,-0.560000,0.280000
10.939858,-0.031232,-0.148352,1.009672,-3.080000,1.400000,-1.120000
10.947945,-0.061000,-0.094672,0.979904,-0.840000,-0.280000,-1.120000
10.956032,0.001952,-0.124440,1.043832,-1.820000,2.100000,-0.700000
10.964120,-0.096136,-0.109312,0.964776,-1.680000,0.420000,-1.540000
10.972207,-0.001952,-0.135664,0.975024,-0.140000,0.280000,-1.400000
10.980294,-0.006344,-0.126880,1.059936,-1.540000,0.280000,0.140000
10.988381,-0.059048,-0.119072,0.942816,-1.960000,0.140000,-1.820000
10.996468,-0.009760,-0.106384,1.081408,0.420000,1.400000,-0.280000
11.004556,-0.071736,-0.125416,0.974536,-2.240000,0.700000,-0.420000
11.012643,-0.035624,-0.119560,0.939888,-1.400000,0.980000,-2.520000
11.020730,-0.028304,-0.110288,1.032120,0.140000,0.840000,0.700000
11.028817,-0.046360,-0.146888,1.015528,-1.960000,-0.980000,-1.960000
11.036904,-0.001464,-0.089792,1.012112,-0.700000,1.540000,-0.420000
11.044992,-0.025376,-0.131272,1.004304,-1.680000,0.700000,-0.560000
11.053079,-0.099552,-0.134688,1.003816,-1.960000,0.980000,-2.660000
11.061166,0.028792,-0.100040,0.967216,0.140000,0.280000,0.560000
11.069253,-0.062952,-0.152256,1.026752,-1.820000,0.700000,-1.680000
11.077341,-0.039528,-0.087840,0.961848,-1.260000,0.420000,-0.980000
11.085428,0.018544,-0.147864,1.080920,-1.120000,0.280000,-0.140000
11.093515,-0.085888,-0.125904,0.932568,-1.540000,1.260000,-1.820000
11.101602,-0.028304,-0.102480,1.008696,-0.140000,1.120000,-0.700000
11.109689,-0.037088,-0.135176,1.013088,-1.960000,-0.420000,-0.560000
11.117777,-0.034648,-0.091256,1.004792,-0.980000,0.560000,-1.260000
11.125864,-0.000976,-0.158112,0.998448,-1.120000,1.120000,-0.840000
11.133951,-0.059536,-0.126880,1.035536,-2.520000,0.000000,-0.140000
11.142038,-0.035136,-0.107848,0.945744,-0.560000,1.540000,-2.100000
11.150125,-0.031232,-0.143960,1.057984,-0.560000,1.260000,0.140000
11.158213,-0.082960,-0.110776,0.929640,-1.400000,0.140000,-1.540000
11.166300,0.009760,-0.134200,1.023824,-0.560000,0.000000,-0.980000
11.174387,-0.016592,-0.111264,1.048712,-1.260000,0.980000,0.420000
11.182474,-0.067344,-0.132248,0.967216,-2.100000,0.000000,-2.520000
11.190562,0.017080,-0.122000,1.002840,0.000000,1.400000,0.560000
11.198649,-0.078568,-0.141032,0.986248,-2.240000,0.420000,-1.540000
11.206736,-0.067832,-0.096624,1.004304,-1.120000,0.420000,-1.120000
11.214823,0.043432,-0.129320,1.036512,-0.840000,-0.140000,0.140000
11.222910,-0.065880,-0.162992,0.969168,-2.520000,0.840000,-1.960000
11.230998,-0.029280,-0.091256,1.005280,-0.420000,1.820000,-0.420000
11.239085,-0.026840,-0.154696,1.024800,-2.100000,0.280000,-0.420000
11.247172,-0.081984,-0.119072,0.955016,-1.820000,0.980000,-1.820000
11.255259,0.001952,-0.107360,1.018944,-0.140000,0.140000,-0.420000
11.263346,-0.030256,-0.134688,1.046760,-3.360000,-0.140000,-0.420000
11.271434,-0.038552,-0.128344,0.956480,-1.260000,1.260000,-1.540000
11.279521,0.009760,-0.169336,1.035048,-1.680000,1.120000,0.140000
11.287608,-0.107848,-0.105408,0.971608,-1.400000,1.120000,-1.400000
11.295695,-0.009760,-0.146888,0.979416,0.280000,0.280000,-1.820000
11.303783,-0.010736,-0.101992,1.036024,-1.120000,0.560000,0.560000
11.311870,-0.074664,-0.140544,0.964776,-1.960000,-0.700000,-2.380000
11.319957,0.017080,-0.121512,1.057984,-0.840000,1.540000,0.700000
11.328044,-0.054168,-0.150792,0.986248,-2.940000,0.980000,-0.980000
11.336131,-0.070272,-0.117608,0.964776,-1.120000,0.560000,-2.240000
11.344219,0.002440,-0.132736,1.041880,-0.840000,1.260000,1.120000
11.352306,-0.076616,-0.168848,0.934032,-1.820000,-0.280000,-1.960000
11.360393,-0.003416,-0.099064,1.035048,0.840000,0.560000,-0.280000
11.368480,-0.011712,-0.158600,1.007720,-2.100000,0.000000,0.000000
11.376567,-0.061976,-0.111752,1.042856,-1.680000,0.420000,-2.240000
11.384655,-0.000976,-0.138104,0.939888,-0.420000,2.520000,0.000000
11.392742,-0.067344,-0.151280,1.049688,-1.260000,-0.280000,-0.840000
11.400829,-0.062952,-0.099064,0.900848,0.420000,0.840000,-1.540000
11.408916,0.009272,-0.166896,1.083360,-1.120000,-0.280000,0.560000
11.417004,-0.053680,-0.122000,0.972584,-2.380000,1.120000,-2.240000
11.425091,-0.003904,-0.130296,1.020408,0.140000,0.000000,-0.140000
11.433178,-0.013176,-0.163480,1.020408,-1.820000,1.680000,-0.560000
11.441265,-0.122000,-0.102968,0.947208,-0.700000,0.420000,-1.820000
11.449352,0.041480,-0.152744,1.042856,0.700000,0.280000,-0.140000
11.457440,-0.112240,-0.110288,0.949648,-1.820000,2.240000,-0.560000
11.465527,-0.007320,-0.135176,1.020896,-0.700000,-1.960000,-1.960000
11.473614,0.038552,-0.175680,1.023824,-1.540000,1.540000,0.700000
11.481701,-0.087840,-0.131272,1.005280,-0.980000,0.140000,-1.680000
11.489788,-0.021472,-0.124440,0.980392,-0.280000,2.380000,-1.400000
11.497876,-0.066368,-0.136152,0.987712,-0.700000,0.280000,0.700000
11.505963,-0.041968,-0.139568,0.954040,-1.120000,-0.560000,-2.660000
11.514050,-0.003904,-0.112728,1.084336,0.000000,1.540000,0.000000
11.522137,-0.023424,-0.182024,0.952576,-3.220000,-0.140000,-0.560000
11.530225,-0.038552,-0.091256,1.037000,0.000000,0.140000,-1.820000
11.538312,0.002928,-0.196176,1.010648,-0.980000,1.960000,0.560000
11.546399,-0.110776,-0.118096,0.973072,-1.820000,1.120000,-1.960000
11.554486,-0.032696,-0.119560,0.950136,1.120000,0.000000,-0.840000
11.562573,0.006832,-0.174704,1.049688,-1.260000,0.280000,0.280000
11.570661,-0.083936,-0.114192,0.983808,-1.680000,0.280000,-2.380000
11.578748,0.044896,-0.148840,1.001376,0.560000,0.560000,0.280000
11.586835,-0.070760,-0.134688,1.035048,-2.660000,1.680000,-0.700000
11.594922,-0.064416,-0.144448,0.946720,-0.560000,0.420000,-2.520000
11.603009,0.010736,-0.136640,1.043832,0.420000,1.540000,0.420000
11.611097,-0.098576,-0.142984,0.946720,-1.540000,-0.140000,-2.100000
11.619184,0.001952,-0.121512,1.016504,-0.280000,0.280000,-0.700000
11.627271,-0.016104,-0.169336,1.017480,-0.840000,1.260000,0.280000
11.635358,-0.058072,-0.122976,1.007232,-1.260000,-1.400000,-1.960000
11.643446,0.006344,-0.134200,1.007232,0.000000,3.080000,-0.280000
11.651533,-0.088816,-0.173728,0.978928,-2.380000,0.280000,-0.420000
11.659620,-0.035624,-0.114192,0.953552,0.560000,0.280000,-2.100000
11.667707,-0.000976,-0.161528,1.049688,0.000000,-0.420000,0.980000
11.675794,-0.057096,-0.155184,0.998448,-1.400000,0.980000,-1.820000
11.683882,-0.009272,-0.111264,0.986248,1.260000,0.140000,-0.420000
11.691969,0.005368,-0.181536,1.039440,-1.120000,0.980000,-0.280000
11.700056,-0.150304,-0.105408,0.936472,-0.700000,2.380000,-2.240000
11.708143,0.031720,-0.170312,0.998448,1.260000,-0.980000,-0.140000
11.716230,-0.034648,-0.132248,1.035048,-0.840000,1.260000,-0.840000
11.724318,-0.058560,-0.128832,0.967704,-1.260000,-0.980000,-1.400000
11.732405,0.039528,-0.137128,1.065304,0.000000,1.960000,0.280000
11.740492,-0.104920,-0.177144,0.938912,-1.680000,0.980000,-1.540000
11.748579,-0.018056,-0.132248,1.001376,0.560000,-0.280000,-1.120000
11.756667,-0.042456,-0.128344,1.016504,0.280000,1.960000,-0.420000
11.764754,-0.057096,-0.163480,0.968680,-1.400000,-1.120000,-1.120000
11.772841,0.020984,-0.105408,1.042856,0.140000,1.540000,-1.120000
11.780928,-0.038552,-0.183488,1.001376,-2.240000,-0.140000,0.140000
11.789015,-0.067832,-0.137128,0.992592,-0.840000,1.960000,-2.800000
11.797103,-0.008784,-0.136152,0.983320,0.420000,0.280000,0.420000
11.805190,-0.047336,-0.169824,1.018456,-1.820000,0.420000,-1.400000
11.813277,-0.069784,-0.106872,0.936960,0.000000,1.540000,-1.680000
11.821364,0.051728,-0.176168,1.076528,-0.560000,-1.400000,0.700000
11.829451,-0.089792,-0.162504,0.965264,-1.260000,2.380000,-2.660000
11.837539,-0.040504,-0.124928,0.968192,0.840000,0.140000,0.140000
11.845626,0.007320,-0.149816,1.067744,-0.140000,0.700000,-1.120000
11.853713,-0.100528,-0.138104,0.920856,-0.420000,0.140000,-0.980000
11.861800,0.028304,-0.143960,1.049688,0.000000,1.120000,-0.560000
11.869888,-0.070760,-0.152256,1.012112,-1.120000,0.700000,-0.980000
11.877975,-0.013664,-0.179096,0.937448,-0.420000,0.280000,-2.240000
11.886062,-0.033672,-0.098576,1.039440,0.980000,2.100000,0.560000
11.894149,-0.070760,-0.201056,0.978440,-0.700000,-1.400000,-1.400000
11.902236,-0.015128,-0.119072,0.986736,1.540000,1.820000,-1.260000
11.910324,-0.034160,-0.147864,1.016016,0.000000,-0.420000,0.280000
11.918411,-0.046360,-0.147376,1.017968,-0.980000,0.700000,-2.800000
11.926498,0.007808,-0.134688,0.991616,0.560000,1.120000,0.980000
11.934585,-0.076128,-0.184464,0.988688,-0.420000,0.560000,-1.820000
11.942672,-0.054168,-0.123952,0.955504,0.560000,0.420000,-1.260000
11.950760,0.039040,-0.159576,1.058960,1.400000,0.000000,0.140000
11.958847,-0.089304,-0.141520,0.980880,-0.700000,0.980000,-1.820000
11.966934,-0.011224,-0.128832,0.994544,0.560000,0.700000,-1.120000
11.975021,-0.013664,-0.171776,1.024312,-0.140000,1.120000,-0.280000
11.983109,-0.104432,-0.125416,0.968192,-0.280000,0.700000,-1.400000
11.991196,0.010736,-0.181048,0.979416,1.260000,0.980000,-1.260000
11.999283,-0.049776,-0.120048,1.026264,-0.140000,-0.560000,0.420000
12.007370,-0.031720,-0.156160,0.974048,0.000000,0.280000,-2.660000
12.015457,-0.003904,-0.145424,1.075064,0.280000,0.420000,1.120000
12.023545,-0.049288,-0.173240,0.931104,-0.420000,1.540000,-1.820000
12.031632,-0.070272,-0.131760,0.974048,1.120000,0.700000,-1.400000
12.039719,0.004880,-0.150304,1.030168,0.420000,0.560000,0.840000
12.047806,-0.106384,-0.153232,0.976976,-0.280000,0.000000,-2.800000
12.055893,0.055144,-0.124440,1.019920,1.960000,0.280000,0.560000
12.063981,-0.066368,-0.191784,1.032608,-1.260000,1.260000,-1.400000
12.072068,-0.040992,-0.124440,0.960384,-0.420000,0.840000,-1.260000
12.080155,-0.018056,-0.128344,1.003328,1.260000,1.400000,-0.420000
12.088242,-0.066368,-0.188856,0.978440,-1.540000,-0.980000,-1.260000
12.096329,-0.017080,-0.115168,1.014552,0.700000,1.260000,-1.400000
12.104417,0.005856,-0.169824,1.014552,-0.700000,-0.420000,0.280000
12.112504,-0.057584,-0.152256,1.018944,-1.260000,1.120000,-1.820000
12.120591,-0.059048,-0.147376,0.950624,0.560000,2.100000,-1.260000
12.128678,-0.013664,-0.152744,1.021872,-0.420000,-0.280000,0.420000
12.136766,-0.081496,-0.137128,0.953552,0.140000,0.280000,-2.520000
12.144853,0.030256,-0.176656,1.047248,0.420000,0.140000,0.420000
12.152940,-0.061000,-0.148352,0.991128,-0.980000,1.400000,-1.400000
12.161027,-0.027328,-0.142984,0.989176,1.120000,-0.840000,-1.260000
12.169114,-0.004392,-0.151280,1.038952,0.280000,2.660000,-0.140000
12.177202,-0.139080,-0.169336,0.897432,-1.400000,0.000000,-1.820000
12.185289,0.036112,-0.099552,1.055056,1.960000,0.000000,-0.140000
12.193376,-0.031720,-0.203008,0.997960,-0.980000,0.980000,0.000000
12.201463,-0.068320,-0.116144,0.994056,-0.560000,-0.140000,-1.540000
12.209550,0.021472,-0.147864,1.001864,1.260000,1.820000,-0.700000
12.217638,-0.080520,-0.176168,1.006744,-1.400000,-0.140000,-1.120000
12.225725,-0.032696,-0.142496,0.978440,0.000000,1.680000,-2.100000
12.233812,-0.005856,-0.151280,1.010648,0.280000,-0.980000,0.560000
12.241899,-0.049776,-0.164944,1.008696,-1.820000,0.980000,-1.400000
12.249986,-0.049288,-0.132736,0.971120,0.000000,1.820000,-1.540000
12.258074,0.000976,-0.178120,1.019432,-0.840000,-0.980000,0.700000
12.266161,-0.087840,-0.138592,0.969168,-0.560000,1.960000,-3.080000
12.274248,-0.009760,-0.171776,1.003816,0.980000,0.000000,0.840000
12.282335,-0.027816,-0.139080,1.014064,-0.420000,0.280000,-1.540000
12.290423,-0.057584,-0.120048,0.992104,-0.840000,0.280000,-1.540000
12.298510,0.043920,-0.199104,1.015528,-0.980000,0.700000,-0.140000
12.306597,-0.133224,-0.126880,0.982344,-1.540000,1.960000,-1.680000
12.314684,0.019520,-0.184952,0.965752,0.420000,-0.560000,-0.560000
12.322771,-0.045384,-0.137128,1.046272,-0.280000,2.520000,-0.980000
12.330859,-0.065880,-0.150792,0.937936,-1.260000,-2.100000,-0.980000
12.338946,0.041968,-0.129808,1.101416,-0.140000,2.520000,-1.120000
12.347033,-0.085400,-0.199104,0.926712,-1.960000,0.000000,0.280000
12.355120,-0.040016,-0.141032,0.966728,0.000000,1.400000,-3.080000
12.363207,-0.021960,-0.141032,1.045296,0.140000,0.420000,0.840000
12.371295,-0.030256,-0.189832,0.987712,-2.660000,-0.560000,-1.540000
12.379382,-0.047824,-0.099064,0.967216,0.560000,2.380000,-1.540000
12.387469,-0.005368,-0.199104,1.066280,-1.680000,-1.400000,0.980000
12.395556,-0.075152,-0.145424,0.956480,-1.120000,2.520000,-2.940000
12.403644,-0.020984,-0.134200,0.958920,0.000000,0.280000,0.560000
12.411731,-0.036112,-0.192760,1.063840,-2.380000,-0.980000,-0.980000
12.419818,-0.037088,-0.122488,0.942816,-0.560000,1.820000,-2.240000
12.427905,0.013664,-0.188368,1.030656,-0.980000,0.140000,0.980000
12.435992,-0.081496,-0.152256,1.030656,-2.520000,1.680000,-2.660000
12.444080,-0.031720,-0.142496,0.919880,-0.280000,0.560000,-0.560000
12.452167,-0.015128,-0.183976,1.047736,-1.120000,0.840000,-0.280000
12.460254,-0.122976,-0.120048,0.960872,-1.960000,0.560000,-2.100000
12.468341,0.095648,-0.190320,1.018944,0.420000,-0.420000,0.000000
12.476428,-0.099064,-0.155184,1.031144,-1.820000,1.820000,-0.420000
12.484516,-0.035624,-0.172264,0.927688,-0.840000,-0.980000,-2.380000
12.492603,-0.003416,-0.141032,1.077992,0.560000,2.380000,0.420000
12.500690,-0.098576,-0.186416,0.906704,-1.820000,0.280000,-1.820000
12.508777,-0.001464,-0.136152,1.013576,0.560000,0.280000,-1.400000
12.516864,0.006832,-0.163968,1.049688,-1.120000,0.140000,1.120000
12.524952,-0.088816,-0.186904,0.971608,-2.100000,0.840000,-2.800000
12.533039,0.025864,-0.133224,0.974536,1.540000,1.400000,0.000000
12.541126,-0.086376,-0.196664,1.017480,-0.700000,-0.280000,-0.700000
12.549213,-0.057096,-0.122000,0.972096,0.420000,1.260000,-2.100000
12.557301,0.010736,-0.162016,0.998936,0.840000,0.560000,0.560000
12.565388,-0.072712,-0.181048,1.023336,-2.100000,-0.840000,-1.540000
12.573475,0.012688,-0.125416,0.967216,0.140000,2.240000,-0.980000
12.581562,-0.053680,-0.199592,1.016016,-0.840000,0.280000,-0.840000
12.589649,-0.066856,-0.147864,0.983808,-1.960000,0.280000,-2.380000
12.597737,0.013176,-0.142008,1.002352,0.560000,1.260000,0.280000
12.605824,-0.055632,-0.216672,0.996984,-1.680000,-0.420000,-0.840000
12.613911,-0.041480,-0.111752,1.000400,0.280000,1.400000,-1.960000
12.621998,0.020984,-0.218624,1.004304,0.420000,0.560000,0.700000
12.630085,-0.127368,-0.130296,0.976488,-0.560000,1.400000,-2.380000
12.638173,-0.005368,-0.134200,0.960384,1.400000,0.000000,-1.120000
12.646260,0.000976,-0.215208,1.081896,-0.560000,0.280000,0.280000
12.654347,-0.071248,-0.135664,0.909144,-0.420000,0.560000,-1.960000
12.662434,0.019520,-0.160552,1.053592,1.400000,0.980000,0.000000
12.670521,-0.103944,-0.165920,1.002840,-1.820000,1.120000,-0.840000
12.678609,0.001952,-0.164944,0.928176,0.140000,0.000000,-2.100000
12.686696,-0.024400,-0.163968,1.071648,0.140000,1.680000,0.560000
12.694783,-0.077592,-0.172752,0.933056,-1.540000,-0.840000,-2.100000
12.702870,0.020008,-0.153720,1.012112,0.980000,0.840000,-0.420000
12.710958,-0.035624,-0.171288,1.039928,-0.840000,1.120000,0.560000
12.719045,-0.084424,-0.174216,0.946720,0.000000,0.560000,-3.640000
12.727132,-0.008296,-0.139568,0.986736,1.820000,1.540000,0.420000
12.735219,-0.050752,-0.187880,1.045296,-0.980000,-1.260000,-1.400000
12.743306,-0.025376,-0.148840,0.954040,0.700000,1.260000,-1.400000
12.751394,-0.001464,-0.175192,1.024800,0.420000,0.560000,1.120000
12.759481,-0.085888,-0.164456,0.996496,-1.540000,0.280000,-2.940000
12.767568,0.000000,-0.146888,0.942816,1.540000,2.520000,0.000000
12.775655,-0.070272,-0.185440,1.043832,-0.980000,-1.120000,-0.420000
12.783742,-0.028304,-0.162504,0.962824,-0.280000,0.700000,-2.100000
12.791830,0.018544,-0.161040,1.035048,0.980000,1.260000,0.700000
12.799917,-0.092720,-0.186904,0.985760,-2.100000,0.280000,-1.540000
12.808004,-0.020984,-0.122000,0.967704,2.100000,1.680000,-0.980000
12.816091,-0.001464,-0.228384,1.002352,0.840000,-0.140000,-0.280000
12.824179,-0.105896,-0.105408,0.995032,-0.420000,0.280000,-2.100000
12.832266,0.040504,-0.179096,0.996984,1.260000,0.560000,-0.140000
12.840353,-0.039040,-0.202032,1.052616,-1.260000,0.700000,-0.140000
12.848440,-0.101016,-0.141520,0.893528,0.560000,1.260000,-2.520000
12.856527,0.052704,-0.168848,1.076040,1.400000,0.000000,0.700000
12.864615,-0.134200,-0.160552,0.956480,-1.540000,1.680000,-2.380000
12.872702,0.018544,-0.143472,0.971608,0.280000,-0.700000,-0.840000
12.880789,-0.013664,-0.174216,1.097512,-1.120000,1.540000,0.700000
12.888876,-0.094672,-0.194712,0.906216,-1.680000,0.140000,-2.940000
12.896963,0.034160,-0.136152,1.033096,1.540000,1.960000,0.420000
12.905051,-0.096624,-0.224968,0.954040,-0.840000,0.000000,-0.980000
12.913138,-0.033672,-0.113216,0.981368,1.540000,-0.280000,-1.820000
12.921225,0.020496,-0.163480,1.052616,0.840000,1.400000,0.140000
12.929312,-0.087840,-0.183488,0.989176,-2.940000,-0.700000,-2.240000
12.937399,0.032696,-0.136152,0.969168,0.700000,1.960000,-0.420000
12.945487,-0.062952,-0.235216,1.047736,-0.980000,0.420000,0.000000
12.953574,-0.075640,-0.148840,0.914024,0.420000,1.540000,-2.940000
12.961661,-0.009272,-0.146888,1.016504,2.240000,0.280000,0.560000
12.969748,-0.030256,-0.189344,1.048712,-1.540000,-0.840000,-1.120000
12.977836,-0.053680,-0.130296,0.934520,0.140000,2.240000,-1.960000
12.985923,0.022936,-0.196176,1.053104,0.140000,-0.420000,0.840000
12.994010,-0.119072,-0.165920,0.969168,-1.540000,2.100000,-3.220000
13.002097,0.007320,-0.152744,0.954040,1.680000,-0.420000,0.140000
13.010184,-0.003416,-0.200080,1.072136,-0.840000,0.280000,0.000000
13.018272,-0.117120,-0.129808,0.924760,-1.120000,0.980000,-2.100000
13.026359,0.057584,-0.183488,1.019432,0.700000,0.280000,0.560000
13.034446,-0.132736,-0.178608,0.999912,-1.400000,1.260000,-1.260000
13.042533,0.033672,-0.191784,0.937448,1.400000,0.000000,-1.540000
13.050620,-0.023424,-0.148840,1.082872,0.980000,1.120000,0.420000
13.058708,-0.096624,-0.176656,0.931592,-1.120000,-0.700000,-2.100000
13.066795,0.026352,-0.134200,1.021384,1.260000,2.240000,-0.560000
13.074882,-0.058072,-0.182024,1.025288,-2.100000,-0.700000,-0.280000
13.082969,-0.045384,-0.199104,0.944280,-0.700000,1.820000,-3.640000
13.091056,-0.021960,-0.145424,0.981856,1.960000,0.700000,1.540000
13.099144,-0.047824,-0.212768,1.040904,-1.680000,-0.700000,-2.100000
13.107231,-0.040992,-0.111264,0.951112,0.980000,1.540000,-1.120000
13.115318,0.040016,-0.223504,1.067744,-0.280000,-0.700000,1.120000
13.123405,-0.128344,-0.151768,0.965752,-0.980000,3.080000,-3.780000
13.131493,0.011224,-0.146888,0.930128,1.120000,0.280000,1.260000
13.139580,-0.056608,-0.213256,1.070184,-1.260000,-0.840000,-0.980000
13.147667,-0.038552,-0.137616,0.925736,0.280000,0.840000,-1.400000
13.155754,0.015128,-0.193736,1.037976,0.140000,0.840000,0.420000
13.163841,-0.107360,-0.133712,0.994056,-1.680000,0.700000,-1.960000
13.171929,-0.000488,-0.189832,0.975512,0.280000,0.560000,-0.700000
13.180016,-0.009760,-0.185440,1.062376,-0.560000,0.700000,-0.280000
13.188103,-0.110776,-0.158112,0.903288,-0.840000,0.280000,-2.660000
13.196190,0.063440,-0.167872,1.037488,0.840000,0.140000,1.260000
13.204277,-0.088816,-0.177144,1.036512,-2.660000,1.120000,-1.260000
13.212365,-0.018544,-0.199592,0.907680,0.560000,0.280000,-2.100000
13.220452,-0.021960,-0.162504,1.068720,0.280000,1.680000,0.420000
13.228539,-0.110776,-0.183000,0.925736,-0.980000,-0.140000,-2.520000
13.236626,0.020008,-0.122976,1.016016,1.960000,0.980000,-0.140000
13.244713,-0.025864,-0.224480,1.028704,-2.100000,-1.260000,0.280000
13.252801,-0.041480,-0.137616,0.974048,-0.980000,1.540000,-2.800000
13.260888,-0.009760,-0.188856,1.011624,0.560000,1.960000,0.840000
13.268975,-0.109312,-0.183000,0.988200,-1.820000,0.000000,-1.540000
13.277062,-0.010248,-0.154696,0.917928,1.540000,1.400000,-1.540000
13.285150,0.027816,-0.203984,1.095072,0.560000,-0.980000,0.980000
13.293237,-0.092720,-0.162016,0.934520,-1.400000,2.240000,-3.640000
13.301324,-0.024888,-0.149816,0.996984,2.100000,-0.140000,0.560000
13.309411,-0.020008,-0.203008,1.076528,-1.820000,0.560000,-0.700000
13.317498,-0.087352,-0.167384,0.868152,0.700000,1.540000,-2.380000
13.325586,0.031232,-0.194224,1.057984,1.400000,-0.560000,0.980000
13.333673,-0.102480,-0.152256,0.975024,-1.260000,1.540000,-2.100000
13.341760,0.002440,-0.162992,0.975512,1.120000,-0.420000,-0.700000
13.349847,-0.001952,-0.204472,1.082384,-0.840000,1.540000,0.560000
13.357934,-0.111264,-0.154696,0.877424,0.000000,0.140000,-2.520000
13.366022,0.056608,-0.188368,1.083848,1.400000,1.120000,0.560000
13.374109,-0.121024,-0.178608,0.911584,-2.100000,0.000000,-1.400000
13.382196,0.001952,-0.152256,1.010648,1.120000,-0.420000,-1.540000
13.390283,-0.014640,-0.182512,1.071648,-0.700000,1.960000,1.260000
13.398371,-0.068808,-0.197640,0.944768,-1.820000,-0.700000,-3.080000
13.406458,0.003416,-0.130296,0.997960,2.100000,2.380000,0.840000
13.414545,-0.092232,-0.239120,0.958920,-2.240000,0.140000,-1.120000
13.422632,-0.022448,-0.123952,1.018944,0.560000,-0.280000,-2.100000
13.430719,0.014640,-0.200080,0.993568,0.840000,0.420000,0.980000
13.438807,-0.067832,-0.170800,1.039928,-1.680000,0.140000,-1.820000
13.446894,-0.009272,-0.168848,0.928664,0.980000,2.100000,-1.120000
13.454981,-0.048800,-0.208864,1.038952,0.280000,0.140000,0.420000
13.463068,-0.081496,-0.133224,0.952576,-0.420000,0.700000,-2.940000
13.471155,0.002440,-0.185928,0.999424,0.700000,0.980000,0.560000
13.479243,-0.042456,-0.185440,1.023336,-2.100000,-0.420000,-0.980000
13.487330,-0.027816,-0.173240,0.969168,-0.140000,0.420000,-1.960000
13.495417,0.020008,-0.205936,1.037488,0.280000,1.680000,0.840000
13.503504,-0.142008,-0.171288,0.944768,-0.280000,0.700000,-2.240000
13.511591,0.037576,-0.162992,0.961360,1.260000,0.420000,-0.280000
13.519679,-0.068808,-0.171776,1.049200,-0.560000,0.700000,0.280000
13.527766,-0.023424,-0.187880,0.955504,-0.420000,-0.980000,-2.940000
13.535853,0.007808,-0.165920,1.043344,0.560000,2.520000,0.700000
13.543940,-0.072224,-0.195688,0.968192,-2.100000,-0.700000,-1.960000
13.552028,-0.040016,-0.146888,0.995032,0.420000,2.100000,-1.540000
13.560115,-0.031720,-0.209840,1.011136,0.140000,0.420000,1.400000
13.568202,-0.048312,-0.173240,0.950136,-0.280000,-0.420000,-3.220000
13.576289,-0.019032,-0.148352,0.985760,2.660000,2.100000,-0.140000
13.584376,-0.016104,-0.247416,1.039928,-2.520000,-2.240000,-0.280000
13.592464,-0.044896,-0.134200,0.962824,0.840000,3.080000,-2.660000
13.600551,-0.042944,-0.204472,0.989176,1.680000,0.560000,1.960000
13.608638,-0.071736,-0.182024,1.023336,-0.280000,0.140000,-2.660000
13.616725,-0.024400,-0.139568,0.913048,2.800000,1.540000,-0.840000
13.624812,0.025864,-0.244000,1.070184,-0.560000,-2.100000,0.700000
13.632900,-0.105896,-0.121024,0.944280,0.140000,2.940000,-2.660000
13.640987,0.047336,-0.231312,1.035048,2.380000,-0.700000,1.260000
13.649074,-0.112728,-0.160552,0.987712,-0.560000,2.240000,-1.820000
13.657161,-0.004880,-0.177144,0.937936,3.080000,-1.120000,-1.400000
13.665248,0.004880,-0.186416,1.102880,1.260000,1.400000,0.840000
13.673336,-0.116144,-0.171288,0.855952,0.140000,0.280000,-2.240000
13.681423,0.030744,-0.138592,1.094096,1.960000,0.140000,0.280000
13.689510,-0.067832,-0.227408,0.963312,-1.400000,1.540000,-1.120000
13.697597,-0.028792,-0.179096,0.964288,2.240000,-0.420000,-1.960000
13.705685,-0.017080,-0.173240,1.021872,2.380000,2.520000,0.560000
13.713772,-0.101016,-0.173240,0.979416,-0.840000,-1.680000,-2.240000
13.721859,0.066856,-0.162992,0.996984,2.520000,1.120000,0.140000
13.729946,-0.065880,-0.213744,1.034072,0.140000,0.280000,0.140000
13.738033,-0.070760,-0.171288,0.968680,0.560000,0.700000,-2.940000
13.746121,-0.018544,-0.147376,0.990152,2.940000,2.660000,1.120000
13.754208,-0.057584,-0.222528,0.956968,-1.260000,-1.960000,-1.820000
13.762295,-0.018544,-0.134688,1.001864,1.680000,1.680000,-0.700000
13.770382,0.018544,-0.220088,1.035536,0.840000,-0.700000,0.560000
13.778469,-0.103944,-0.162504,1.018456,-0.420000,1.400000,-2.520000
13.786557,-0.005856,-0.167872,0.908168,2.240000,1.400000,0.280000
13.794644,-0.055632,-0.217160,1.049688,0.140000,-0.700000,-0.840000
13.802731,-0.042456,-0.142008,0.951600,1.820000,1.540000,-2.100000
13.810818,0.017080,-0.207400,1.024312,1.960000,-0.840000,1.120000
13.818905,-0.073200,-0.171776,1.003816,0.280000,0.560000,-1.960000
13.826993,-0.008784,-0.165920,0.976976,1.820000,1.260000,-0.840000
13.835080,-0.028304,-0.183976,1.009672,0.980000,0.560000,0.140000
13.843167,-0.119560,-0.193248,0.951600,0.420000,0.280000,-2.380000
13.851254,0.049776,-0.169824,0.983808,3.640000,0.280000,0.700000
13.859342,-0.086864,-0.185440,1.016016,0.700000,0.980000,-0.980000
13.867429,-0.014640,-0.170312,0.970144,2.380000,-0.280000,-1.680000
13.875516,-0.008296,-0.162016,1.067256,1.680000,1.260000,1.260000
13.883603,-0.072712,-0.223992,0.933056,0.280000,0.140000,-2.940000
13.891690,-0.006344,-0.126880,0.988688,2.520000,1.820000,0.000000
13.899778,-0.056608,-0.223016,1.013576,1.120000,-1.260000,0.140000
13.907865,-0.036600,-0.159088,0.986736,1.400000,1.260000,-2.800000
13.915952,-0.025864,-0.165432,0.985760,2.520000,0.700000,0.840000
13.924039,-0.010248,-0.179096,1.073112,0.000000,-0.560000,-1.540000
13.932126,-0.079544,-0.156160,0.903288,1.260000,3.220000,-1.260000
13.940214,0.009272,-0.211792,1.048712,0.560000,-0.980000,0.420000
13.948301,-0.115168,-0.161528,0.933544,0.280000,1.540000,-2.940000
13.956388,0.047824,-0.194224,1.012112,3.220000,-1.400000,1.400000
13.964475,-0.027816,-0.203496,1.033096,0.280000,1.540000,-1.120000
13.972562,-0.085400,-0.146888,0.929640,2.240000,-0.280000,-2.100000
13.980650,0.024400,-0.145912,1.082384,1.960000,1.400000,0.700000
13.988737,-0.132736,-0.223504,0.879376,-1.120000,1.820000,-3.080000
13.996824,0.023912,-0.129808,1.038952,2.940000,-1.540000,0.420000
14.004911,-0.024400,-0.227408,1.038464,0.140000,2.240000,0.280000
14.012999,-0.064416,-0.154696,0.912560,1.120000,-1.680000,-1.960000
14.021086,0.021960,-0.159576,1.065304,1.960000,2.380000,0.420000
14.029173,-0.106384,-0.213256,0.965752,-1.400000,0.000000,-1.960000
14.037260,0.001464,-0.158600,0.974536,3.500000,0.560000,-0.840000
14.045347,-0.047336,-0.190808,1.015040,0.700000,1.120000,0.560000
14.053435,-0.070272,-0.159088,0.982344,-0.140000,-1.120000,-2.520000
14.061522,0.043920,-0.145424,1.022360,2.660000,1.960000,1.120000
14.069609,-0.055632,-0.258640,1.003816,-1.120000,-0.560000,-1.120000
14.077696,-0.061976,-0.118096,0.941352,1.960000,1.820000,-1.820000
14.085783,-0.008784,-0.212280,1.008696,1.680000,0.980000,0.420000
14.093871,-0.066856,-0.149816,1.013576,0.140000,-0.280000,-2.240000
14.101958,-0.020984,-0.160552,0.946720,1.540000,1.260000,-0.840000
14.110045,0.006344,-0.226432,1.068720,0.000000,-1.400000,0.700000
14.118132,-0.067344,-0.130296,0.961360,1.120000,1.680000,-2.660000
14.126219,-0.002928,-0.192272,1.006256,1.120000,1.260000,0.840000
14.134307,-0.101016,-0.187880,0.985760,-0.140000,0.420000,-1.260000
14.142394,-0.009272,-0.164944,0.948672,2.100000,-0.140000,-1.820000
14.150481,0.003416,-0.176656,1.032120,-0.280000,1.680000,0.980000
14.158568,-0.108336,-0.172264,0.994056,-1.820000,-0.980000,-2.660000
14.166656,0.055632,-0.151280,1.003816,1.820000,1.540000,0.840000
14.174743,-0.100040,-0.234240,0.996496,-2.240000,0.840000,-0.560000
14.182830,-0.052216,-0.138592,0.944280,0.840000,0.420000,-2.380000
14.190917,0.007808,-0.171288,1.046760,1.400000,0.980000,1.120000
14.199004,-0.049288,-0.226920,0.954528,-2.100000,-0.700000,-3.080000
14.207092,-0.020984,-0.117120,0.997960,1.120000,2.100000,0.000000
14.215179,0.005368,-0.224968,1.046760,-0.980000,-1.260000,-0.280000
14.223266,-0.126392,-0.158112,0.976488,-1.400000,3.640000,-3.080000
14.231353,0.020496,-0.169336,0.938912,1.400000,-1.120000,1.820000
14.239440,-0.059048,-0.202032,1.071648,-2.100000,0.560000,-2.100000
14.247528,-0.032208,-0.139568,0.877424,0.000000,0.700000,-0.980000
14.255615,0.033672,-0.208864,1.128744,-1.120000,-0.560000,0.560000
14.263702,-0.129808,-0.166896,0.916464,-2.660000,2.940000,-2.940000
14.271789,-0.006344,-0.168360,0.983320,0.700000,0.140000,0.420000
14.279876,-0.046360,-0.201544,1.026752,-1.680000,1.400000,-2.100000
14.287964,-0.052704,-0.161040,0.941352,-0.840000,-1.260000,-2.100000
14.296051,0.059536,-0.187392,1.062376,-1.540000,1.680000,1.400000
14.304138,-0.132248,-0.172752,0.943304,-2.940000,1.400000,-3.080000
14.312225,0.012688,-0.209840,1.007232,0.280000,-0.980000,0.140000
14.320312,-0.029280,-0.164456,1.027728,-0.980000,2.520000,-0.420000
14.328400,-0.082960,-0.206912,0.923784,-1.120000,-0.700000,-3.360000
14.336487,0.023424,-0.121512,1.026752,1.260000,1.540000,0.980000
14.344574,-0.074176,-0.256200,0.980880,-3.220000,-0.840000,-1.680000
14.352661,0.005856,-0.132736,1.037000,0.000000,0.980000,-1.400000
14.360749,-0.043432,-0.229360,0.952088,-0.700000,1.960000,0.700000
14.368836,-0.077104,-0.162016,0.988688,-1.120000,-0.840000,-2.800000
14.376923,0.000000,-0.161040,0.992592,0.840000,2.940000,0.140000
14.385010,-0.040992,-0.232776,1.007232,-2.380000,-2.380000,-0.560000
14.393097,-0.033672,-0.133712,0.968192,-0.140000,1.400000,-1.820000
14.401185,0.004880,-0.218624,1.048712,-1.120000,0.980000,0.980000
14.409272,-0.108824,-0.165432,0.972096,-2.380000,1.400000,-2.940000
14.417359,-0.004392,-0.178608,0.934520,0.420000,-0.280000,-0.140000
14.425446,-0.014152,-0.224480,1.057496,-1.820000,0.560000,-0.420000
14.433533,-0.092720,-0.145912,0.938912,-1.260000,0.420000,-2.100000
14.441621,0.058072,-0.193248,1.043832,-0.420000,0.840000,0.000000
14.449708,-0.110288,-0.196664,0.964288,-3.220000,1.540000,-0.840000
14.457795,-0.008784,-0.169824,0.979416,-0.700000,-0.700000,-2.100000
14.465882,-0.034648,-0.201544,1.026264,-1.260000,2.520000,0.000000
14.473969,-0.094672,-0.177144,0.922320,-3.080000,-1.120000,-1.680000
14.482057,0.031720,-0.157624,1.046760,-0.280000,0.420000,-0.560000
14.490144,-0.057096,-0.227896,1.049688,-2.940000,1.120000,0.700000
14.498231,-0.004880,-0.191784,0.868640,-1.680000,0.140000,-2.520000
14.506318,-0.049288,-0.166896,1.090192,-0.420000,2.100000,0.980000
14.514405,-0.077592,-0.227408,0.901824,-3.220000,-0.700000,-1.820000
14.522493,-0.008296,-0.140544,1.033096,0.560000,0.420000,0.000000
14.530580,-0.014640,-0.224968,1.003816,-2.100000,1.120000,-0.140000
14.538667,-0.082472,-0.162504,1.000400,-2.940000,0.280000,-2.520000
14.546754,0.021472,-0.189344,0.965264,-0.140000,1.960000,0.700000
14.554842,-0.076616,-0.225944,0.991616,-3.220000,-0.140000,-1.260000
14.562929,-0.038064,-0.147376,0.955992,-0.280000,0.980000,-1.820000
14.571016,0.009760,-0.234240,1.059936,-1.960000,-0.840000,0.980000
14.579103,-0.044408,-0.196176,0.955504,-2.100000,1.120000,-2.380000
14.587190,-0.028792,-0.174704,0.995520,0.980000,1.260000,-0.560000
14.595278,-0.039528,-0.218136,1.023824,-1.540000,0.420000,-0.280000
14.603365,-0.104432,-0.141032,0.924760,-0.420000,1.260000,-2.100000
14.611452,0.065392,-0.234240,1.021384,-0.140000,-0.280000,0.420000
14.619539,-0.120048,-0.157624,0.989176,-2.660000,1.960000,-1.400000
14.627626,0.008784,-0.206912,0.957456,-1.680000,-1.960000,-1.400000
14.635714,0.020008,-0.192272,1.075552,-2.240000,1.960000,1.120000
14.643801,-0.123952,-0.198616,0.909632,-2.100000,0.700000,-3.080000
14.651888,-0.006344,-0.194224,1.046760,0.280000,0.280000,0.560000
14.659975,-0.048800,-0.216672,0.938424,-1.960000,1.540000,-0.980000
14.668062,-0.040016,-0.182512,0.965752,-0.840000,-1.120000,-1.960000
14.676150,0.004392,-0.178608,1.050176,-1.260000,1.960000,1.120000
14.684237,-0.062952,-0.230824,0.986248,-2.240000,-0.140000,-2.380000
14.692324,0.000488,-0.173728,0.956480,0.000000,1.400000,-0.560000
14.700411,-0.060024,-0.219112,1.043832,-2.100000,0.560000,0.280000
14.708498,-0.066856,-0.167872,0.938424,-0.420000,0.840000,-2.940000
14.716586,0.012200,-0.188368,1.017480,-0.140000,0.140000,0.560000
14.724673,-0.063928,-0.234240,0.986736,-3.640000,0.140000,-1.260000
14.732760,-0.037088,-0.138592,0.971608,0.420000,1.260000,-0.420000
14.740847,0.018056,-0.264496,1.029192,-1.120000,0.140000,0.000000
14.748935,-0.116632,-0.175192,0.966728,-2.380000,1.820000,-2.660000
14.757022,0.019032,-0.190320,0.940376,0.420000,-0.280000,0.840000
14.765109,-0.052216,-0.215696,1.065792,-1.540000,0.280000,-0.280000
14.773196,-0.059048,-0.179096,0.915000,0.000000,0.980000,-1.680000
14.781283,0.020984,-0.201056,1.043344,-0.700000,-0.140000,0.140000
14.789371,-0.078568,-0.202520,0.997960,-2.520000,1.260000,-1.120000
14.797458,-0.029768,-0.223504,0.938912,-0.140000,1.400000,-1.820000
14.805545,-0.033672,-0.197640,1.001376,-0.280000,0.280000,0.280000
14.813632,-0.051240,-0.166896,0.996008,-0.420000,-0.700000,-1.960000
14.821719,0.011224,-0.234240,0.989664,-0.700000,1.680000,-0.700000
14.829807,-0.049288,-0.179584,1.005768,-1.540000,-0.140000,0.140000
14.837894,-0.051240,-0.227896,0.965752,-1.120000,1.400000,-3.080000
14.845981,-0.028792,-0.172264,1.011136,0.560000,0.700000,1.260000
14.854068,-0.057096,-0.237168,0.953064,-0.280000,0.280000,-2.100000
14.862155,-0.026352,-0.178608,0.996984,0.700000,0.280000,-0.700000
14.870243,-0.002440,-0.205936,0.988688,-0.980000,0.140000,0.280000
14.878330,-0.074664,-0.167384,1.026264,-0.840000,0.560000,-1.960000
14.886417,0.012688,-0.208864,0.965264,0.140000,1.400000,0.420000
14.894504,-0.074176,-0.236680,0.981368,-1.680000,0.980000,-1.400000
14.902591,-0.040992,-0.177632,0.981368,1.120000,0.000000,-0.840000
14.910679,-0.007320,-0.230824,1.007232,0.280000,0.980000,-0.560000
14.918766,-0.053192,-0.189832,0.962824,0.000000,0.000000,-0.840000
14.926853,-0.012200,-0.180560,1.004304,0.280000,0.420000,-1.820000
14.934940,-0.028304,-0.241560,1.041880,-0.700000,1.120000,0.560000
14.943028,-0.094184,-0.168360,0.891088,0.840000,1.260000,-1.540000
14.951115,0.002928,-0.211792,1.037488,0.840000,0.140000,-0.980000
14.959202,-0.074176,-0.214232,0.969168,-1.120000,1.260000,-0.280000
14.967289,-0.004880,-0.171776,0.975512,0.420000,-0.700000,-2.240000
14.975376,-0.000488,-0.234728,1.051640,-0.140000,0.980000,0.560000
14.983464,-0.075152,-0.211792,0.958920,-0.560000,0.420000,-1.260000
14.991551,-0.006344,-0.184952,0.946720,0.980000,1.680000,-1.820000
14.999638,-0.061976,-0.195200,1.013088,-0.420000,0.140000,1.260000
15.007725,-0.046360,-0.225944,0.967704,0.280000,-0.700000,-2.380000
15.015812,-0.016104,-0.180560,1.009672,1.260000,2.100000,0.140000
15.023900,-0.044896,-0.235704,1.000400,-0.700000,-0.700000,-0.420000
15.031987,-0.014640,-0.165432,0.965752,1.260000,0.420000,-2.380000
15.040074,0.006344,-0.244976,1.058960,0.280000,0.700000,0.840000
15.048161,-0.094672,-0.200568,0.901336,-0.140000,1.820000,-1.820000
15.056248,-0.047824,-0.152256,1.013576,1.260000,0.700000,-1.120000
15.064336,-0.003416,-0.247416,0.972096,0.140000,-0.280000,-0.280000
15.072423,-0.082472,-0.187880,1.009184,0.280000,0.560000,-2.240000
15.080510,0.046360,-0.217648,0.987712,1.540000,0.140000,-0.140000
15.088597,-0.057584,-0.229360,1.002352,0.700000,1.960000,-0.420000
15.096685,-0.072712,-0.180072,0.949160,1.820000,-1.120000,-1.260000
15.104772,0.016592,-0.199592,1.051640,0.980000,2.520000,-0.980000
15.112859,-0.105408,-0.204472,0.920368,1.120000,0.000000,-0.280000
15.120946,-0.004880,-0.195688,1.009672,1.260000,0.280000,-2.940000
15.129033,-0.021960,-0.209840,1.016992,0.840000,1.260000,1.120000
15.137121,-0.032696,-0.214232,0.940376,1.260000,-0.700000,-1.820000
15.145208,-0.045384,-0.203496,1.020408,0.840000,1.960000,-0.700000
15.153295,-0.005856,-0.227408,0.976000,0.280000,-0.700000,0.280000
15.161382,-0.104432,-0.159576,0.986736,1.820000,1.540000,-2.800000
15.169469,-0.009272,-0.225944,0.974048,2.240000,0.700000,0.700000
15.177557,-0.042456,-0.202520,0.987712,0.700000,-0.560000,-0.700000
15.185644,-0.035624,-0.194712,0.977952,1.960000,0.560000,-1.680000
15.193731,0.031232,-0.253760,1.038952,1.260000,0.140000,0.140000
15.201818,-0.088816,-0.171288,0.972096,1.820000,1.540000,-1.260000
15.209905,-0.045872,-0.205936,0.937936,2.940000,1.120000,-0.980000
15.217993,-0.020008,-0.183488,1.032120,0.280000,-0.140000,0.280000
15.226080,-0.075640,-0.193736,0.950136,1.540000,0.000000,-2.520000
15.234167,0.020496,-0.209840,1.052616,1.820000,0.700000,-0.560000
15.242254,-0.035624,-0.204472,0.961848,0.840000,0.420000,-0.280000
15.250342,-0.076128,-0.208376,1.002840,1.400000,0.700000,-2.520000
15.258429,0.057096,-0.218136,0.977952,2.240000,1.820000,0.700000
15.266516,-0.124928,-0.193736,0.979904,1.820000,0.000000,-1.680000
15.274603,-0.045872,-0.195200,0.960384,1.680000,0.980000,-0.980000
15.282690,0.009760,-0.191296,1.011624,2.100000,-0.140000,0.420000
15.290778,-0.050752,-0.236192,0.996496,1.540000,-0.560000,-1.820000
15.298865,-0.016104,-0.184464,0.996984,2.100000,1.960000,-0.560000
15.306952,-0.009272,-0.210816,0.998448,1.540000,0.000000,-0.280000
15.315039,-0.114680,-0.170800,0.949160,1.820000,2.100000,-1.820000
15.323126,0.017568,-0.229848,1.008208,1.260000,-0.140000,0.140000
15.331214,-0.069784,-0.169336,0.989664,0.560000,0.980000,-1.400000
15.339301,-0.040504,-0.225456,0.956968,1.820000,-0.140000,-1.400000
15.347388,0.044896,-0.211792,1.032120,1.820000,0.140000,0.420000
15.355475,-0.090280,-0.178120,1.009184,1.820000,1.120000,-1.820000
15.363562,-0.043432,-0.241072,0.911584,1.820000,1.400000,-1.400000
15.371650,-0.036600,-0.152744,1.042368,2.100000,0.280000,0.140000
15.379737,-0.043920,-0.239608,0.938424,1.400000,-0.840000,-2.100000
15.387824,0.004392,-0.165432,1.047248,2.660000,2.100000,-0.140000
15.395911,-0.047336,-0.209840,0.945256,0.280000,-0.980000,-0.420000
15.403999,-0.047824,-0.175192,1.063840,0.140000,1.120000,-2.520000
15.412086,0.011224,-0.227408,0.935008,0.700000,0.840000,1.120000
15.420173,-0.102968,-0.201056,1.012600,0.420000,0.560000,-1.540000
15.428260,-0.051728,-0.184464,0.918416,0.700000,1.260000,-1.260000
15.436347,0.042944,-0.219600,1.065792,0.420000,-1.680000,0.560000
15.444435,-0.063440,-0.184952,0.962824,0.700000,1.540000,-2.520000
15.452522,-0.034160,-0.208376,1.005768,0.560000,0.840000,-0.420000
15.460609,-0.007808,-0.211792,0.998448,0.000000,0.840000,-0.140000
15.468696,-0.114192,-0.164944,0.941352,0.420000,0.560000,-2.240000
15.476783,0.012200,-0.233264,1.020408,0.560000,0.700000,-0.420000
15.484871,-0.071736,-0.183488,0.971120,0.280000,0.420000,-0.280000
15.492958,-0.007808,-0.223016,0.977464,1.680000,0.000000,-2.100000
15.501045,0.009272,-0.179584,1.044808,0.420000,1.260000,0.140000
15.509132,-0.083448,-0.211792,0.973560,0.000000,0.280000,-2.100000
15.517219,-0.013664,-0.181048,0.969168,0.840000,1.680000,-0.840000
15.525307,-0.044408,-0.201544,1.010160,-1.120000,0.000000,-0.140000
15.533394,-0.064904,-0.208376,0.959896,0.280000,0.560000,-2.660000
15.541481,-0.015128,-0.182512,0.991128,1.960000,0.980000,-0.560000
15.549568,-0.002928,-0.248392,1.003816,-1.400000,-0.280000,-0.560000
15.557656,-0.072224,-0.160552,0.984784,0.560000,1.960000,-1.680000
15.565743,0.003416,-0.242048,1.000888,0.140000,-0.420000,-0.140000
15.573830,-0.072224,-0.183976,1.002840,-0.700000,1.820000,-1.400000
15.581917,-0.064904,-0.200080,0.891088,0.980000,0.700000,-1.540000
15.590004,0.016592,-0.195200,1.077504,0.840000,-1.120000,0.420000
15.598092,-0.076616,-0.203008,0.969656,-0.700000,1.540000,-2.380000
15.606179,0.010736,-0.217648,0.967704,0.000000,-0.560000,-0.140000
15.614266,-0.022448,-0.187880,1.039928,-0.280000,2.100000,-0.140000
15.622353,-0.097600,-0.233752,0.930616,-0.560000,0.000000,-1.960000
15.630440,0.016104,-0.167872,1.048224,1.120000,1.540000,-0.280000
15.638528,-0.076616,-0.217648,0.898896,-0.700000,-0.280000,-0.840000
15.646615,-0.033184,-0.174216,1.052616,0.840000,-0.140000,-0.840000
15.654702,-0.000976,-0.222040,1.000400,-1.540000,1.260000,0.140000
15.662789,-0.051728,-0.212768,0.955016,0.000000,-0.420000,-1.400000
15.670876,-0.023424,-0.200568,1.022360,0.560000,2.520000,-1.400000
15.678964,-0.061000,-0.221064,0.940864,-1.120000,0.700000,0.000000
15.687051,-0.059048,-0.168848,1.002352,1.400000,0.000000,-2.520000
15.695138,-0.011224,-0.225456,0.967704,-0.140000,0.420000,-0.140000
15.703225,-0.014152,-0.205936,1.037976,-0.980000,0.000000,-0.560000
15.711313,-0.059536,-0.183488,0.932080,0.420000,1.400000,-1.820000
15.719400,0.004880,-0.255224,1.037976,0.420000,-0.140000,0.420000
15.727487,-0.049288,-0.146400,0.987712,0.140000,1.260000,-2.100000
15.735574,-0.075640,-0.222040,0.959408,0.560000,1.260000,-1.540000
15.743661,-0.002440,-0.216184,0.988688,0.280000,-0.140000,-0.420000
15.751749,-0.068320,-0.198128,0.982832,0.000000,0.420000,-1.540000
15.759836,0.017568,-0.207400,1.008696,0.560000,0.420000,-0.420000
15.767923,-0.052704,-0.170800,1.009672,-1.120000,0.560000,-0.700000
15.776010,-0.046848,-0.255712,0.964776,-1.400000,0.840000,-1.820000
15.784097,-0.008784,-0.170312,0.986248,0.700000,2.100000,-0.420000
15.792185,-0.085888,-0.225456,0.975024,-0.980000,-0.420000,-1.120000
15.800272,-0.024888,-0.187880,0.980880,0.280000,0.980000,-1.820000
15.808359,0.010248,-0.212280,1.019920,-0.140000,-0.560000,0.420000
15.816446,-0.072224,-0.222040,0.966728,-1.260000,1.400000,-1.400000
15.824533,-0.038552,-0.172752,1.012112,0.700000,0.700000,-0.980000
15.832621,0.039528,-0.267424,0.990152,-0.700000,0.140000,-0.280000
15.840708,-0.128832,-0.145424,0.960384,-0.420000,2.520000,-2.100000
15.848795,0.010736,-0.233752,0.985760,1.260000,-1.120000,-0.700000
15.856882,-0.047336,-0.184464,1.010160,-1.260000,1.540000,-0.420000
15.864969,-0.054168,-0.206424,0.943792,-0.840000,-1.120000,-1.680000
15.873057,0.033672,-0.203984,1.099464,-1.400000,1.260000,-0.140000
15.881144,-0.083448,-0.223504,0.913536,-1.680000,1.540000,-1.400000
15.889231,-0.049776,-0.209840,0.962336,-0.420000,0.980000,-1.540000
15.897318,-0.027816,-0.188856,1.006744,-1.540000,0.980000,0.280000
15.905406,-0.070272,-0.225944,0.961848,-1.540000,-1.120000,-1.820000
15.913493,0.012688,-0.192760,1.025288,-0.700000,1.120000,-0.560000
15.921580,-0.021472,-0.248392,0.965264,-1.540000,0.000000,0.000000
15.929667,-0.061000,-0.172264,1.026752,-0.700000,0.420000,-1.960000
15.937754,-0.011712,-0.221552,0.955992,-0.840000,2.240000,-0.560000
15.945842,-0.071736,-0.210328,0.973072,-2.240000,0.140000,-0.840000
15.953929,-0.057096,-0.179096,0.966240,-0.840000,0.560000,-1.540000
15.962016,0.021960,-0.249368,1.051152,-1.400000,0.140000,0.000000
15.970103,-0.050752,-0.197152,0.968680,-1.960000,0.560000,-1.820000
15.978190,-0.049288,-0.202520,0.957456,-0.980000,0.980000,-1.540000
15.986278,0.032696,-0.236192,1.026752,-1.820000,0.420000,0.560000
15.994365,-0.124440,-0.181048,0.965752,-1.260000,1.120000,-2.800000
16.002452,-0.009272,-0.224968,0.985272,-0.560000,0.560000,-1.120000
16.010539,-0.043432,-0.208864,0.965264,-0.840000,0.840000,-0.420000
16.018626,-0.059536,-0.217648,0.995520,-1.680000,-0.140000,-2.100000
16.026714,0.037088,-0.222528,0.997960,-0.560000,0.980000,-0.420000
16.034801,-0.072712,-0.207400,1.001864,-0.980000,0.280000,-0.560000
16.042888,-0.039040,-0.229848,0.959896,-1.540000,1.400000,-2.380000
16.050975,-0.028304,-0.185928,1.009672,-0.700000,1.820000,0.280000
16.059062,-0.047824,-0.238144,0.948672,-1.260000,-0.980000,-1.680000
16.067150,-0.067344,-0.175680,0.973072,-0.700000,1.820000,-1.400000
16.075237,0.050752,-0.243024,1.057008,-1.400000,-1.680000,0.700000
16.083324,-0.067344,-0.207400,0.976976,-1.120000,0.980000,-2.380000
16.091411,-0.029280,-0.224480,0.980880,-0.280000,1.820000,-0.560000
16.099499,-0.038552,-0.205936,0.950136,-1.120000,1.540000,-0.980000
16.107586,-0.114680,-0.216184,0.983320,-1.540000,-0.140000,-1.540000
16.115673,0.057096,-0.209352,0.996496,-0.560000,0.700000,-0.700000
16.123760,-0.083936,-0.199592,0.982344,-0.560000,0.560000,-0.560000
16.131847,-0.034648,-0.252296,0.991128,-0.980000,-0.420000,-2.380000
16.139935,0.029280,-0.190320,1.026264,-1.260000,1.960000,-0.140000
16.148022,-0.049776,-0.239608,0.951112,-1.680000,-0.140000,-1.400000
16.156109,-0.101992,-0.211304,0.959408,-0.140000,1.820000,-2.520000
16.164196,-0.008296,-0.209352,0.992592,-0.420000,0.140000,0.000000
16.172283,-0.031232,-0.235704,0.979904,0.000000,-0.700000,-2.380000
16.180371,-0.029768,-0.206912,1.001376,0.280000,2.520000,-0.840000
16.188458,-0.026352,-0.240584,0.977464,-0.420000,-0.980000,-0.140000
16.196545,-0.044408,-0.175680,1.020408,-0.700000,1.400000,-2.240000
16.204632,-0.009760,-0.248392,0.966240,-0.420000,1.540000,0.280000
16.212719,-0.087840,-0.210816,0.969168,-1.260000,0.420000,-1.540000
16.220807,-0.047824,-0.209352,0.932080,-0.560000,0.980000,-1.680000
16.228894,0.021472,-0.250832,1.046760,-0.280000,-0.420000,0.280000
16.236981,-0.050264,-0.207888,0.990640,0.140000,0.420000,-1.820000
16.245068,-0.034648,-0.228384,0.964288,0.980000,1.260000,-0.840000
16.253155,-0.010736,-0.194712,1.022848,-0.560000,0.700000,-0.140000
16.261243,-0.095648,-0.204472,0.941352,0.280000,0.280000,-1.680000
16.269330,0.013176,-0.250832,0.997960,0.840000,1.260000,-1.400000
16.277417,-0.089792,-0.189344,0.946232,-0.560000,0.840000,-0.840000
16.285504,-0.004392,-0.240584,1.017480,0.140000,-0.560000,-1.820000
16.293592,0.003904,-0.213744,1.005768,0.000000,2.100000,-0.420000
16.301679,-0.070272,-0.216672,0.974048,0.280000,-0.700000,-1.400000
16.309766,-0.031232,-0.220088,0.984784,-0.560000,1.820000,-2.100000
16.317853,-0.063440,-0.202032,0.954528,-0.700000,1.540000,0.840000
16.325940,-0.032696,-0.251808,0.989664,0.420000,-1.680000,-2.520000
16.334028,-0.015128,-0.206424,1.011624,0.140000,1.680000,-0.700000
16.342115,-0.023912,-0.224480,0.971608,-0.280000,-0.280000,-0.700000
16.350202,-0.050752,-0.224968,0.981368,-0.280000,0.840000,-2.380000
16.358289,0.020008,-0.225456,1.027728,0.280000,0.700000,0.280000
16.366376,-0.089304,-0.207400,0.924272,-1.680000,1.400000,-2.240000
16.374464,-0.076128,-0.203984,0.999424,0.140000,0.700000,-0.980000
16.382551,0.023424,-0.237656,0.980880,-0.280000,0.280000,-0.280000
16.390638,-0.087352,-0.234728,0.973560,-1.540000,-0.280000,-1.260000
16.398725,0.015128,-0.202032,0.994544,0.700000,0.980000,-0.980000
16.406812,-0.021472,-0.254248,1.012600,-1.540000,0.700000,0.000000
16.414900,-0.052216,-0.179584,0.999424,0.280000,0.280000,-1.400000
16.422987,-0.025864,-0.250832,0.957456,-0.280000,2.100000,-1.400000
16.431074,-0.060024,-0.208376,0.976000,0.000000,0.140000,-0.420000
16.439161,-0.062952,-0.220576,0.951600,0.840000,0.420000,-2.380000
16.447248,0.002440,-0.215696,1.027728,-0.420000,0.840000,-0.140000
16.455336,-0.044408,-0.232776,0.963800,-0.560000,0.140000,-1.120000
16.463423,-0.014152,-0.242536,0.993080,-0.140000,-0.700000,-1.260000
16.471510,-0.006832,-0.201544,1.030168,0.000000,2.380000,-0.280000
16.479597,-0.086864,-0.230824,0.921344,0.280000,-0.280000,-1.820000
16.487685,-0.039528,-0.208376,1.015528,0.700000,1.540000,-0.980000
16.495772,-0.037088,-0.218624,0.936472,-1.820000,-0.280000,-0.280000
16.503859,-0.042944,-0.213744,1.020896,-0.420000,0.140000,-1.960000
16.511946,-0.007808,-0.263032,0.975024,-0.140000,2.240000,-1.120000
16.520033,-0.007320,-0.246928,0.988200,-0.840000,-1.260000,0.000000
16.528121,-0.091256,-0.189832,0.980392,0.420000,2.520000,-2.100000
16.536208,0.000488,-0.238632,0.982832,0.700000,-0.420000,0.560000
16.544295,-0.062952,-0.202032,1.006744,-0.700000,1.400000,-2.100000
16.552382,-0.082960,-0.224968,0.897920,-0.140000,1.120000,-0.420000
16.560469,0.055144,-0.216672,1.094096,0.280000,-1.820000,-0.560000
16.568557,-0.061488,-0.233752,0.940376,-1.540000,2.100000,-1.540000
16.576644,-0.035624,-0.229360,0.975512,-0.420000,0.560000,-1.400000
16.584731,-0.038552,-0.204960,1.012112,-0.980000,0.980000,-0.420000
16.592818,-0.052216,-0.242536,0.950136,-0.700000,0.420000,-0.840000
16.600905,-0.049288,-0.223016,0.982832,-0.280000,1.540000,-1.680000
16.608993,-0.012688,-0.221064,0.993568,-0.980000,-1.260000,0.700000
16.617080,-0.062464,-0.224480,0.949648,-0.280000,1.540000,-2.380000
16.625167,0.020008,-0.234240,1.045784,-1.540000,-0.420000,0.700000
16.633254,-0.028792,-0.239120,0.947208,-0.840000,0.980000,-1.540000
16.641341,-0.060512,-0.234728,0.989176,0.000000,-0.280000,-0.420000
16.649429,0.004392,-0.208864,1.022848,0.140000,2.520000,-0.840000
16.657516,-0.132736,-0.230824,0.922320,-1.120000,0.140000,-1.260000
16.665603,0.036112,-0.225456,1.013576,1.260000,0.280000,-0.700000
16.673690,-0.076128,-0.230824,0.957944,-1.120000,0.840000,-0.420000
16.681777,-0.016592,-0.232288,0.983808,-0.280000,-0.700000,-0.700000
16.689865,-0.005856,-0.211304,1.000888,0.700000,1.540000,-1.120000
16.697952,-0.038552,-0.264008,1.027240,-1.120000,-0.140000,0.000000
16.706039,-0.078568,-0.194712,0.906216,0.000000,2.940000,-2.520000
16.714126,-0.012688,-0.229360,1.032608,-0.140000,-1.820000,0.560000
16.722214,-0.036600,-0.247904,0.946720,-1.260000,2.660000,-1.680000
16.730301,-0.081496,-0.194224,0.961360,0.280000,-1.260000,-0.560000
16.738388,0.047336,-0.266448,1.056032,-0.420000,0.560000,-0.700000
16.746475,-0.081984,-0.190320,0.947208,-1.400000,1.820000,-0.840000
16.754562,0.004880,-0.264496,1.008208,0.840000,-0.280000,-0.980000
16.762650,-0.074176,-0.228872,0.937936,-0.980000,2.100000,-1.120000
16.770737,-0.043920,-0.206424,0.995032,0.700000,-0.700000,-0.280000
16.778824,-0.042944,-0.232288,0.953064,0.280000,1.400000,-2.240000
16.786911,0.003416,-0.236680,1.038464,-0.280000,-1.540000,1.400000
16.794998,-0.051728,-0.226920,0.943792,-0.420000,2.100000,-2.800000
16.803086,0.003904,-0.242048,1.022360,-0.840000,-0.700000,0.980000
16.811173,-0.053680,-0.227408,0.960384,-0.140000,2.660000,-1.680000
16.819260,-0.087840,-0.225456,0.958920,-0.280000,-0.280000,-0.560000
16.827347,0.000000,-0.202032,1.014064,0.700000,0.840000,-0.560000
16.835434,-0.074176,-0.274744,0.925736,-1.540000,0.000000,-0.840000
16.843522,0.019520,-0.198128,1.032120,1.260000,-0.560000,-0.700000
16.851609,-0.025376,-0.262544,0.988200,-0.700000,1.260000,-0.980000
16.859696,-0.039528,-0.214232,0.995520,-1.120000,0.700000,-0.140000
16.867783,-0.070760,-0.218136,0.926224,0.280000,1.960000,-2.240000
16.875870,-0.023424,-0.258640,1.027240,-0.420000,-0.560000,0.420000
16.883958,-0.049776,-0.201544,0.948672,-0.140000,1.540000,-2.100000
16.892045,-0.048312,-0.245464,0.980392,0.140000,-0.840000,0.000000
16.900132,0.034160,-0.250832,1.033584,-0.420000,0.560000,-0.560000
16.908219,-0.081008,-0.225456,0.929640,-0.140000,0.560000,-1.120000
16.916307,-0.001464,-0.250832,1.021384,0.840000,0.700000,-0.700000
16.924394,-0.078568,-0.188368,0.971608,0.000000,1.960000,-1.120000
16.932481,-0.034648,-0.246440,0.977952,-0.280000,-1.120000,-0.560000
16.940568,-0.024888,-0.230336,0.936472,0.140000,2.380000,-1.680000
16.948655,-0.040016,-0.227408,1.043832,-0.140000,-2.380000,0.980000
16.956743,-0.001464,-0.247416,0.941352,-0.140000,1.960000,-2.520000
16.964830,-0.050264,-0.229848,1.035048,-0.140000,0.420000,0.700000
16.972917,-0.019032,-0.247904,0.961360,0.140000,1.400000,-1.400000
16.981004,-0.115656,-0.211304,0.929640,0.000000,1.120000,-0.980000
16.989091,0.035624,-0.236192,1.037488,0.140000,-0.840000,-0.280000
16.997179,-0.109800,-0.230824,0.916464,-1.120000,1.540000,-1.260000
17.005266,0.028792,-0.240584,1.038952,1.540000,-1.820000,0.000000
17.013353,-0.023424,-0.248392,0.962336,-0.700000,2.800000,-1.680000
17.021440,-0.037088,-0.208864,1.029680,-0.560000,-1.120000,0.420000
17.029527,-0.037088,-0.243512,0.925736,0.700000,2.940000,-2.520000
17.037615,-0.067344,-0.226920,1.025288,-0.560000,-0.420000,0.840000
17.045702,-0.035136,-0.205936,0.923784,1.120000,1.540000,-2.380000
17.053789,-0.055632,-0.258152,1.000400,-0.560000,-0.700000,0.280000
17.061876,0.026352,-0.233752,1.006744,-0.140000,0.420000,-0.560000
17.069963,-0.080032,-0.244000,0.960384,0.140000,0.140000,-1.540000
17.078051,0.042456,-0.250832,1.049200,0.700000,1.120000,0.000000
17.086138,-0.129808,-0.205936,0.889136,-0.280000,2.240000,-1.820000
17.094225,-0.009760,-0.242048,1.026264,0.840000,-1.540000,0.000000
17.102312,-0.024400,-0.233264,0.954040,0.140000,2.240000,-1.400000
17.110400,-0.077592,-0.229848,0.977952,0.140000,-0.980000,-0.980000
17.118487,0.029280,-0.247416,1.004792,0.560000,1.120000,-1.540000
17.126574,-0.048312,-0.257664,0.972584,-0.700000,0.000000,0.000000
17.134661,-0.042456,-0.240584,0.987224,1.540000,0.980000,-0.980000
17.142748,-0.037576,-0.209840,0.950136,1.960000,1.820000,-1.260000
17.150836,-0.051728,-0.262056,1.016504,0.420000,-0.420000,0.140000
17.158923,-0.060024,-0.197640,0.908168,1.680000,1.540000,-1.960000
17.167010,0.001952,-0.243512,1.069696,1.820000,-1.400000,0.420000
17.175097,-0.024888,-0.244488,0.956480,-0.840000,1.540000,-1.540000
17.183184,-0.043920,-0.227408,0.967704,1.260000,-0.140000,-0.280000
17.191272,0.014640,-0.252784,1.030656,0.700000,0.840000,-0.980000
17.199359,-0.116144,-0.213744,0.914024,0.000000,2.240000,-0.840000
17.207446,-0.014152,-0.231312,1.011136,1.820000,-0.560000,-1.260000
17.215533,-0.048800,-0.260592,0.949160,0.280000,1.400000,-0.560000
17.223620,-0.020496,-0.203496,1.007720,1.680000,-1.680000,-0.420000
17.231708,-0.024400,-0.263032,0.949160,0.840000,1.540000,-1.400000
17.239795,-0.016104,-0.228872,1.055544,0.560000,0.420000,0.700000
17.247882,-0.069296,-0.201056,0.934032,1.120000,2.240000,-2.800000
17.255969,-0.036600,-0.300608,0.964776,0.280000,0.000000,-0.140000
17.264056,-0.015128,-0.174216,0.987224,1.820000,1.260000,-1.260000
17.272144,-0.097112,-0.290360,0.950136,0.840000,-0.560000,-0.420000
17.280231,0.026840,-0.168360,1.032120,2.380000,0.280000,-0.280000
17.288318,-0.066368,-0.293776,0.970144,-0.280000,0.140000,-1.120000
17.296405,0.025864,-0.225456,1.007232,1.960000,-0.560000,0.420000
17.304493,-0.074176,-0.223992,0.954040,0.840000,3.220000,-2.100000
17.312580,-0.050264,-0.229848,0.991616,0.420000,-1.540000,1.120000
17.320667,-0.054168,-0.196664,0.943792,1.540000,3.080000,-2.800000
17.328754,-0.031232,-0.288896,1.009672,0.000000,-2.660000,0.980000
17.336841,0.024400,-0.199592,0.990640,0.980000,2.240000,-1.960000
17.344929,-0.089304,-0.272304,0.943304,0.560000,-0.980000,-0.140000
17.353016,0.029280,-0.200568,1.051640,1.400000,0.980000,0.000000
17.361103,-0.114192,-0.256200,0.937448,-0.700000,2.520000,-1.820000
17.369190,-0.005856,-0.208864,0.978928,1.400000,-0.840000,0.980000
17.377277,-0.058072,-0.231312,0.975024,-0.560000,2.240000,-2.100000
17.385365,-0.041968,-0.242536,0.964776,0.140000,-1.960000,0.980000
17.393452,0.021960,-0.243512,1.026264,0.420000,1.540000,-2.100000
17.401539,-0.034648,-0.262544,0.968680,0.140000,-0.980000,0.700000
17.409626,-0.046360,-0.202520,0.985272,1.260000,2.940000,-1.820000
17.417713,-0.054168,-0.261080,0.970144,0.700000,-0.560000,0.420000
17.425801,-0.029280,-0.205448,0.989176,0.840000,0.700000,-0.840000
17.433888,-0.079544,-0.247416,0.950624,0.140000,1.820000,-1.400000
17.441975,0.012688,-0.236192,0.991616,0.980000,-1.960000,0.420000
17.450062,-0.071248,-0.233752,0.989176,0.000000,2.240000,-2.240000
17.458149,0.024888,-0.247416,0.979416,0.980000,-1.820000,1.120000
17.466237,-0.049776,-0.230336,0.993568,0.700000,3.220000,-2.520000
17.474324,-0.058072,-0.260104,0.984784,0.000000,-0.700000,0.840000
17.482411,-0.019520,-0.183488,0.967704,1.540000,1.540000,-1.680000
17.490498,-0.093208,-0.288408,0.973560,-0.560000,0.140000,-0.140000
17.498586,0.029280,-0.182512,0.953552,1.820000,-0.420000,-0.700000
17.506673,-0.067344,-0.270352,1.033096,-0.280000,0.280000,-0.980000
17.514760,0.001464,-0.228384,0.959896,0.980000,0.000000,0.280000
17.522847,-0.054656,-0.238632,0.991128,0.980000,1.540000,-2.240000
17.530934,-0.014152,-0.260104,1.010648,0.560000,0.700000,1.120000
17.539022,-0.047336,-0.218136,0.914512,2.520000,1.400000,-1.960000
17.547109,-0.080032,-0.249368,1.005768,2.100000,-0.280000,0.420000
17.555196,0.004392,-0.210328,0.955016,2.100000,1.120000,-1.120000
17.563283,-0.081984,-0.249368,0.992592,1.820000,-1.120000,-0.280000
17.571370,0.037088,-0.232776,1.033096,1.400000,0.980000,-0.700000
17.579458,-0.072224,-0.244488,0.924272,1.120000,0.980000,-0.700000
17.587545,0.000488,-0.239608,1.036512,2.240000,-0.280000,-0.280000
17.595632,-0.078080,-0.225944,0.923784,1.120000,2.660000,-1.540000
17.603719,-0.037088,-0.226920,1.022360,0.980000,-0.840000,0.420000
17.611806,-0.054656,-0.233752,0.912560,1.540000,1.820000,-2.380000
17.619894,-0.022448,-0.252784,1.023336,1.120000,-1.540000,0.980000
17.627981,-0.018056,-0.220088,0.998936,1.400000,1.120000,-1.400000
17.636068,-0.029280,-0.252296,0.943792,2.520000,-0.280000,-0.280000
17.644155,0.004392,-0.250832,1.030168,1.960000,0.840000,-0.700000
17.652242,-0.085888,-0.231800,0.959408,1.120000,1.960000,-1.120000
17.660330,-0.054656,-0.198616,0.939888,2.940000,0.420000,-0.560000
17.668417,-0.018056,-0.244976,1.043344,0.980000,0.000000,-0.700000
17.676504,-0.062952,-0.231800,0.906704,1.680000,-0.140000,-0.560000
17.684591,-0.006344,-0.221552,1.054080,1.820000,0.840000,-1.120000
17.692679,-0.029768,-0.232288,0.980880,0.140000,0.140000,0.000000
17.700766,-0.028304,-0.252784,0.970144,1.260000,0.560000,-1.680000
17.708853,-0.019032,-0.241072,0.977952,1.540000,1.680000,-0.280000
17.716940,-0.069784,-0.202520,0.991128,1.120000,0.000000,-0.560000
17.725027,-0.058560,-0.251320,0.935008,1.260000,0.980000,-1.540000
17.733115,-0.010248,-0.214232,1.013088,1.820000,-0.140000,0.000000
17.741202,-0.023912,-0.261568,0.999424,-0.700000,0.000000,-1.260000
17.749289,-0.019520,-0.208864,0.955992,1.120000,0.840000,-0.560000
17.757376,-0.021960,-0.252296,1.023824,0.420000,1.260000,-0.980000
17.765463,-0.064904,-0.252784,0.952088,0.000000,0.840000,-0.420000
17.773551,-0.062464,-0.175680,0.954040,2.520000,1.260000,-1.820000
17.781638,-0.027816,-0.274744,1.015040,-0.140000,-0.560000,0.420000
17.789725,-0.032696,-0.188368,0.959408,1.120000,0.980000,-1.120000
17.797812,-0.026840,-0.279136,0.996008,0.280000,-0.980000,-0.420000
17.805899,0.023424,-0.238632,1.015040,0.560000,1.120000,-0.280000
17.813987,-0.104920,-0.221552,0.934032,0.700000,0.980000,-1.260000
17.822074,0.011712,-0.251320,1.006256,1.260000,0.560000,-0.140000
17.830161,-0.105896,-0.200568,0.967216,0.140000,1.820000,-1.120000
17.838248,-0.002928,-0.246928,0.951112,1.400000,-1.540000,-0.280000
17.846335,-0.043432,-0.243024,1.001376,0.420000,2.240000,-1.400000
17.854423,-0.023424,-0.238632,0.994056,0.140000,-1.960000,0.700000
17.862510,-0.008784,-0.221552,0.968680,2.100000,2.100000,-2.240000
17.870597,-0.052216,-0.254248,1.008696,0.700000,-0.700000,0.700000
17.878684,-0.003904,-0.228872,0.992104,0.840000,1.120000,-1.680000
17.886772,-0.098576,-0.201056,0.922808,0.980000,2.800000,-0.840000
17.894859,-0.007320,-0.253272,1.005280,0.560000,-1.400000,-0.280000
17.902946,-0.067832,-0.221064,0.978928,-0.700000,1.120000,-1.400000
17.911033,0.012200,-0.241560,0.994544,2.240000,-0.560000,0.140000
17.919120,-0.038552,-0.264496,0.974536,0.840000,1.120000,-0.980000
17.927208,-0.025864,-0.209840,1.011136,1.260000,0.560000,-0.140000
17.935295,-0.049288,-0.250344,0.927200,0.980000,0.840000,-1.680000
17.943382,-0.048312,-0.219600,1.013576,0.700000,0.700000,0.420000
17.951469,-0.061976,-0.238144,0.919880,1.680000,1.120000,-1.540000
17.959556,-0.012688,-0.231800,1.049200,1.960000,-0.980000,-0.280000
17.967644,-0.025864,-0.247904,0.955992,0.560000,0.980000,-0.420000
17.975731,-0.036112,-0.221064,0.987712,1.540000,-0.420000,-0.840000
17.983818,-0.021472,-0.217648,1.003328,0.700000,2.240000,-0.560000
17.991905,-0.060024,-0.278648,0.970144,-0.140000,-0.280000,-0.560000
17.999992,-0.043920,-0.208376,0.942816,1.540000,1.960000,-1.540000
18.008080,-0.052216,-0.220576,0.979904,1.540000,0.280000,-0.420000
18.016167,-0.013664,-0.271328,1.012112,0.420000,-0.560000,-0.420000
18.024254,-0.047824,-0.186416,0.962824,2.100000,1.120000,-1.260000
18.032341,0.046848,-0.287920,1.021872,0.980000,-1.120000,0.140000
18.040428,-0.089792,-0.198616,0.996496,-0.140000,2.660000,-1.540000
18.048516,-0.054168,-0.228384,0.911584,1.680000,0.280000,-0.420000
18.056603,-0.004880,-0.238632,1.055544,0.700000,0.420000,-0.840000
18.064690,-0.095160,-0.237168,0.885720,0.000000,1.120000,-0.840000
18.072777,0.014152,-0.207400,1.045296,2.100000,-1.400000,-1.120000
18.080864,-0.028304,-0.251320,0.980880,-1.260000,1.820000,-0.280000
18.088952,-0.031232,-0.237656,0.973560,0.700000,-0.560000,-1.120000
18.097039,-0.028792,-0.215696,1.022848,0.000000,2.380000,-0.980000
18.105126,-0.040504,-0.277184,0.934520,-0.280000,-0.280000,-0.280000
18.113213,-0.074664,-0.199592,0.963312,1.540000,0.840000,-1.400000
18.121301,-0.030256,-0.239608,1.013576,0.980000,0.840000,-0.560000
18.129388,-0.026352,-0.238632,0.961360,0.280000,-0.980000,-0.700000
18.137475,-0.039528,-0.217160,0.989664,0.560000,1.820000,-1.260000
18.145562,0.020496,-0.255712,0.985760,0.560000,-1.120000,0.280000
18.153649,-0.081984,-0.250832,0.994056,0.280000,1.960000,-1.400000
18.161737,-0.026352,-0.202032,0.961360,2.100000,0.840000,-0.560000
18.169824,-0.046848,-0.253272,0.988200,0.420000,0.700000,-0.980000
18.177911,-0.065392,-0.237168,0.949648,0.420000,0.700000,-0.420000
18.185998,-0.010736,-0.226432,0.976000,2.380000,-0.140000,-1.400000
18.194085,-0.019032,-0.265960,1.028216,0.700000,0.000000,0.420000
18.202173,-0.029768,-0.199592,0.933056,2.800000,0.700000,-1.400000
18.210260,-0.028304,-0.273280,1.039928,0.700000,0.280000,-0.280000
18.218347,-0.031720,-0.199592,0.938912,1.540000,2.520000,-0.280000
18.226434,-0.108336,-0.241560,0.988200,1.260000,-0.560000,-1.820000
18.234521,0.018056,-0.212768,0.990152,1.260000,0.700000,0.280000
18.242609,-0.046848,-0.238632,0.972096,0.280000,-0.700000,-1.120000
18.250696,-0.026352,-0.246928,0.971608,0.700000,0.140000,-0.140000
18.258783,-0.010248,-0.231312,1.015528,1.400000,1.400000,-0.980000
18.266870,-0.043920,-0.255712,0.983808,0.140000,-0.420000,-0.280000
18.274957,-0.061000,-0.196664,0.947208,1.400000,2.800000,-2.100000
18.283045,-0.044896,-0.238632,1.003328,0.840000,-1.120000,0.420000
18.291132,-0.016104,-0.241560,0.949648,0.980000,1.400000,-1.120000
18.299219,-0.065392,-0.219112,0.985272,1.540000,-0.280000,-0.700000
18.307306,0.029768,-0.279136,1.036512,0.420000,-0.280000,-0.420000
18.315393,-0.070760,-0.225456,0.890112,1.540000,1.540000,-1.400000
18.323481,-0.017080,-0.224480,1.081896,2.940000,0.280000,-0.280000
18.331568,-0.058560,-0.222528,0.949648,0.000000,1.820000,-0.980000
18.339655,-0.063440,-0.219112,0.943304,1.680000,0.140000,-0.280000
18.347742,-0.010248,-0.249856,0.991616,1.260000,0.560000,-1.120000
18.355830,-0.059048,-0.223016,1.002352,0.280000,0.280000,0.280000
18.363917,-0.013664,-0.231800,0.969656,1.820000,-0.420000,-1.820000
18.372004,0.026352,-0.269376,1.009672,0.840000,0.840000,0.420000
18.380091,-0.095648,-0.212280,0.984296,0.700000,1.400000,-0.980000
18.388178,-0.019520,-0.241560,0.945256,1.960000,0.420000,-0.700000
18.396266,-0.055632,-0.194712,1.017480,1.120000,1.400000,-0.420000
18.404353,-0.054656,-0.266448,0.928664,0.140000,-0.840000,-0.700000
18.412440,-0.031720,-0.204960,0.981368,1.680000,1.120000,-1.260000
18.420527,-0.002928,-0.243512,1.047248,-0.560000,-0.980000,0.280000
18.428614,-0.030744,-0.253272,0.933056,-0.140000,0.980000,-1.540000
18.436702,-0.037576,-0.201544,1.000888,1.120000,0.980000,-0.280000
18.444789,-0.008784,-0.292800,0.996984,-0.560000,0.560000,-0.700000
18.452876,-0.116144,-0.170800,0.923784,0.420000,1.960000,-1.260000
18.460963,-0.000976,-0.252784,1.035536,1.400000,-0.560000,-0.840000
18.469050,-0.040016,-0.227408,0.946720,-0.840000,0.700000,-0.420000
18.477138,-0.029768,-0.215208,0.987224,1.260000,-0.560000,-1.120000
18.485225,0.007320,-0.280112,1.010648,-0.140000,0.560000,-0.280000
18.493312,-0.059536,-0.205936,0.966240,0.000000,0.980000,-0.560000
18.501399,-0.028792,-0.242536,0.998936,1.260000,1.120000,-1.120000
18.509486,-0.046360,-0.239608,0.950624,-0.420000,1.540000,-0.560000
18.517574,-0.068808,-0.227408,0.994056,1.120000,-0.560000,-0.560000
18.525661,-0.026352,-0.242048,0.900848,1.960000,0.980000,-1.120000
18.533748,-0.020984,-0.210328,1.077016,0.700000,-0.980000,0.700000
18.541835,-0.031720,-0.273280,0.944768,0.140000,0.280000,-1.680000
18.549922,-0.002928,-0.221064,0.995520,1.120000,1.260000,-0.140000
18.558010,-0.046848,-0.219600,1.034072,0.140000,0.700000,-0.840000
18.566097,-0.087352,-0.254736,0.884744,-0.140000,1.400000,-0.980000
18.574184,-0.004392,-0.195200,1.032120,2.520000,-0.420000,-0.700000
18.582271,-0.044408,-0.289872,0.946232,-0.280000,0.700000,-0.420000
18.590359,-0.056120,-0.173240,0.978928,2.100000,0.280000,-0.700000
18.598446,0.015616,-0.268888,1.024800,0.560000,-0.140000,-0.560000
18.606533,-0.038064,-0.239608,0.968680,-0.560000,0.840000,-0.140000
18.614620,-0.040504,-0.214232,0.976000,1.120000,1.120000,-1.820000
18.622707,-0.036112,-0.261568,1.004792,0.280000,0.700000,0.420000
18.630795,-0.061976,-0.183488,0.955992,0.840000,1.120000,-1.400000
18.638882,-0.044408,-0.269376,0.958432,0.840000,-0.140000,-0.700000
18.646969,0.003416,-0.213744,1.018944,-0.280000,0.280000,-0.420000
18.655056,-0.034160,-0.259616,0.959408,0.280000,-0.280000,-0.980000
18.663143,-0.025376,-0.252296,0.991616,1.400000,1.820000,-0.980000
18.671231,-0.044896,-0.211304,0.989664,0.280000,1.260000,-0.420000
18.679318,-0.055632,-0.220576,0.988688,1.960000,-0.560000,-0.560000
18.687405,-0.031232,-0.255224,0.942816,0.700000,2.800000,-1.260000
18.695492,-0.067344,-0.220088,0.972584,0.560000,-1.680000,0.140000
18.703579,-0.010736,-0.248880,0.991128,1.540000,0.980000,-1.820000
18.711667,-0.007320,-0.222528,1.006744,0.980000,-0.280000,0.420000
18.719754,-0.037576,-0.247904,1.005280,0.420000,0.980000,-0.980000
18.727841,-0.061488,-0.227896,0.930128,0.840000,1.400000,-0.840000
18.735928,-0.020496,-0.217648,1.028704,1.400000,0.700000,-0.980000
18.744015,-0.064416,-0.260592,0.905728,-0.560000,0.000000,-0.980000
18.752103,-0.003904,-0.190808,1.046760,1.820000,-0.140000,-0.140000
18.760190,-0.028304,-0.284504,0.953064,-1.260000,0.700000,-0.980000
18.768277,-0.021960,-0.209840,1.015528,0.560000,0.560000,-0.560000
18.776364,-0.061488,-0.252784,0.932080,0.420000,1.960000,-1.260000
18.784452,-0.042944,-0.216672,1.006744,-0.280000,-0.560000,0.560000
18.792539,-0.060512,-0.219600,0.943792,0.980000,1.680000,-2.100000
18.800626,-0.013664,-0.243512,1.028216,0.140000,-0.840000,0.280000
18.808713,-0.013664,-0.246440,0.967704,-0.280000,1.120000,-1.120000
18.816800,-0.043920,-0.227896,0.992104,0.420000,-0.980000,-0.420000
18.824888,-0.006832,-0.249856,1.015528,0.000000,2.800000,-0.980000
18.832975,-0.091256,-0.236192,0.913536,0.280000,0.000000,-0.700000
18.841062,-0.007808,-0.218624,1.011624,1.540000,0.140000,-0.420000
18.849149,-0.060024,-0.247416,0.950136,-0.140000,1.260000,-0.980000
18.857236,-0.021472,-0.219112,1.007720,0.700000,-1.680000,0.280000
18.865324,-0.014640,-0.257664,0.984296,0.280000,2.240000,-2.100000
18.873411,-0.013664,-0.238632,1.004792,0.560000,-0.420000,1.120000
18.881498,-0.055632,-0.227408,0.943792,0.980000,1.400000,-2.100000
18.889585,-0.073688,-0.240096,0.989664,-0.280000,0.980000,0.560000
18.897672,-0.014640,-0.216672,0.960384,0.840000,0.280000,-1.120000
18.905760,-0.067832,-0.246928,0.974048,0.700000,0.000000,-0.840000
18.913847,0.036600,-0.223992,1.036024,0.700000,-0.700000,0.280000
18.921934,-0.057096,-0.293776,0.937448,0.000000,1.680000,-1.400000
18.930021,-0.019032,-0.181536,1.012600,2.520000,0.420000,0.140000
18.938108,-0.048800,-0.280112,0.968192,0.140000,1.540000,-1.400000
18.946196,-0.076128,-0.200568,0.949160,0.840000,0.000000,0.420000
18.954283,-0.035624,-0.229848,0.955016,2.800000,0.980000,-1.680000
18.962370,-0.010736,-0.255224,1.059936,-0.140000,-1.680000,0.700000
18.970457,-0.015616,-0.203008,0.947208,0.140000,1.680000,-1.540000
18.978544,-0.047336,-0.261080,1.011136,0.420000,0.280000,-0.140000
18.986632,0.002928,-0.246928,0.980392,-0.700000,1.540000,-0.840000
18.994719,-0.109312,-0.212768,0.929152,0.280000,0.700000,-1.260000
19.002806,-0.003904,-0.241072,1.012600,0.560000,0.280000,-0.280000
19.010893,-0.063440,-0.243024,0.949160,-0.140000,1.820000,-0.980000
19.018980,-0.017080,-0.223016,0.998936,1.260000,-2.240000,0.140000
19.027068,0.004880,-0.265960,0.998448,-0.140000,1.960000,-1.540000
19.035155,-0.050752,-0.227896,0.969656,0.420000,-0.840000,0.840000
19.043242,-0.031720,-0.231312,0.989176,1.400000,2.520000,-1.960000
19.051329,-0.065392,-0.246440,0.966728,0.420000,0.000000,0.420000
19.059417,-0.036600,-0.216672,0.963800,0.980000,0.420000,-0.980000
19.067504,-0.068320,-0.244000,0.973072,0.700000,0.700000,-0.840000
19.075591,0.031720,-0.217648,1.043832,-0.280000,-0.980000,0.280000
19.083678,-0.052216,-0.280112,0.930128,-0.700000,0.980000,-1.400000
19.091765,-0.014152,-0.206424,1.011624,1.400000,0.560000,-0.140000
19.099853,-0.055632,-0.265960,0.973560,-1.120000,1.680000,-0.840000
19.107940,-0.052216,-0.196176,0.965752,0.700000,0.140000,-0.420000
19.116027,-0.052704,-0.263520,0.970144,-0.140000,0.980000,-1.400000
19.124114,-0.007320,-0.235216,1.001376,0.000000,-0.560000,0.280000
19.132201,-0.049288,-0.204960,0.969168,0.280000,1.120000,-1.400000
19.140289,-0.008296,-0.274744,1.003328,-0.420000,-0.560000,-0.140000
19.148376,-0.017080,-0.217648,0.994544,0.000000,1.540000,-0.840000
19.156463,-0.069784,-0.274744,0.955504,0.280000,0.700000,-0.980000
19.164550,-0.015616,-0.206912,0.989664,1.540000,1.400000,-0.700000
19.172637,-0.081496,-0.248392,0.974536,-0.560000,-0.140000,-0.280000
19.180725,-0.018056,-0.216184,0.924760,1.120000,0.280000,-1.260000
19.188812,-0.020008,-0.234728,1.063840,-0.420000,0.420000,0.280000
19.196899,-0.016104,-0.276696,0.954528,-0.420000,-0.140000,-0.840000
19.204986,-0.048800,-0.209840,0.971120,1.120000,1.260000,-0.840000
19.213073,-0.011224,-0.254736,1.006256,-0.420000,0.000000,0.000000
19.221161,-0.078080,-0.235216,0.955016,-0.840000,1.820000,-1.260000
19.229248,-0.051728,-0.216672,0.958432,0.980000,0.000000,-0.840000
19.237335,0.010248,-0.273768,1.001864,-0.980000,0.000000,-0.420000
19.245422,-0.068320,-0.223016,0.955504,-0.140000,0.700000,-1.120000
19.253509,0.020008,-0.255224,1.010160,0.700000,-0.840000,-0.560000
19.261597,-0.032696,-0.222040,1.012600,-0.980000,2.100000,-0.560000
19.269684,-0.081984,-0.250832,0.920368,-0.140000,0.560000,-1.260000
19.277771,-0.023424,-0.236192,1.011136,0.560000,1.260000,-0.140000
19.285858,-0.064904,-0.241072,0.948672,-0.980000,0.420000,-0.980000
19.293945,-0.026352,-0.247416,0.958920,0.560000,-0.280000,-1.120000
19.302033,-0.013664,-0.222040,1.021384,0.280000,0.840000,-0.140000
19.310120,-0.021472,-0.259616,0.986248,-0.560000,-0.980000,-0.560000
19.318207,-0.045872,-0.241560,0.981368,0.700000,2.240000,-1.820000
19.326294,-0.030256,-0.236680,0.987712,0.560000,0.000000,0.700000
19.334382,-0.037088,-0.241072,0.931592,0.840000,0.840000,-1.400000
19.342469,-0.076616,-0.223992,0.987224,0.700000,1.120000,-0.280000
19.350556,-0.003904,-0.234728,0.993080,-0.560000,-0.840000,-0.700000
19.358643,-0.058072,-0.239608,0.986736,-0.560000,1.260000,-0.980000
19.366730,0.024400,-0.236192,0.990152,0.700000,-0.420000,-0.140000
19.374818,-0.068808,-0.270352,1.005768,-1.960000,2.100000,-0.560000
19.382905,-0.025376,-0.232776,0.934032,0.840000,-0.140000,-0.560000
19.390992,-0.049288,-0.266448,0.976488,0.140000,1.260000,-1.260000
19.399079,-0.068320,-0.207400,0.986736,-0.560000,0.980000,0.280000
19.407166,-0.037576,-0.247904,0.935496,0.700000,-0.420000,-1.820000
19.415254,0.013176,-0.229848,1.057008,-0.420000,0.280000,0.280000
19.423341,-0.049288,-0.265960,0.946720,-1.400000,0.700000,-1.120000
19.431428,-0.049288,-0.220088,0.984784,0.560000,0.980000,-1.540000
19.439515,0.006344,-0.207888,1.027240,-1.540000,-0.700000,-0.280000
19.447602,-0.067832,-0.246440,0.955016,-4.760000,2.800000,-0.560000
19.455690,-0.070272,-0.214232,0.912560,-2.100000,0.980000,-0.840000
19.463777,0.009272,-0.296216,1.086776,-4.200000,-1.680000,0.140000
19.471864,-0.070760,-0.196664,0.908168,-2.800000,2.240000,-1.260000
19.479951,-0.023912,-0.301584,0.974048,-1.260000,-0.280000,0.000000
19.488038,-0.027816,-0.225456,1.012112,-2.240000,0.140000,-0.280000
19.496126,-0.036112,-0.253272,0.954528,-2.380000,0.280000,-0.980000
19.504213,-0.016592,-0.244000,0.990152,-1.680000,0.980000,-0.700000
19.512300,-0.046360,-0.267912,0.987712,-2.520000,0.140000,-0.420000
19.520387,-0.014640,-0.245464,0.939400,-1.120000,0.560000,-1.260000
19.528474,-0.048312,-0.232288,1.022848,-1.960000,1.260000,-0.280000
19.536562,-0.037576,-0.256200,0.964776,-2.660000,0.000000,-0.980000
19.544649,-0.044408,-0.238144,0.957944,-0.420000,1.960000,-1.120000
19.552736,-0.012688,-0.289872,0.995520,-2.100000,-1.260000,-0.420000
19.560823,-0.079056,-0.199104,0.949648,-0.980000,2.940000,-1.400000
19.568911,-0.027816,-0.276208,0.973560,0.140000,-0.840000,-0.280000
19.576998,-0.024400,-0.249368,1.026752,-0.980000,0.700000,-0.840000
19.585085,-0.046848,-0.266448,0.893528,-0.140000,-0.700000,-0.420000
19.593172,-0.001952,-0.201056,1.079944,0.560000,1.960000,-1.260000
19.601259,-0.050264,-0.310856,0.911584,-2.240000,-0.700000,-0.140000
19.609347,-0.016104,-0.195200,0.998448,0.980000,1.540000,-0.700000
19.617434,-0.054656,-0.300120,0.979904,-2.100000,-0.560000,-0.280000
19.625521,-0.021960,-0.203496,1.000400,-0.420000,0.840000,-0.560000
19.633608,-0.053680,-0.264984,0.942816,-0.980000,1.120000,-0.700000
19.641695,-0.026840,-0.252784,0.996496,-1.120000,0.140000,0.280000
19.649783,-0.058072,-0.242048,0.945744,0.840000,0.000000,0.000000
19.657870,-0.023424,-0.282064,1.020896,0.280000,0.560000,-0.840000
19.665957,-0.050264,-0.283528,0.899872,2.240000,0.420000,0.420000
19.674044,0.008784,-0.282064,0.997472,4.200000,-0.280000,-0.280000
19.682131,-0.069784,-0.216672,0.967704,4.480000,1.680000,0.280000
19.690219,-0.014152,-0.268888,1.014064,4.200000,-0.560000,-0.140000
19.698306,-0.029280,-0.221552,0.957456,3.500000,0.280000,-0.280000
19.706393,-0.014152,-0.236680,0.996008,2.380000,0.560000,0.280000
19.714480,-0.062464,-0.249856,0.992592,2.660000,1.120000,0.700000
19.722567,-0.043920,-0.267912,0.950624,3.780000,-0.560000,-0.420000
19.730655,-0.009272,-0.238632,0.995520,2.800000,1.400000,0.700000
19.738742,-0.078080,-0.257664,0.903288,2.380000,-0.700000,-0.280000
19.746829,-0.030256,-0.221552,1.056520,4.480000,0.700000,0.980000
19.754916,-0.040016,-0.250832,0.957456,3.080000,0.420000,1.820000
19.763003,-0.019032,-0.254248,0.916464,5.880000,-0.140000,1.400000
19.771091,-0.037576,-0.269376,1.065792,5.180000,-0.560000,2.100000
19.779178,-0.039040,-0.239120,0.942816,3.360000,-0.280000,0.420000
19.787265,0.003416,-0.241072,0.957456,5.880000,1.820000,0.280000
19.795352,-0.045872,-0.278648,1.028216,3.080000,-1.540000,1.400000
19.803439,-0.060024,-0.205448,0.937448,5.880000,2.380000,0.280000
19.811527,-0.005856,-0.282064,1.032608,6.300000,-0.560000,1.540000
19.819614,-0.102480,-0.245464,0.888648,4.340000,0.420000,0.000000
19.827701,-0.015128,-0.206424,1.016504,8.540000,0.280000,0.560000
19.835788,-0.002440,-0.307928,0.989176,4.340000,-0.840000,0.560000
19.843876,-0.097600,-0.194712,0.948184,6.580000,1.820000,-0.280000
19.851963,0.025864,-0.262056,1.028704,7.420000,-1.260000,0.140000
19.860050,-0.038552,-0.261568,0.942816,5.040000,0.420000,-0.420000
19.868137,-0.023424,-0.211304,0.992104,7.280000,0.280000,-0.280000
19.876224,-0.047336,-0.265960,0.999424,6.860000,1.260000,-0.700000
19.884312,-0.049776,-0.211304,0.944280,7.140000,0.560000,0.000000
19.892399,-0.062464,-0.251808,0.987224,7.700000,0.280000,-0.700000
19.900486,-0.020008,-0.249368,0.987224,7.700000,0.700000,-0.280000
19.908573,-0.035136,-0.222528,0.966728,7.840000,-0.280000,-0.420000
19.916660,-0.022936,-0.244488,0.973560,7.560000,0.140000,-0.140000
19.924748,-0.015128,-0.233264,1.016504,8.120000,0.420000,-0.560000
19.932835,-0.051728,-0.243024,0.977952,7.840000,0.140000,-0.140000
19.940922,-0.022936,-0.212280,0.960384,9.100000,1.400000,-0.980000
19.949009,-0.070272,-0.244000,0.983808,8.120000,-0.140000,0.280000
19.957096,-0.031232,-0.207888,0.968192,8.400000,0.420000,-0.980000
19.965184,-0.049776,-0.221552,0.984296,8.260000,0.700000,-0.280000
19.973271,-0.004880,-0.242536,1.000888,7.840000,-1.540000,0.280000
19.981358,-0.039040,-0.230336,0.986248,8.400000,1.960000,-1.260000
19.989445,-0.020496,-0.245952,0.965264,9.940000,-0.560000,0.140000
19.997532,-0.020984,-0.225944,1.026752,9.660000,0.280000,-0.420000
20.005620,-0.091744,-0.211792,0.880352,9.240000,1.820000,-0.700000
20.013707,0.010736,-0.210816,1.071160,9.940000,-1.400000,-0.280000
20.021794,-0.086864,-0.212768,0.944768,8.540000,2.240000,-0.280000
20.029881,-0.028792,-0.214232,0.986248,10.220000,-1.400000,-0.420000
20.037968,0.015128,-0.235216,1.017968,9.520000,0.840000,-0.560000
20.046056,-0.045872,-0.203984,0.976488,9.100000,-0.140000,-0.280000
20.054143,-0.034160,-0.217648,1.005280,9.520000,0.840000,-0.840000
20.062230,-0.035136,-0.230824,0.952088,9.520000,0.560000,-0.140000
20.070317,-0.062952,-0.193248,0.981368,9.940000,0.280000,-0.420000
20.078405,-0.040504,-0.213744,0.992592,10.500000,0.560000,-0.980000
20.086492,-0.035136,-0.211304,0.996496,10.220000,0.140000,0.560000
20.094579,-0.030256,-0.208864,0.953064,9.800000,-0.840000,-1.400000
20.102666,0.002928,-0.201544,1.039928,9.660000,0.840000,0.700000
20.110753,-0.050752,-0.219600,0.966240,9.660000,0.420000,-1.260000
20.118841,-0.038064,-0.177632,0.989176,10.220000,0.420000,0.280000
20.126928,-0.044408,-0.193736,0.972584,8.820000,0.700000,-0.420000
20.135015,-0.048312,-0.220576,1.016016,8.260000,0.000000,-0.840000
20.143102,-0.027816,-0.170312,0.928176,8.820000,0.560000,0.140000
20.151189,-0.027328,-0.215208,1.051152,7.980000,-0.280000,-0.700000
20.159277,-0.019520,-0.216672,0.974536,8.120000,-0.420000,-0.140000
20.167364,-0.031232,-0.184952,1.016016,8.540000,1.400000,-0.700000
20.175451,-0.039528,-0.207888,0.958432,8.400000,0.560000,-0.140000
20.183538,-0.070272,-0.171288,1.001376,8.400000,0.420000,-1.120000
20.191625,-0.026352,-0.204472,0.967704,7.700000,0.420000,-0.280000
20.199713,-0.024400,-0.167384,1.018456,7.980000,-0.280000,-0.840000
20.207800,-0.056120,-0.209352,0.951600,6.440000,0.280000,-0.280000
20.215887,0.041968,-0.191784,1.069208,8.540000,-0.420000,0.000000
20.223974,-0.081496,-0.209352,0.933544,7.140000,1.540000,-1.260000
20.232061,-0.018544,-0.164944,1.034072,8.540000,0.000000,0.280000
20.240149,-0.091744,-0.182512,0.940864,6.720000,1.260000,-0.560000
20.248236,-0.006832,-0.198616,0.996008,8.120000,-0.840000,-0.700000
20.256323,-0.028792,-0.205448,0.989664,7.980000,0.980000,-0.280000
20.264410,-0.046360,-0.175680,0.992592,8.120000,-0.700000,-0.840000
20.272497,-0.004880,-0.172752,0.996008,8.400000,0.700000,0.280000
20.280585,-0.029768,-0.196664,1.038464,6.720000,0.000000,-1.120000
20.288672,-0.066856,-0.145424,0.949648,6.020000,1.960000,-0.280000
20.296759,-0.011224,-0.209352,1.008696,7.140000,0.000000,-0.980000
20.304846,-0.074664,-0.187392,0.946720,5.740000,0.560000,-0.980000
20.312934,-0.035136,-0.141032,1.031144,8.680000,0.700000,-1.400000
20.321021,-0.016104,-0.233752,0.963312,7.000000,-0.980000,-0.140000
20.329108,0.012688,-0.155184,1.064816,7.140000,0.000000,-0.420000
20.337195,-0.074664,-0.195688,0.921832,6.860000,1.680000,-1.120000
20.345282,-0.017080,-0.154208,1.049200,7.420000,0.000000,0.420000
20.353370,-0.060024,-0.192760,0.951112,7.000000,1.820000,-1.260000
20.361457,-0.041480,-0.169824,0.981368,7.420000,-1.400000,0.420000
20.369544,-0.024400,-0.174704,1.005280,7.000000,0.980000,-0.560000
20.377631,-0.016104,-0.205448,0.987712,7.420000,-0.560000,0.140000
20.385718,-0.021472,-0.133224,1.038464,8.680000,1.260000,-0.840000
20.393806,-0.077592,-0.188856,0.952576,7.000000,0.560000,-0.280000
20.401893,-0.005368,-0.174216,1.015040,7.420000,-0.140000,-0.420000
20.409980,-0.066856,-0.161528,0.948184,7.420000,0.980000,-0.420000
20.418067,-0.022936,-0.163968,1.031632,7.560000,-1.120000,0.000000
20.426154,-0.020496,-0.150792,1.011136,6.720000,0.840000,0.280000
20.434242,-0.022448,-0.188368,0.990640,6.860000,0.420000,0.700000
20.442329,-0.038552,-0.163968,0.995032,7.980000,0.560000,0.280000
20.450416,-0.072712,-0.175192,0.968192,7.420000,0.280000,-0.140000
20.458503,-0.022936,-0.160064,1.013576,7.000000,0.140000,-0.420000
20.466590,-0.020984,-0.154696,0.976976,7.000000,0.560000,-0.420000
20.474678,-0.023424,-0.189344,1.032608,6.720000,-0.560000,-0.280000
20.482765,-0.040992,-0.149816,0.986248,7.280000,1.680000,-0.840000
20.490852,-0.050264,-0.171288,0.974048,7.140000,0.560000,-0.560000
20.498939,-0.043920,-0.156160,0.997472,8.260000,-0.140000,0.280000
20.507026,-0.006344,-0.153720,0.971120,8.260000,0.420000,-0.420000
20.515114,-0.039040,-0.188368,1.046272,7.840000,-0.700000,-0.140000
20.523201,-0.042944,-0.137128,0.993568,8.400000,1.120000,-0.980000
20.531288,-0.045384,-0.156648,0.957456,8.540000,0.560000,-0.420000
20.539375,-0.002928,-0.153720,1.024800,7.140000,-0.700000,-0.420000
20.547463,-0.057096,-0.115656,1.025776,6.860000,0.560000,-0.980000
20.555550,-0.020008,-0.176656,0.990640,6.440000,0.140000,0.140000
20.563637,-0.029280,-0.192760,0.959896,7.140000,1.400000,-1.400000
20.571724,-0.043432,-0.144448,1.004792,8.120000,0.000000,0.000000
20.579811,-0.022448,-0.122000,1.004792,7.420000,-0.420000,-0.560000
20.587899,-0.035624,-0.169824,1.012600,6.860000,0.560000,-0.840000
20.595986,-0.032208,-0.136152,0.993568,7.560000,1.260000,-0.280000
20.604073,-0.065392,-0.161528,0.977952,6.720000,0.140000,-0.700000
20.612160,-0.017568,-0.126392,0.989664,7.000000,-0.140000,-0.420000
20.620247,-0.021960,-0.129808,1.047736,6.300000,0.560000,-0.140000
20.628335,-0.066856,-0.173728,0.984296,5.740000,0.560000,-0.280000
20.636422,-0.005856,-0.141032,0.962824,7.280000,0.280000,-0.560000
20.644509,-0.053680,-0.150304,1.009184,5.880000,0.700000,-0.560000
20.652596,-0.035624,-0.134200,1.026752,5.460000,-0.840000,-0.280000
20.660683,0.003416,-0.152744,0.968680,7.000000,1.540000,-0.840000
20.668771,-0.055144,-0.166896,1.004792,6.300000,-0.280000,-0.140000
20.676858,-0.050264,-0.123464,0.980880,6.440000,0.980000,-0.980000
20.684945,-0.018056,-0.132248,1.022848,7.000000,-0.280000,0.000000
20.693032,-0.008784,-0.139080,1.005768,5.180000,-0.280000,-0.700000
20.701119,-0.076616,-0.144936,1.016504,6.020000,1.820000,-1.260000
20.709207,-0.022448,-0.115168,0.970632,7.000000,-0.140000,0.560000
20.717294,-0.036112,-0.169336,1.001864,5.460000,0.140000,-1.260000
20.725381,-0.020496,-0.123464,1.025288,6.300000,0.420000,-0.280000
20.733468,-0.044408,-0.121024,1.006744,6.440000,1.120000,-0.420000
20.741555,-0.048800,-0.175192,0.953064,5.880000,0.000000,-0.980000
20.749643,0.001464,-0.103944,1.039440,6.160000,0.560000,-0.840000
20.757730,-0.055144,-0.109312,0.979416,5.040000,0.140000,0.000000
20.765817,-0.039528,-0.170800,1.019920,5.040000,0.560000,-1.120000
20.773904,-0.015128,-0.125904,0.966240,5.740000,0.980000,-0.420000
20.781992,-0.047824,-0.129808,1.015528,5.040000,-0.700000,-0.420000
20.790079,-0.032696,-0.124440,1.023336,4.620000,0.560000,-0.840000
20.798166,-0.003416,-0.125904,0.987224,4.760000,1.120000,0.000000
20.806253,-0.089792,-0.158112,0.957944,5.040000,0.560000,-1.260000
20.814340,-0.018056,-0.112728,1.041392,5.600000,0.000000,-0.140000
20.822428,-0.021472,-0.119072,1.005280,5.460000,0.420000,0.000000
20.830515,-0.043432,-0.144448,0.976488,4.340000,0.280000,-1.680000
20.838602,-0.014152,-0.133224,1.010648,5.460000,1.120000,0.000000
20.846689,-0.050752,-0.133224,0.998936,5.460000,-0.420000,-0.560000
20.854776,-0.037576,-0.112728,0.982344,4.900000,0.560000,-1.260000
20.862864,-0.011224,-0.108824,1.033584,4.340000,0.560000,0.560000
20.870951,-0.064416,-0.147864,0.994544,3.920000,0.420000,-1.120000
20.879038,-0.027816,-0.123952,0.995032,5.180000,0.560000,-0.840000
20.887125,-0.019520,-0.112728,1.004792,3.920000,0.140000,0.420000
20.895212,-0.058072,-0.127368,1.012112,3.920000,0.000000,-1.540000
20.903300,0.002440,-0.118584,1.023824,4.620000,0.560000,-0.140000
20.911387,-0.039040,-0.150304,0.972584,3.500000,0.980000,-0.140000
20.919474,-0.065392,-0.086864,0.970144,4.060000,0.000000,-1.540000
20.927561,0.021960,-0.129808,1.060912,3.640000,0.700000,0.280000
20.935648,-0.072224,-0.128344,0.974536,2.800000,0.420000,-0.980000
20.943736,-0.039040,-0.122488,0.978440,3.360000,0.700000,-1.120000
20.951823,-0.034648,-0.091744,1.055056,4.060000,1.120000,0.700000
20.959910,-0.035136,-0.138592,0.972584,2.940000,-0.980000,-1.120000
20.967997,-0.009272,-0.119072,1.026752,3.640000,1.260000,-0.840000
20.976084,-0.036112,-0.131760,1.009672,2.100000,-0.280000,0.420000
20.984172,-0.049776,-0.121512,0.949160,2.940000,0.980000,-1.540000
20.992259,-0.007808,-0.091256,1.005768,3.920000,0.560000,0.560000
21.000346,-0.050752,-0.144936,1.053104,0.420000,-0.700000,-0.560000
21.008433,-0.058560,-0.095648,0.970632,3.360000,1.680000,-0.980000
21.016520,-0.013176,-0.145424,1.010160,2.660000,1.120000,0.140000
21.024608,-0.050752,-0.111264,0.987224,1.680000,-0.420000,-0.980000
21.032695,0.021960,-0.081008,1.022360,2.660000,0.840000,-0.140000
21.040782,-0.059536,-0.174704,0.990640,0.420000,0.000000,0.000000
21.048869,-0.061976,-0.100528,0.996496,1.540000,1.400000,-1.400000
21.056956,-0.029280,-0.099064,1.006744,3.080000,0.560000,0.700000
21.065044,-0.016592,-0.140544,1.014064,0.420000,-1.120000,-1.120000
