Time [s],lsm6dsv16x_acc_x [g],lsm6dsv16x_acc_y [g],lsm6dsv16x_acc_z [g],lsm6dsv16x_gyro_x [dps],lsm6dsv16x_gyro_y [dps],lsm6dsv16x_gyro_z [dps]
47.898307,0.087840,-0.045384,1.050664,-10.220000,2.660000,-2.100000
47.906395,-0.198128,-0.069784,0.894992,-9.240000,0.840000,-1.680000
47.914482,0.140544,0.013176,1.098976,-9.240000,-1.540000,0.140000
47.922569,-0.167384,-0.009272,0.975024,-9.240000,4.480000,-3.220000
47.930656,0.052704,-0.038552,1.053104,-11.480000,-4.620000,1.260000
47.938743,-0.096624,-0.015616,0.951112,-10.080000,8.680000,-5.180000
47.946830,-0.036600,-0.042944,1.011136,-11.200000,-7.140000,2.660000
47.954917,0.048312,-0.048312,1.082384,-9.800000,6.580000,-4.340000
47.963005,-0.159576,0.017080,0.925736,-10.360000,-1.680000,0.000000
47.971092,0.108824,-0.070272,1.076528,-10.500000,1.260000,-2.240000
47.979179,-0.178120,-0.006344,0.949648,-10.640000,2.800000,-2.380000
47.987266,0.110776,-0.048800,1.069696,-12.040000,-3.360000,0.560000
47.995353,-0.162016,-0.065880,0.954040,-10.080000,5.880000,-3.920000
48.003440,0.056608,-0.027816,1.045296,-11.200000,-4.200000,1.400000
48.011528,-0.079544,-0.068320,0.976000,-9.660000,6.860000,-4.060000
48.019615,-0.072712,-0.001952,0.981856,-11.760000,-4.480000,1.120000
48.027702,0.081008,-0.039528,1.082384,-11.620000,5.320000,-3.220000
48.035789,-0.183976,-0.086376,0.935496,-11.060000,-1.120000,-1.680000
48.043876,0.118584,-0.075152,1.071160,-9.940000,0.700000,-0.980000
48.051963,-0.160552,-0.015616,0.935496,-9.240000,3.220000,-2.240000
48.060051,0.064904,-0.057584,1.080432,-11.340000,-3.500000,0.280000
48.068138,-0.101992,-0.040992,1.001376,-10.500000,6.160000,-4.620000
48.076225,-0.005368,-0.061976,0.963312,-12.460000,-4.200000,1.680000
48.084312,-0.042944,-0.100040,0.994544,-9.800000,6.440000,-4.060000
48.092399,-0.050752,-0.024888,1.065792,-11.340000,-4.340000,1.120000
48.100486,0.021960,-0.059048,0.999424,-10.500000,4.340000,-3.220000
48.108573,-0.138592,-0.086376,0.897920,-10.920000,0.140000,-0.980000
48.116661,0.111264,-0.021472,1.128744,-11.900000,-0.700000,-0.280000
48.124748,-0.193248,-0.067832,0.937448,-10.780000,4.060000,-4.200000
48.132835,0.100040,-0.151280,1.045784,-10.920000,-3.780000,0.700000
48.140922,-0.093208,-0.020008,0.969168,-8.120000,6.160000,-3.080000
48.149009,-0.064416,-0.074664,1.017968,-11.200000,-3.220000,0.700000
48.157096,0.026840,-0.035624,1.071648,-12.040000,4.480000,-3.500000
48.165184,-0.123464,-0.055144,0.897920,-12.320000,-2.520000,-0.280000
48.173271,0.085888,-0.170800,1.120936,-10.500000,3.220000,-2.520000
48.181358,-0.163968,-0.061488,0.894016,-9.100000,1.120000,-0.980000
48.189445,0.058560,-0.050752,1.057984,-8.820000,-2.100000,-0.420000
48.197532,-0.088328,-0.103456,1.014552,-9.520000,4.060000,-3.080000
48.205619,0.033184,-0.069296,1.047248,-11.340000,-2.800000,1.120000
48.213707,-0.111752,-0.099552,0.911096,-8.260000,6.580000,-4.340000
48.221794,0.010248,-0.109312,1.026264,-9.940000,-5.460000,1.400000
48.229881,0.000000,-0.055632,1.062864,-9.380000,6.020000,-3.920000
48.237968,-0.123952,-0.074176,0.940376,-10.500000,-2.520000,-0.140000
48.246055,0.089792,-0.108336,1.056520,-10.500000,2.240000,-1.680000
48.254142,-0.177632,-0.030744,0.911096,-9.800000,2.380000,-3.500000
48.262230,0.069296,-0.183976,1.098488,-10.780000,-2.800000,0.000000
48.270317,-0.086864,-0.092232,0.942328,-7.420000,4.200000,-2.660000
48.278404,-0.036112,-0.084424,0.996008,-8.260000,-0.840000,0.560000
48.286491,-0.027328,-0.118096,1.035048,-8.120000,2.800000,-2.800000
48.294578,-0.061488,-0.043432,0.998936,-9.520000,-2.520000,0.280000
48.302665,0.027328,-0.120048,1.018456,-8.820000,4.340000,-2.380000
48.310752,-0.119560,-0.121512,0.960872,-8.960000,-0.840000,-1.400000
48.318840,0.063928,-0.113216,1.063352,-8.260000,0.560000,-1.540000
48.326927,-0.122000,-0.077592,0.948672,-8.260000,2.660000,-1.820000
48.335014,0.013664,-0.132248,1.054568,-9.940000,-2.380000,0.140000
48.343101,-0.053680,-0.091256,0.970632,-7.840000,4.900000,-3.780000
48.351188,-0.031720,-0.124440,0.974048,-8.820000,-3.220000,0.840000
48.359275,-0.028304,-0.114680,1.012600,-7.140000,3.920000,-2.800000
48.367363,-0.068808,-0.097112,1.014552,-8.680000,-1.540000,0.000000
48.375450,0.043920,-0.131272,1.034560,-7.840000,1.540000,-2.100000
48.383537,-0.154696,-0.087840,0.935008,-7.140000,1.820000,-1.260000
48.391624,0.086864,-0.108336,1.040416,-9.100000,-1.400000,0.000000
48.399711,-0.138592,-0.135664,0.991128,-7.280000,3.500000,-3.220000
48.407798,0.019032,-0.133712,1.024312,-8.120000,-1.960000,0.140000
48.415886,-0.049288,-0.091744,0.976488,-6.580000,4.900000,-2.800000
48.423973,-0.062952,-0.149328,0.978928,-8.260000,-3.500000,0.560000
48.432060,0.038064,-0.091744,1.090680,-7.420000,4.200000,-3.220000
48.440147,-0.109312,-0.138592,0.914024,-7.840000,-1.540000,-0.140000
48.448234,0.050752,-0.156160,1.031144,-6.160000,1.820000,-1.960000
48.456321,-0.125904,-0.084912,0.968192,-6.580000,2.240000,-1.680000
48.464408,0.042456,-0.118584,1.059936,-8.540000,-3.220000,0.280000
48.472496,-0.105896,-0.112728,0.946720,-7.700000,5.040000,-3.640000
48.480583,0.005368,-0.163968,1.004792,-8.540000,-2.100000,0.700000
48.488670,-0.066856,-0.134688,0.995032,-5.040000,3.780000,-3.080000
48.496757,-0.030256,-0.105408,1.029192,-7.140000,-2.520000,0.420000
48.504844,0.016104,-0.136152,1.003816,-6.860000,2.940000,-1.960000
48.512931,-0.129320,-0.153232,0.955992,-6.580000,0.420000,-0.980000
48.521019,0.078080,-0.126392,1.057008,-6.580000,0.840000,-0.700000
48.529106,-0.138104,-0.138592,0.938424,-6.300000,0.840000,-1.960000
48.537193,0.041480,-0.142008,1.044320,-6.580000,-1.400000,-0.280000
48.545280,-0.062952,-0.139080,1.005768,-5.880000,4.620000,-2.520000
48.553367,-0.054656,-0.123464,0.961360,-6.720000,-2.520000,0.700000
48.561454,-0.022936,-0.131760,1.012600,-5.740000,3.640000,-3.360000
48.569542,-0.043432,-0.146400,1.009184,-6.720000,-2.520000,0.560000
48.577629,-0.001464,-0.152256,1.018944,-4.620000,3.360000,-2.520000
48.585716,-0.108824,-0.133712,0.967704,-5.320000,0.280000,-0.700000
48.593803,0.046360,-0.110776,0.994544,-6.160000,-0.280000,-0.700000
48.601890,-0.122000,-0.140544,0.984784,-7.140000,1.680000,-2.380000
48.609977,0.062464,-0.176656,1.056520,-7.840000,-0.840000,0.000000
48.618064,-0.095648,-0.162504,0.924272,-4.900000,3.360000,-2.660000
48.626152,-0.028304,-0.148352,1.015040,-5.740000,-2.100000,0.560000
48.634239,-0.016592,-0.090768,1.043832,-6.020000,4.200000,-2.520000
48.642326,-0.077592,-0.142984,0.948184,-7.420000,-2.660000,0.000000
48.650413,0.040016,-0.196664,1.072624,-7.420000,3.500000,-2.660000
48.658500,-0.148352,-0.126880,0.901824,-6.020000,0.420000,0.000000
48.666587,0.066856,-0.156648,1.048224,-5.040000,-1.120000,-0.980000
48.674675,-0.097112,-0.153232,1.009672,-6.160000,2.660000,-2.100000
48.682762,0.011224,-0.142496,1.002840,-7.280000,-1.540000,0.560000
48.690849,-0.085400,-0.168848,0.945744,-4.340000,4.480000,-3.640000
48.698936,0.000976,-0.165432,1.023824,-6.300000,-3.780000,0.420000
48.707023,-0.022936,-0.129808,0.996496,-5.880000,3.920000,-2.660000
48.715110,-0.113704,-0.180072,0.971608,-6.300000,-0.560000,0.140000
48.723198,0.060024,-0.157136,1.037488,-5.740000,1.400000,-1.400000
48.731285,-0.133712,-0.120536,0.933544,-6.020000,0.980000,-1.960000
48.739372,0.076616,-0.177632,1.063352,-7.000000,-1.680000,0.280000
48.747459,-0.142984,-0.144936,0.976000,-6.300000,4.620000,-2.800000
48.755546,0.006344,-0.203496,0.965264,-6.720000,-2.520000,-0.140000
48.763633,-0.016592,-0.149816,1.026264,-5.320000,3.920000,-2.520000
48.771721,-0.094184,-0.137616,0.988200,-6.440000,-2.380000,0.840000
48.779808,0.063928,-0.175680,1.043344,-6.580000,2.240000,-2.380000
48.787895,-0.141520,-0.178608,0.933544,-6.440000,1.400000,-1.400000
48.795982,0.068808,-0.149816,1.014064,-6.440000,-1.680000,0.140000
48.804069,-0.130784,-0.161040,0.986736,-6.580000,3.780000,-2.520000
48.812156,0.035136,-0.160064,1.013576,-8.400000,-3.500000,0.840000
48.820243,-0.048312,-0.182024,0.986248,-6.720000,5.460000,-4.480000
48.828331,-0.081496,-0.187880,0.954528,-7.000000,-3.360000,0.980000
48.836418,0.035136,-0.159576,1.037488,-6.160000,4.060000,-2.660000
48.844505,-0.129808,-0.166408,0.976000,-7.700000,-0.140000,-0.700000
48.852592,0.071736,-0.205448,1.005768,-6.860000,0.280000,-1.260000
48.860679,-0.180072,-0.142984,0.935008,-5.460000,3.640000,-2.240000
48.868766,0.108824,-0.189344,1.064816,-7.840000,-4.060000,0.980000
48.876854,-0.117608,-0.175192,0.972096,-6.580000,5.600000,-3.920000
48.884941,-0.014152,-0.166896,1.004792,-7.980000,-3.500000,1.400000
48.893028,-0.019520,-0.197152,0.974536,-7.140000,5.180000,-3.500000
48.901115,-0.091256,-0.142496,1.004792,-8.120000,-2.800000,0.700000
48.909202,0.069784,-0.182024,1.029192,-7.700000,2.800000,-2.240000
48.917289,-0.171288,-0.219600,0.921344,-8.120000,0.000000,-0.700000
48.925377,0.109800,-0.183976,1.032120,-7.000000,0.140000,-1.120000
48.933464,-0.185928,-0.174216,0.957944,-6.440000,3.920000,-2.520000
48.941551,0.074176,-0.160552,1.012600,-8.820000,-4.900000,1.260000
48.949638,-0.083936,-0.203984,1.003328,-8.820000,7.560000,-4.900000
48.957725,-0.038064,-0.218136,0.935008,-8.260000,-4.760000,1.540000
48.965812,-0.012200,-0.217160,1.018944,-5.460000,5.040000,-3.360000
48.973899,-0.080032,-0.128832,0.990152,-7.140000,-2.240000,0.980000
48.981987,0.067344,-0.193736,1.034560,-7.840000,1.400000,-2.240000
48.990074,-0.202032,-0.203008,0.962336,-7.840000,1.960000,-1.680000
48.998161,0.147864,-0.198616,1.001376,-7.280000,-1.540000,0.280000
49.006248,-0.199104,-0.228872,0.921832,-5.740000,4.480000,-3.360000
49.014335,0.071248,-0.150304,1.062376,-7.420000,-4.620000,0.560000
49.022422,-0.053192,-0.229360,0.980880,-7.840000,6.580000,-3.500000
49.030510,-0.108336,-0.173728,0.922320,-8.540000,-3.080000,1.400000
49.038597,0.080032,-0.208376,1.060912,-8.120000,3.920000,-3.500000
49.046684,-0.137616,-0.184952,0.946232,-8.260000,-2.100000,-0.280000
49.054771,0.070760,-0.255224,1.024800,-7.000000,2.100000,-1.680000
49.062858,-0.152744,-0.188368,0.959896,-6.440000,2.660000,-1.680000
49.070945,0.058560,-0.162016,1.003816,-7.980000,-3.920000,0.140000
49.079033,-0.113216,-0.209352,0.964288,-8.400000,6.440000,-4.200000
49.087120,0.012200,-0.208864,1.008696,-10.080000,-4.200000,1.540000
49.095207,-0.058072,-0.256688,0.963312,-7.000000,5.460000,-3.920000
49.103294,-0.061976,-0.205936,0.967704,-6.860000,-2.380000,0.280000
49.111381,0.033672,-0.176168,1.019920,-7.140000,1.960000,-1.680000
49.119468,-0.150304,-0.185440,0.982832,-8.820000,0.420000,-1.960000
49.127556,0.126392,-0.257664,1.019432,-8.540000,-0.420000,0.420000
49.135643,-0.196176,-0.232776,0.917928,-6.300000,3.220000,-2.800000
49.143730,0.039040,-0.210816,1.002352,-6.720000,-2.240000,-0.140000
49.151817,-0.021960,-0.205448,1.027240,-7.840000,4.200000,-2.100000
49.159904,-0.085400,-0.155184,0.948672,-10.220000,-2.800000,0.840000
49.167991,0.029280,-0.254736,1.027728,-9.240000,5.180000,-3.640000
49.176078,-0.112240,-0.271816,0.912072,-8.260000,-2.660000,0.280000
49.184166,0.033672,-0.226920,1.024312,-6.300000,1.960000,-2.240000
49.192253,-0.081496,-0.194224,0.970144,-6.580000,1.680000,-0.840000
49.200340,0.021960,-0.189832,1.044320,-8.820000,-2.240000,0.280000
49.208427,-0.128344,-0.247904,0.904752,-8.820000,6.720000,-4.900000
49.216514,0.043920,-0.239120,0.987712,-8.680000,-5.180000,1.960000
49.224601,-0.067832,-0.256688,0.977952,-5.880000,5.040000,-2.940000
49.232689,-0.060512,-0.204472,1.015528,-7.980000,-2.100000,0.140000
49.240776,0.053192,-0.224480,1.000400,-8.400000,1.680000,-1.820000
49.248863,-0.194224,-0.192272,0.915488,-7.840000,2.520000,-2.100000
49.256950,0.131760,-0.253760,1.055056,-9.940000,-2.100000,0.560000
49.265037,-0.150304,-0.294752,0.930616,-7.560000,3.920000,-2.800000
49.273124,0.000488,-0.180072,0.998936,-6.860000,-2.100000,0.000000
49.281212,-0.029280,-0.248880,1.004792,-8.400000,4.340000,-2.660000
49.289299,-0.069784,-0.209840,0.945256,-10.080000,-3.780000,0.980000
49.297386,0.016104,-0.220576,1.008696,-8.120000,5.460000,-3.220000
49.305473,-0.071248,-0.319640,0.970144,-9.660000,-3.080000,0.140000
49.313560,-0.017080,-0.234728,0.964776,-5.600000,2.240000,-2.380000
49.321647,-0.103944,-0.240096,0.983320,-7.140000,3.080000,-1.400000
49.329735,0.048800,-0.240096,0.968680,-6.580000,-4.760000,0.700000
49.337822,-0.086864,-0.234240,0.999912,-7.840000,3.920000,-3.360000
49.345909,-0.005856,-0.290848,1.001376,-7.000000,-2.240000,0.000000
49.353996,-0.046360,-0.216672,0.924760,-6.440000,1.400000,-1.540000
49.362083,-0.101992,-0.227408,1.009672,-7.980000,0.140000,-1.400000
49.370170,0.081496,-0.235704,0.985272,-8.680000,-1.960000,-0.700000
49.378258,-0.115168,-0.280112,0.973560,-8.680000,2.800000,-1.820000
49.386345,-0.040992,-0.254736,0.967704,-7.000000,-2.100000,-0.560000
49.394432,0.008784,-0.227408,0.945744,-10.080000,1.540000,-2.240000
49.402519,-0.076616,-0.269376,1.048712,-8.400000,-2.520000,-0.140000
49.410606,0.006832,-0.235216,0.938424,-9.380000,1.400000,-1.960000
49.418693,-0.097600,-0.292800,0.960872,-10.220000,2.100000,-2.100000
49.426780,0.014152,-0.248392,0.978928,-6.440000,-4.900000,0.840000
49.434868,-0.036600,-0.233264,0.957944,-10.640000,3.920000,-2.800000
49.442955,-0.076616,-0.310856,1.022848,-8.260000,-2.100000,-0.280000
49.451042,0.031232,-0.240584,0.937448,-7.140000,0.560000,-1.680000
49.459129,-0.114192,-0.270352,0.961848,-8.960000,2.520000,-2.380000
49.467216,0.043432,-0.277672,0.989664,-6.300000,-5.600000,1.400000
49.475303,-0.019032,-0.251320,0.969168,-8.820000,4.620000,-2.520000
49.483391,-0.139568,-0.295728,0.968192,-7.700000,-2.240000,-0.420000
49.491478,0.073688,-0.235216,0.955992,-7.140000,-0.980000,-1.120000
49.499565,-0.125904,-0.258640,0.999912,-9.940000,4.620000,-2.380000
49.507652,0.019520,-0.260104,0.988688,-7.560000,-7.420000,1.540000
49.515739,0.017568,-0.297192,0.929640,-9.380000,4.480000,-2.520000
49.523826,-0.189832,-0.268888,0.979904,-8.260000,0.140000,-0.280000
49.531914,0.092232,-0.259128,0.937448,-6.860000,-3.920000,-0.140000
49.540001,-0.035624,-0.302560,1.027240,-9.660000,4.340000,-2.520000
49.548088,-0.087352,-0.257176,0.942816,-7.420000,-4.480000,0.980000
49.556175,0.035624,-0.302072,0.942816,-7.980000,1.820000,-1.960000
49.564262,-0.134200,-0.300608,1.007720,-8.540000,2.800000,-1.680000
49.572349,0.043432,-0.226920,0.936472,-5.880000,-5.880000,1.120000
49.580437,0.002928,-0.304024,0.990152,-9.940000,3.640000,-2.380000
49.588524,-0.140056,-0.285968,1.009184,-7.980000,-0.840000,-0.420000
49.596611,0.049288,-0.277672,0.888160,-6.580000,-1.400000,-0.700000
49.604698,-0.076128,-0.338672,1.016992,-8.260000,3.500000,-2.100000
49.612785,-0.016104,-0.225944,0.953064,-6.020000,-5.320000,1.260000
49.620872,-0.006344,-0.328912,0.950624,-8.540000,4.060000,-1.960000
49.628959,-0.087352,-0.305488,0.987224,-6.440000,-1.260000,0.000000
49.637047,0.026352,-0.275720,0.901824,-3.640000,-1.260000,-0.420000
49.645134,-0.067832,-0.333304,1.021872,-5.740000,3.780000,-1.540000
49.653221,-0.023912,-0.235704,0.935984,-3.920000,-3.500000,0.840000
49.661308,0.034648,-0.333792,0.978928,-4.340000,1.680000,-0.840000
49.669395,-0.125904,-0.294264,0.994056,-4.760000,2.660000,-1.120000
49.677482,-0.020496,-0.226920,0.903776,-6.020000,-2.380000,0.840000
49.685570,0.047824,-0.350872,1.053592,-6.580000,1.400000,-0.840000
49.693657,-0.118096,-0.288408,0.939888,-4.060000,1.680000,-0.420000
49.701744,0.002928,-0.323056,0.852048,-3.220000,-1.400000,0.000000
49.709831,-0.015128,-0.361120,1.026264,-2.100000,2.240000,0.000000
49.717918,-0.065880,-0.244000,0.918904,-0.280000,-0.140000,-0.140000
49.726005,-0.009272,-0.344528,0.968192,-1.400000,-0.140000,-1.400000
49.734093,-0.061000,-0.294752,0.981368,1.260000,1.960000,-1.260000
49.742180,-0.050264,-0.271816,0.884256,-1.540000,0.840000,-0.140000
49.750267,0.029768,-0.304024,1.093608,-0.560000,-2.520000,-0.420000
49.758354,-0.059536,-0.313296,0.884256,0.280000,3.360000,-1.680000
49.766441,-0.047336,-0.327448,0.910120,-0.560000,0.280000,-0.560000
49.774528,-0.028792,-0.248880,1.049200,-0.420000,0.280000,-0.700000
49.782616,-0.014152,-0.300120,0.935008,-0.420000,-0.420000,-0.560000
49.790703,-0.027328,-0.324032,1.008696,0.560000,1.820000,-1.540000
49.798790,-0.088816,-0.288408,0.884744,-0.280000,1.680000,-0.560000
49.806877,0.015616,-0.310856,0.965752,-0.420000,-1.260000,-0.560000
49.814964,-0.013664,-0.271816,1.048712,0.840000,0.560000,-0.980000
49.823051,-0.081984,-0.334768,0.883768,1.120000,1.400000,-0.560000
49.831139,-0.008784,-0.301096,0.973072,1.400000,-0.420000,-0.560000
49.839226,-0.009760,-0.256200,0.994056,0.140000,0.140000,-0.280000
49.847313,-0.030256,-0.326472,0.943304,-0.140000,1.400000,-1.400000
49.855400,-0.067344,-0.316224,0.985272,1.400000,0.840000,-0.700000
49.863487,-0.050264,-0.290848,0.862784,1.960000,1.120000,-0.420000
49.871574,0.011712,-0.335744,1.031632,2.660000,-1.540000,-0.280000
49.879661,-0.029280,-0.296704,0.989664,5.460000,1.260000,-0.840000
49.887749,-0.054168,-0.328424,0.872056,5.320000,1.400000,-0.980000
49.895836,-0.020496,-0.282064,0.996496,4.760000,-0.980000,0.280000
49.903923,-0.050264,-0.246440,0.960872,3.780000,1.820000,-0.980000
49.912010,0.000488,-0.336720,1.005768,3.780000,-1.540000,-0.280000
49.920097,-0.044408,-0.277184,0.948672,5.600000,2.800000,-1.120000
49.928184,-0.088816,-0.311344,0.895968,3.360000,0.840000,-0.560000
49.936272,0.057584,-0.266936,1.077016,3.920000,-3.500000,0.280000
49.944359,-0.066368,-0.296216,0.913048,3.920000,4.200000,-1.260000
49.952446,-0.073200,-0.319152,0.915976,3.780000,-0.840000,0.140000
49.960533,0.002928,-0.259128,0.996984,3.360000,0.000000,-0.700000
49.968620,-0.030256,-0.309392,0.986736,2.520000,0.980000,-0.700000
49.976707,-0.010736,-0.299632,0.997472,4.480000,-0.140000,-0.560000
49.984795,-0.063928,-0.283040,0.897920,3.500000,2.380000,-1.120000
49.992882,-0.029768,-0.297680,1.003816,3.080000,-1.540000,0.280000
50.000969,-0.005856,-0.278648,0.965264,4.200000,1.540000,-0.840000
50.009056,-0.071736,-0.316224,0.958432,3.080000,1.540000,-0.980000
50.017143,-0.001952,-0.301096,0.941352,5.180000,-1.120000,-0.140000
50.025230,-0.041480,-0.263520,0.976976,3.360000,3.080000,-1.260000
50.033317,-0.057584,-0.293288,0.992104,2.520000,-1.680000,0.280000
50.041405,0.020984,-0.298168,0.950624,3.640000,1.820000,-1.400000
50.049492,-0.097112,-0.286944,0.941840,2.940000,2.380000,-0.700000
50.057579,0.014152,-0.297680,0.988688,4.060000,-2.660000,0.420000
50.065666,-0.042456,-0.265960,0.957456,3.220000,3.500000,-1.680000
50.073753,-0.052704,-0.298168,1.007720,3.640000,-0.980000,0.140000
50.081840,0.004392,-0.285480,0.933056,4.060000,1.540000,-1.120000
50.089928,-0.081496,-0.273280,0.952576,3.920000,0.840000,-0.280000
50.098015,0.007808,-0.327936,0.993080,2.380000,-0.980000,-0.700000
50.106102,-0.040504,-0.261080,0.964776,3.640000,3.220000,-1.680000
50.114189,-0.041968,-0.306464,0.949648,4.060000,-0.980000,0.420000
50.122276,-0.022936,-0.280112,0.935984,2.940000,1.540000,-1.260000
50.130363,-0.044408,-0.280600,1.037000,3.780000,0.280000,-0.420000
50.138451,-0.003904,-0.276696,0.944768,3.220000,0.420000,-0.700000
50.146538,-0.077592,-0.305976,0.930128,3.080000,2.660000,-1.260000
50.154625,-0.008784,-0.289872,0.985272,4.340000,-1.540000,0.420000
50.162712,-0.027816,-0.253760,0.943792,2.240000,1.820000,-1.260000
50.170799,-0.040992,-0.308416,1.037976,3.500000,-0.560000,-0.140000
50.178886,-0.026840,-0.237168,0.923784,2.240000,2.380000,-1.120000
50.186974,-0.077592,-0.324032,0.956968,1.960000,1.400000,-1.120000
50.195061,0.026840,-0.280600,0.993568,4.060000,-2.240000,0.560000
50.203148,-0.037088,-0.232776,0.964288,1.260000,3.080000,-1.540000
50.211235,-0.068320,-0.353800,0.979904,2.380000,-1.120000,0.280000
50.219322,0.002440,-0.241560,0.939400,3.080000,1.680000,-1.400000
50.227409,-0.065880,-0.296216,0.991128,2.380000,1.680000,-0.980000
50.235496,0.008296,-0.290848,0.970144,3.780000,-2.660000,0.980000
50.243584,-0.049288,-0.253760,0.963800,1.680000,3.360000,-1.680000
50.251671,-0.076128,-0.307440,0.971608,3.080000,-0.280000,-0.280000
50.259758,0.027816,-0.284992,0.940376,3.360000,0.280000,-0.700000
50.267845,-0.088328,-0.272792,0.976488,2.240000,2.380000,-1.260000
50.275932,0.021960,-0.283528,1.003328,3.920000,-3.080000,0.560000
50.284019,-0.048800,-0.273768,0.937936,0.980000,5.180000,-2.380000
50.292107,-0.070272,-0.299144,0.975024,3.360000,-2.240000,0.980000
50.300194,0.033184,-0.248880,0.943304,3.500000,1.680000,-0.700000
50.308281,-0.115168,-0.316224,0.999912,1.820000,2.240000,-0.840000
50.316368,0.018056,-0.264984,0.943304,4.340000,-3.080000,0.420000
50.324455,-0.021960,-0.294752,0.961360,1.960000,4.340000,-2.100000
50.332542,-0.107848,-0.286456,0.958432,4.340000,-1.120000,1.120000
50.340630,0.041968,-0.236192,0.945744,4.480000,0.420000,-0.560000
50.348717,-0.083936,-0.318664,1.032608,1.820000,3.220000,-1.400000
50.356804,-0.003904,-0.262056,0.947208,4.900000,-2.660000,0.840000
50.364891,-0.018056,-0.280112,0.949160,2.660000,3.640000,-2.240000
50.372978,-0.084912,-0.295240,1.018944,3.640000,-1.260000,0.700000
50.381065,0.024888,-0.200568,0.936960,3.780000,0.980000,-0.980000
50.389152,-0.084424,-0.359168,1.009184,1.400000,2.380000,-1.120000
50.397240,0.013176,-0.258640,0.957944,5.320000,-2.520000,0.840000
50.405327,-0.063440,-0.264008,0.899384,2.520000,4.340000,-2.100000
50.413414,-0.062464,-0.328912,1.010648,4.200000,-3.220000,1.400000
50.421501,0.044896,-0.166408,0.973072,4.480000,1.680000,-0.700000
50.429588,-0.136640,-0.340136,1.010160,1.260000,3.640000,-1.400000
50.437675,0.050264,-0.273280,0.936472,4.480000,-3.780000,0.840000
50.445763,-0.034160,-0.261568,0.938424,2.940000,3.780000,-1.540000
50.453850,-0.106384,-0.306464,1.002352,3.920000,-0.840000,0.700000
50.461937,0.052216,-0.230336,0.971608,3.640000,1.120000,-1.400000
50.470024,-0.100040,-0.317688,0.970144,3.640000,2.660000,-1.120000
50.478111,0.005368,-0.301096,0.931104,5.600000,-2.100000,0.700000
50.486198,-0.057584,-0.193248,0.990152,2.940000,3.920000,-1.960000
50.494286,-0.022448,-0.314272,1.025776,3.220000,-3.920000,1.120000
50.502373,-0.003416,-0.213744,0.934032,2.100000,3.780000,-1.820000
50.510460,-0.136152,-0.304512,0.959896,1.820000,2.380000,-1.260000
50.518547,0.079056,-0.289872,0.986248,3.640000,-3.500000,0.700000
50.526634,-0.078568,-0.222528,0.981368,1.400000,4.620000,-2.240000
50.534721,-0.046848,-0.319152,1.001864,2.660000,-3.640000,1.120000
50.542808,0.029768,-0.230336,0.918416,1.960000,3.780000,-1.960000
50.550896,-0.145912,-0.305488,1.003328,2.380000,0.700000,-0.140000
50.558983,0.062952,-0.244488,0.930616,3.360000,-2.240000,0.000000
50.567070,-0.063440,-0.256688,1.031632,-0.700000,4.340000,-1.960000
50.575157,-0.055632,-0.291824,0.954528,3.640000,-3.500000,1.400000
50.583244,-0.006832,-0.268888,0.900360,1.260000,4.760000,-2.380000
50.591331,-0.089792,-0.308416,1.024800,3.080000,-1.120000,0.700000
50.599419,0.031232,-0.199104,0.951112,3.920000,-0.420000,-0.560000
50.607506,-0.065880,-0.310856,1.029680,0.280000,2.940000,-1.820000
50.615593,-0.001464,-0.278160,0.950624,4.760000,-1.960000,0.980000
50.623680,-0.057096,-0.247904,0.893528,1.820000,3.780000,-1.960000
50.631767,-0.079544,-0.288896,1.059448,1.960000,-1.680000,0.420000
50.639854,0.056120,-0.214232,0.938912,2.660000,0.140000,-0.840000
50.647942,-0.105408,-0.326472,1.022360,0.280000,3.220000,-1.680000
50.656029,-0.017568,-0.255224,0.900848,4.340000,-3.220000,1.260000
50.664116,0.003904,-0.255712,0.971120,1.400000,3.220000,-2.240000
50.672203,-0.099552,-0.291824,1.047736,2.380000,-0.560000,0.700000
50.680290,0.040016,-0.205936,0.909144,2.940000,0.560000,-0.700000
50.688377,-0.099064,-0.338184,1.005280,0.840000,3.500000,-1.960000
50.696465,0.009272,-0.255224,0.954528,5.180000,-3.640000,1.400000
50.704552,-0.036600,-0.237656,0.920368,1.680000,3.780000,-1.820000
50.712639,-0.071248,-0.321592,1.053592,2.240000,-1.680000,0.420000
50.720726,0.013176,-0.201544,0.927200,3.780000,2.100000,-1.120000
50.728813,-0.104432,-0.305976,1.000400,1.260000,2.240000,-1.400000
50.736900,0.037088,-0.248392,0.964776,3.360000,-3.920000,1.680000
50.744987,-0.023912,-0.242536,0.956968,0.980000,3.780000,-2.100000
50.753075,-0.109312,-0.318176,1.029192,1.680000,-0.700000,0.560000
50.761162,0.007808,-0.189832,0.894504,3.360000,1.120000,-0.980000
50.769249,-0.060024,-0.313784,1.020896,-0.280000,2.240000,-1.540000
50.777336,0.017568,-0.248880,1.001864,3.080000,-4.060000,1.540000
50.785423,-0.058072,-0.266936,0.906704,0.280000,5.880000,-2.240000
50.793510,-0.118584,-0.308416,0.969656,2.240000,-1.400000,0.280000
50.801598,0.071736,-0.210328,0.986248,2.800000,-0.980000,-0.560000
50.809685,-0.088328,-0.275232,1.026752,0.000000,3.080000,-1.680000
50.817772,0.004880,-0.286456,0.968680,2.940000,-3.220000,1.540000
50.825859,-0.043432,-0.245952,0.872056,0.560000,5.600000,-2.380000
50.833946,-0.105408,-0.297680,1.044808,2.380000,-3.080000,0.980000
50.842033,0.077592,-0.194712,0.958920,2.660000,-0.140000,-0.420000
50.850121,-0.101504,-0.304024,1.006744,-1.260000,4.340000,-1.680000
50.858208,-0.018056,-0.299144,0.924272,3.500000,-3.780000,0.980000
50.866295,-0.025376,-0.232288,0.954528,2.380000,3.500000,-1.680000
50.874382,-0.089792,-0.281088,1.006256,1.960000,-0.280000,-0.140000
50.882469,0.063928,-0.260104,0.979416,2.940000,-0.280000,-0.560000
50.890556,-0.100528,-0.256200,0.987224,2.240000,2.660000,-1.540000
50.898643,-0.012200,-0.292800,0.934520,2.800000,-1.820000,0.840000
50.906731,-0.027328,-0.222040,0.968192,2.240000,4.060000,-1.820000
50.914818,-0.076616,-0.275720,1.032120,2.100000,-2.940000,0.980000
50.922905,0.014152,-0.262544,0.929640,2.100000,1.960000,-1.260000
50.930992,-0.120048,-0.253760,0.983808,2.240000,3.500000,-1.540000
50.939079,0.047336,-0.288408,0.979904,3.920000,-5.040000,1.400000
50.947166,-0.015616,-0.233264,0.975512,0.840000,4.340000,-2.240000
50.955254,-0.120048,-0.283528,0.979416,2.520000,-0.980000,0.700000
50.963341,0.044408,-0.247904,0.924760,2.520000,0.700000,-0.840000
50.971428,-0.109800,-0.263520,1.035536,0.840000,3.220000,-1.820000
50.979515,0.024888,-0.273280,0.948184,3.220000,-4.340000,1.120000
50.987602,-0.031232,-0.249368,0.957456,0.140000,4.620000,-2.380000
50.995689,-0.103456,-0.273280,0.998936,2.660000,-0.980000,0.420000
51.003777,0.043920,-0.229360,0.951600,1.680000,0.420000,-0.560000
51.011864,-0.094672,-0.300608,0.992104,1.400000,2.240000,-0.980000
51.019951,0.010248,-0.250832,0.986248,3.780000,-2.660000,0.000000
51.028038,-0.025864,-0.261080,0.952576,0.420000,4.200000,-2.240000
51.036125,-0.116632,-0.275720,0.956968,4.060000,-1.260000,1.260000
51.044212,0.052704,-0.235704,0.955016,2.380000,0.840000,-1.120000
51.052300,-0.072224,-0.280600,1.067256,1.400000,1.540000,-0.840000
51.060387,-0.029280,-0.254736,0.922808,4.060000,-1.960000,0.140000
51.068474,-0.031232,-0.258640,0.943304,0.560000,4.340000,-2.380000
51.076561,-0.079544,-0.261568,0.978928,3.360000,-2.520000,1.400000
51.084648,0.045384,-0.234728,1.005280,2.660000,0.420000,-0.840000
51.092735,-0.110288,-0.300608,1.020896,0.560000,4.200000,-1.820000
51.100823,0.011712,-0.242048,0.903776,4.760000,-3.220000,0.980000
51.108910,-0.037576,-0.250832,0.945256,-0.140000,3.640000,-1.820000
51.116997,-0.077592,-0.238632,1.076040,2.100000,-2.380000,0.700000
51.125084,0.032696,-0.248880,0.924760,1.120000,2.240000,-1.400000
51.133171,-0.128344,-0.329400,0.988688,1.400000,2.800000,-0.980000
51.141258,0.037576,-0.228384,0.921344,4.200000,-3.220000,0.280000
51.149345,-0.023424,-0.232776,1.030168,0.840000,2.800000,-1.680000
51.157433,-0.079544,-0.267912,0.996008,1.820000,-1.400000,0.700000
51.165520,0.002928,-0.246928,0.897432,1.540000,2.520000,-1.820000
51.173607,-0.080032,-0.305976,1.022848,0.560000,1.820000,-0.840000
51.181694,0.005368,-0.219112,0.974048,3.080000,-2.660000,0.560000
51.189781,-0.037576,-0.257664,0.976976,-0.280000,3.360000,-2.100000
51.197868,-0.074664,-0.267424,0.974536,1.680000,-0.700000,0.420000
51.205956,0.018544,-0.228384,0.955504,0.980000,0.420000,-1.260000
51.214043,-0.081008,-0.281576,1.023336,-0.140000,0.840000,-0.700000
51.222130,0.017568,-0.218136,0.967216,1.820000,-1.400000,0.280000
51.230217,-0.074176,-0.283528,0.932568,-1.540000,4.760000,-2.520000
51.238304,-0.033672,-0.279136,1.013576,1.680000,-3.920000,1.260000
51.246391,0.006832,-0.210328,0.935496,0.980000,2.380000,-0.840000
51.254479,-0.120536,-0.298168,1.014552,-0.420000,2.100000,-0.980000
51.262566,0.022936,-0.246928,0.946720,2.100000,-2.660000,0.280000
51.270653,-0.032208,-0.255712,0.945256,0.280000,3.780000,-1.820000
51.278740,-0.092232,-0.269376,1.026752,1.120000,-1.820000,0.560000
51.286827,0.039040,-0.198128,0.952088,1.260000,0.420000,-0.700000
51.294914,-0.094184,-0.321104,0.988688,-1.540000,3.640000,-2.100000
51.303002,-0.010248,-0.251320,0.950136,3.080000,-3.780000,1.400000
51.311089,-0.027328,-0.242048,0.943304,-0.560000,2.940000,-1.680000
51.319176,-0.079056,-0.277184,1.050664,0.280000,-1.120000,-0.140000
51.327263,0.020496,-0.229360,0.945744,1.540000,0.980000,-0.420000
51.335350,-0.088816,-0.304512,0.951600,0.000000,3.080000,-1.540000
51.343437,0.016592,-0.237168,0.973560,2.240000,-3.220000,0.840000
51.351524,-0.022936,-0.243512,0.990640,-0.140000,3.080000,-1.820000
51.359612,-0.109312,-0.273280,0.993080,0.420000,-0.840000,0.000000
51.367699,0.029280,-0.225944,0.938424,1.400000,0.280000,-0.280000
51.375786,-0.069296,-0.268888,0.984784,-1.400000,2.660000,-1.400000
51.383873,-0.015128,-0.249368,1.038464,0.140000,-3.920000,0.980000
51.391960,-0.024400,-0.253760,0.921832,-0.700000,3.640000,-1.260000
51.400047,-0.091256,-0.312808,0.970144,-0.280000,0.560000,-0.560000
51.408135,0.028792,-0.226920,0.954040,1.820000,-1.540000,0.000000
51.416222,-0.055632,-0.245464,0.996008,-0.700000,2.380000,-1.540000
51.424309,-0.031720,-0.277672,1.000888,-0.560000,-1.540000,0.420000
51.432396,-0.039040,-0.251320,0.916464,0.560000,2.940000,-1.120000
51.440483,-0.077592,-0.284016,0.980392,0.280000,0.140000,-0.700000
51.448570,0.029768,-0.232288,1.026752,0.840000,-2.660000,0.280000
51.456658,-0.053192,-0.253760,0.955504,-0.980000,3.640000,-1.680000
51.464745,-0.055632,-0.287432,0.950624,-0.420000,-0.840000,0.140000
51.472832,-0.001952,-0.220576,0.976000,-0.560000,0.420000,-0.840000
51.480919,-0.079056,-0.263520,1.021384,-1.960000,0.980000,-1.540000
51.489006,0.006832,-0.265960,0.965752,-0.700000,-1.820000,0.840000
51.497093,-0.039040,-0.262056,0.937936,-0.700000,3.360000,-1.540000
51.505181,-0.095160,-0.277672,0.987224,-0.980000,-0.280000,-0.420000
51.513268,0.042456,-0.235216,0.983808,-0.420000,-2.240000,-0.280000
51.521355,-0.074176,-0.243024,0.973072,-2.660000,4.200000,-1.820000
51.529442,-0.033672,-0.313784,0.966240,-0.700000,-2.520000,0.560000
51.537529,0.001464,-0.235216,0.956480,-0.140000,1.400000,-1.120000
51.545616,-0.102480,-0.260592,0.994544,-1.960000,1.260000,-0.840000
51.553704,0.051728,-0.275720,0.991616,-0.700000,-2.520000,0.140000
51.561791,-0.071736,-0.266936,0.929152,-1.540000,4.200000,-1.960000
51.569878,-0.069784,-0.279624,0.989176,0.280000,-2.660000,0.560000
51.577965,0.038064,-0.203984,0.975512,-0.840000,0.980000,-0.560000
51.586052,-0.122976,-0.275232,0.999424,-2.380000,2.100000,-1.400000
51.594139,0.036112,-0.285480,0.965752,-0.140000,-2.800000,0.700000
51.602226,-0.052216,-0.275232,0.948184,-1.400000,4.200000,-1.540000
51.610314,-0.090280,-0.249856,0.958920,0.140000,-2.520000,0.560000
51.618401,0.082960,-0.242536,1.004304,-1.400000,-0.700000,-0.420000
51.626488,-0.132248,-0.290848,1.010648,-2.520000,4.620000,-1.680000
51.634575,-0.027816,-0.261568,0.912560,0.140000,-3.780000,0.840000
51.642662,0.024888,-0.248880,0.997472,-1.680000,1.680000,-1.120000
51.650749,-0.103944,-0.249368,1.003328,-3.220000,0.420000,-0.700000
51.658837,0.015128,-0.275232,0.957456,-2.240000,-0.840000,-0.280000
51.666924,-0.067832,-0.295728,0.957944,-2.800000,3.220000,-1.820000
51.675011,-0.033672,-0.245464,0.948672,-2.100000,-2.660000,0.700000
51.683098,0.025864,-0.264496,1.016016,-3.080000,0.980000,-1.260000
51.691185,-0.114192,-0.266936,0.964288,-3.640000,1.820000,-0.980000
51.699272,0.019520,-0.279136,0.928664,-1.820000,-2.100000,-0.140000
51.707360,-0.039528,-0.262544,1.006256,-3.500000,2.800000,-1.400000
51.715447,-0.053192,-0.253272,0.996496,-2.800000,-3.500000,0.560000
51.723534,0.012688,-0.282552,0.958920,-3.080000,1.960000,-1.400000
51.731621,-0.118584,-0.273768,0.971608,-3.220000,3.080000,-1.120000
51.739708,0.018056,-0.276696,0.950136,-1.680000,-4.200000,0.280000
51.747795,0.000488,-0.286456,0.976976,-2.520000,2.380000,-1.540000
51.755883,-0.091744,-0.246928,0.986248,-2.520000,-0.420000,0.280000
51.763970,-0.005856,-0.298168,0.935008,-1.680000,0.420000,-1.400000
51.772057,-0.054168,-0.284504,0.971120,-2.100000,2.240000,-1.400000
51.780144,-0.018056,-0.238632,0.981856,-1.540000,-3.500000,0.840000
51.788231,-0.014640,-0.286456,0.978440,-2.940000,2.940000,-1.960000
51.796318,-0.095160,-0.263032,0.983320,-2.380000,0.280000,-0.840000
51.804405,0.025864,-0.269376,0.943304,-1.960000,-1.540000,-0.140000
51.812493,-0.056120,-0.283528,0.982832,-3.780000,2.380000,-1.680000
51.820580,-0.027328,-0.262544,0.996496,-2.240000,-2.100000,0.140000
51.828667,-0.009272,-0.301584,0.944280,-3.360000,2.380000,-1.540000
51.836754,-0.104432,-0.281088,0.996496,-1.680000,0.140000,-0.560000
51.844841,0.032696,-0.232288,0.918904,-2.100000,-2.240000,-0.140000
51.852928,-0.030256,-0.306952,1.023824,-5.040000,2.800000,-1.820000
51.861016,-0.075152,-0.273768,0.943792,-2.800000,-1.120000,0.140000
51.869103,0.007320,-0.281088,0.933544,-2.660000,0.560000,-0.980000
51.877190,-0.092720,-0.303048,0.983808,-3.360000,1.400000,-0.840000
51.885277,0.021472,-0.242536,0.986736,-1.680000,-3.220000,0.140000
51.893364,-0.034648,-0.296216,0.977464,-3.780000,3.780000,-1.820000
51.901451,-0.086376,-0.285968,0.952088,-1.960000,-1.400000,0.280000
51.909539,0.021960,-0.258152,0.950136,-2.380000,-0.140000,-0.840000
51.917626,-0.083448,-0.307440,1.013088,-3.780000,2.100000,-1.120000
51.925713,0.014640,-0.258152,0.954040,-1.820000,-3.360000,0.560000
51.933800,-0.017568,-0.295728,0.954528,-3.640000,3.220000,-1.680000
51.941887,-0.114192,-0.296216,0.962824,-2.800000,-0.280000,0.140000
51.949974,0.041480,-0.251320,0.987712,-2.380000,-2.240000,-0.280000
51.958062,-0.046360,-0.314272,0.960872,-4.200000,3.360000,-1.680000
51.966149,-0.058072,-0.301096,0.955992,-2.240000,-1.960000,0.840000
51.974236,0.008784,-0.278648,0.941840,-1.400000,0.840000,-1.120000
51.982323,-0.092720,-0.291824,0.978928,-2.800000,2.240000,-1.120000
51.990410,0.036112,-0.283528,0.997960,-0.280000,-4.900000,0.980000
51.998497,-0.033184,-0.281088,0.933056,-2.240000,5.040000,-1.820000
52.006584,-0.101992,-0.298656,0.963800,-1.260000,-0.980000,0.280000
52.014672,0.028792,-0.306952,0.968680,0.000000,-0.560000,-0.280000
52.022759,-0.045872,-0.281576,0.956968,0.280000,2.100000,-0.980000
52.030846,-0.028792,-0.285480,0.966728,-0.140000,-1.540000,0.420000
52.038933,-0.042944,-0.277184,0.979416,-0.140000,2.240000,-1.120000
52.047020,-0.053192,-0.299144,0.952576,-0.420000,0.140000,-0.840000
52.055107,-0.007320,-0.281088,0.971120,-0.700000,-1.260000,0.000000
52.063195,-0.042944,-0.268400,0.951112,-1.260000,2.520000,-0.980000
52.071282,-0.030744,-0.313784,1.000400,-0.700000,-1.120000,-0.140000
52.079369,-0.016592,-0.285968,0.962336,-0.420000,0.980000,-0.980000
52.087456,-0.058560,-0.286944,0.920856,0.000000,1.400000,-1.120000
52.095543,-0.005368,-0.309880,1.014552,0.280000,-1.820000,0.140000
52.103630,-0.034160,-0.253272,0.951600,0.560000,2.380000,-0.980000
52.111718,-0.057096,-0.329400,0.956480,0.840000,0.560000,-0.700000
52.119805,0.002440,-0.263032,0.989176,1.260000,-1.120000,0.000000
52.127892,-0.049776,-0.270840,0.942328,-0.140000,1.960000,-0.980000
52.135979,-0.037576,-0.328424,0.983808,-0.140000,-0.140000,-0.280000
52.144066,-0.019032,-0.275232,0.952088,0.840000,0.980000,-0.560000
52.152153,-0.041480,-0.292800,0.951112,1.120000,0.420000,-0.560000
52.160241,-0.021472,-0.306464,0.988200,0.700000,0.140000,-0.420000
52.168328,-0.050752,-0.265960,0.983808,0.560000,0.700000,-0.700000
52.176415,-0.018544,-0.306952,0.927200,1.680000,0.420000,-0.980000
52.184502,-0.020496,-0.288896,0.996496,0.980000,0.980000,-0.700000
52.192589,-0.064416,-0.284504,0.943792,1.400000,0.420000,-0.560000
52.200676,-0.008784,-0.287920,0.953552,1.400000,0.000000,-0.840000
52.208763,-0.016104,-0.289872,1.024312,0.560000,1.540000,-0.840000
52.216851,-0.059048,-0.287432,0.903776,1.400000,0.140000,-0.560000
52.224938,-0.020984,-0.292312,0.998448,0.700000,0.420000,-0.700000
52.233025,-0.024888,-0.249368,0.972584,0.280000,0.420000,-0.420000
52.241112,-0.049288,-0.336232,0.937448,0.560000,1.260000,-0.980000
52.249199,-0.013664,-0.280600,0.978928,1.400000,-0.140000,-0.840000
52.257286,-0.045384,-0.274256,0.948672,0.000000,0.980000,-0.700000
52.265374,-0.042456,-0.308904,0.955504,0.560000,0.280000,-0.700000
52.273461,-0.025864,-0.273768,1.003816,0.140000,1.120000,-0.980000
52.281548,-0.047824,-0.290360,0.941352,0.980000,-0.280000,-0.280000
52.289635,-0.012200,-0.299144,0.968192,0.560000,0.700000,-0.700000
52.297722,-0.053192,-0.269376,0.983320,0.280000,0.700000,-0.700000
52.305809,-0.015616,-0.322080,0.961848,0.980000,0.000000,-0.840000
52.313897,-0.022448,-0.295240,0.952576,1.540000,1.400000,-1.120000
52.321984,-0.063440,-0.259616,0.965752,1.400000,0.420000,-0.420000
52.330071,0.000000,-0.281576,0.958432,0.280000,0.000000,-0.420000
52.338158,-0.045384,-0.294264,1.018944,0.840000,0.980000,-0.420000
52.346245,-0.020984,-0.292312,0.927200,0.700000,-0.140000,-0.140000
52.354332,-0.032696,-0.293776,0.983808,0.840000,1.120000,-0.980000
52.362419,-0.041480,-0.265960,0.973560,0.140000,-0.420000,-0.280000
52.370507,-0.015616,-0.318176,0.936960,-0.700000,1.400000,-0.700000
52.378594,-0.044408,-0.284992,0.986736,0.840000,0.840000,-0.280000
52.386681,-0.023912,-0.284016,0.936960,0.980000,-1.680000,0.140000
52.394768,-0.025864,-0.297192,0.957944,0.140000,1.820000,-0.700000
52.402855,-0.072712,-0.260592,1.009672,0.700000,0.560000,-0.140000
52.410942,-0.009760,-0.309392,0.949648,1.120000,-0.980000,-0.140000
52.419030,-0.015616,-0.271816,1.002352,0.560000,1.400000,-0.700000
52.427117,-0.071736,-0.304024,0.907680,-0.700000,0.280000,-0.280000
52.435204,0.013664,-0.306952,0.986736,-0.280000,0.280000,-0.840000
52.443291,-0.062952,-0.275720,0.966240,0.280000,1.680000,-0.700000
52.451378,-0.034648,-0.284016,0.951600,0.140000,-0.980000,-0.420000
52.459465,0.019032,-0.289384,0.998448,0.560000,0.280000,-0.420000
52.467553,-0.064904,-0.287920,0.974536,-0.420000,1.400000,-0.560000
52.475640,-0.054168,-0.301096,0.933544,-0.140000,-0.140000,-0.420000
52.483727,-0.007320,-0.264008,0.997472,-0.560000,0.280000,-0.700000
52.491814,-0.059048,-0.294752,0.938912,-1.820000,1.400000,-0.840000
52.499901,0.007808,-0.324520,0.996008,-0.420000,-0.980000,-0.700000
52.507988,-0.046360,-0.285968,0.922808,0.560000,1.960000,-0.700000
52.516076,-0.046360,-0.290360,0.965752,-0.280000,-0.700000,0.000000
52.524163,-0.020496,-0.260104,0.986736,-0.420000,1.260000,-0.980000
52.532250,-0.031232,-0.331352,0.944280,-0.560000,0.560000,-0.840000
52.540337,-0.023912,-0.291824,0.977952,0.840000,-0.980000,-0.140000
52.548424,-0.037088,-0.273280,0.961360,0.140000,1.960000,-0.280000
52.556511,-0.031720,-0.293288,0.987224,-0.980000,-1.540000,0.140000
52.564598,-0.024400,-0.290360,0.959896,1.120000,2.240000,-0.980000
52.572686,-0.061000,-0.313296,0.879864,0.560000,1.400000,0.280000
52.580773,-0.010736,-0.277184,1.054568,0.140000,-1.820000,0.280000
52.588860,-0.033672,-0.282064,0.948184,1.260000,0.980000,-0.140000
52.596947,-0.011224,-0.326472,0.955504,0.000000,0.560000,0.280000
52.605034,-0.088816,-0.243024,0.931104,0.840000,0.840000,0.280000
52.613121,0.030744,-0.326960,0.972584,-0.140000,-2.100000,0.700000
52.621209,-0.012200,-0.273768,1.051152,-0.140000,2.380000,-0.840000
52.629296,-0.114192,-0.318664,0.838384,0.420000,0.700000,0.420000
52.637383,0.015128,-0.276208,1.049688,0.280000,-1.960000,0.000000
52.645470,-0.053680,-0.271328,0.964288,-0.280000,2.100000,-0.560000
52.653557,-0.011224,-0.337696,0.942816,0.140000,-0.280000,0.000000
52.661644,-0.079544,-0.275720,0.935984,0.420000,2.240000,-0.840000
52.669732,0.005368,-0.300608,0.967216,-1.260000,-2.660000,0.000000
52.677819,0.027816,-0.274256,1.081896,0.000000,1.260000,-1.260000
52.685906,-0.150792,-0.316712,0.840824,0.000000,3.780000,-0.840000
52.693993,0.022936,-0.278160,0.982832,-0.280000,-2.940000,0.140000
52.702080,-0.017568,-0.266936,0.996008,-1.260000,2.940000,-0.980000
52.710167,-0.037088,-0.328912,0.963800,-0.700000,-0.980000,-0.420000
52.718255,-0.027328,-0.295240,0.964776,-0.280000,1.120000,-0.980000
52.726342,-0.073688,-0.299632,0.899384,-1.540000,1.960000,-0.560000
52.734429,0.021472,-0.267912,1.066280,-0.700000,-2.800000,0.000000
52.742516,-0.061488,-0.307440,0.914024,-0.140000,3.500000,-1.400000
52.750603,-0.020008,-0.317688,0.919880,-0.140000,-0.420000,-0.140000
52.758690,-0.042944,-0.246928,1.034072,-1.260000,1.120000,-0.420000
52.766777,-0.009272,-0.315736,0.951112,-1.260000,-1.260000,-0.560000
52.774865,-0.016592,-0.325496,0.997472,0.000000,1.820000,-1.260000
52.782952,-0.121024,-0.281576,0.853024,-0.420000,2.800000,-0.840000
52.791039,0.043432,-0.297680,1.007232,-1.540000,-3.640000,0.000000
52.799126,-0.015128,-0.287432,1.062376,0.140000,2.240000,-1.260000
52.807213,-0.087840,-0.312808,0.858880,0.000000,2.520000,-0.700000
52.815300,-0.009272,-0.300608,0.984784,-0.420000,-1.680000,0.000000
52.823388,-0.035624,-0.274744,0.952088,-0.700000,0.980000,-0.560000
52.831475,-0.008296,-0.315736,0.996496,-0.980000,0.140000,-0.980000
52.839562,-0.065392,-0.310856,0.958432,0.700000,2.100000,-0.980000
52.847649,-0.047336,-0.297192,0.868152,0.000000,0.000000,-0.280000
52.855736,0.026840,-0.280112,1.066768,-0.280000,-1.680000,-0.420000
52.863823,-0.053680,-0.293776,0.939400,0.700000,2.660000,-1.260000
52.871911,-0.049776,-0.329400,0.933544,-0.420000,0.700000,-0.420000
52.879998,-0.036112,-0.255224,0.989664,0.560000,-0.280000,0.140000
52.888085,-0.014640,-0.299632,0.967216,-1.120000,-0.280000,-0.420000
52.896172,-0.012200,-0.338184,1.005280,0.140000,1.120000,-1.260000
52.904259,-0.083936,-0.294264,0.854976,0.980000,2.100000,-0.560000
52.912346,0.001464,-0.298656,0.989176,-0.280000,-2.100000,0.280000
52.920434,-0.034648,-0.263032,1.045296,0.560000,1.820000,-0.980000
52.928521,-0.048312,-0.330376,0.895480,0.000000,0.980000,-0.700000
52.936608,-0.020496,-0.294752,0.967704,0.140000,0.280000,-0.420000
52.944695,-0.058072,-0.276208,0.942328,-0.560000,0.280000,0.000000
52.952782,0.039040,-0.325008,1.033584,-0.420000,-1.820000,-0.420000
52.960869,-0.097600,-0.296704,0.931104,0.700000,4.900000,-1.820000
52.968956,-0.059536,-0.311832,0.874984,-0.700000,-1.260000,0.140000
52.977044,0.062952,-0.269864,1.088728,-0.140000,-1.400000,-0.420000
52.985131,-0.081496,-0.323544,0.899872,0.140000,3.220000,-1.120000
52.993218,-0.027816,-0.313784,0.961848,0.840000,-0.840000,0.000000
53.001305,-0.070272,-0.268400,0.963800,0.420000,1.680000,-0.700000
53.009392,0.002928,-0.284016,0.967216,-1.400000,-1.540000,-0.420000
53.017479,0.008784,-0.325496,1.016992,0.000000,0.840000,-0.980000
53.025567,-0.109312,-0.322568,0.856440,1.120000,3.080000,-0.840000
53.033654,-0.000976,-0.274256,1.000400,-0.560000,-2.520000,0.000000
53.041741,0.001952,-0.282552,1.019432,-0.700000,1.680000,-0.980000
53.049828,-0.070272,-0.341112,0.908656,0.140000,1.400000,-0.840000
53.057915,-0.038552,-0.292312,0.973072,0.280000,0.140000,-0.980000
53.066002,-0.021472,-0.279624,0.941352,-0.840000,0.280000,-0.560000
53.074090,-0.010248,-0.293288,1.044808,-0.560000,-0.700000,-0.560000
53.082177,-0.061976,-0.313296,0.944280,0.000000,2.660000,-1.260000
53.090264,-0.037576,-0.336232,0.856440,0.140000,0.140000,-0.420000
53.098351,0.011712,-0.266448,1.068720,0.000000,-0.700000,-0.280000
53.106438,-0.068808,-0.321592,0.896944,0.140000,2.520000,-1.540000
53.114525,-0.016592,-0.318176,1.002352,0.980000,-1.120000,-0.280000
53.122612,-0.059536,-0.288896,0.919392,1.260000,3.360000,-1.260000
53.130700,-0.033672,-0.293776,0.943792,-0.560000,-2.800000,0.280000
53.138787,0.057096,-0.302560,1.058472,1.820000,-0.420000,-0.700000
53.146874,-0.141520,-0.309880,0.870104,0.560000,5.880000,-1.820000
53.154961,-0.015616,-0.286456,0.982344,0.000000,-4.340000,1.120000
53.163048,0.047824,-0.286456,0.992104,0.280000,1.400000,-0.420000
53.171135,-0.096136,-0.329400,0.963312,-0.140000,2.100000,-0.980000
53.179223,-0.036600,-0.317688,0.919880,1.120000,-1.400000,-0.420000
53.187310,-0.026840,-0.301096,0.952088,0.560000,2.800000,-0.700000
53.195397,-0.007320,-0.270352,1.010160,1.400000,-3.640000,0.420000
53.203484,-0.007808,-0.314272,0.976976,1.260000,2.520000,-1.260000
53.211571,-0.099064,-0.343552,0.866200,1.400000,2.660000,-0.700000
53.219658,0.000488,-0.237656,1.031632,0.840000,-2.940000,0.560000
53.227746,-0.018056,-0.332328,0.961360,0.420000,1.960000,-0.840000
53.235833,-0.039528,-0.303048,0.993568,1.540000,0.280000,-0.700000
53.243920,-0.068808,-0.307928,0.858392,0.560000,2.380000,-0.840000
53.252007,0.008784,-0.316224,0.996008,0.840000,-2.100000,-0.140000
53.260094,-0.022936,-0.284992,1.032120,1.680000,0.980000,-0.840000
53.268181,-0.062952,-0.332328,0.883768,1.820000,2.100000,-1.260000
53.276268,-0.040504,-0.268888,1.011624,1.120000,-0.840000,0.140000
53.284356,-0.016592,-0.288408,0.925736,0.700000,0.280000,-0.420000
53.292443,0.005368,-0.332328,1.033584,1.540000,-0.140000,-1.120000
53.300530,-0.072712,-0.299632,0.920368,2.240000,2.380000,-0.700000
53.308617,-0.041480,-0.308416,0.897432,1.400000,0.560000,-0.560000
53.316704,0.011712,-0.267912,1.054568,0.700000,-2.240000,0.000000
53.324791,-0.033184,-0.318176,0.939888,1.400000,2.800000,-1.400000
53.332879,-0.062464,-0.340624,0.921344,1.680000,0.840000,-0.560000
53.340966,-0.041480,-0.242536,0.983808,1.680000,-0.700000,0.000000
53.349053,0.006832,-0.322080,0.972096,1.260000,0.280000,-0.840000
53.357140,-0.051728,-0.303536,1.038952,1.820000,1.400000,-1.120000
53.365227,-0.078080,-0.305976,0.800320,1.540000,1.960000,-0.560000
53.373314,0.022448,-0.303536,1.022360,-0.280000,-1.960000,0.140000
53.381402,-0.031720,-0.273280,1.023824,1.400000,0.560000,-0.700000
53.389489,-0.053680,-0.342576,0.897920,1.540000,2.100000,-1.120000
53.397576,-0.040016,-0.298656,0.976488,1.260000,0.000000,-0.280000
53.405663,-0.032208,-0.275720,0.925736,1.120000,0.840000,-0.700000
53.413750,-0.003904,-0.312808,1.042368,0.420000,-0.700000,-0.700000
53.421837,-0.045872,-0.290848,0.950624,2.240000,1.540000,-0.840000
53.429925,-0.067344,-0.329400,0.864736,0.840000,2.100000,-0.840000
53.438012,0.003416,-0.276696,1.056032,0.840000,-2.520000,0.140000
53.446099,-0.010736,-0.303536,0.929640,2.100000,1.680000,-1.120000
53.454186,-0.049776,-0.330864,0.968680,1.400000,1.540000,-0.980000
53.462273,-0.065880,-0.269864,0.943792,1.540000,0.140000,-0.420000
53.470360,0.013664,-0.293288,0.972096,0.420000,-0.560000,-0.560000
53.478447,-0.005856,-0.303048,1.043344,1.540000,0.420000,-0.980000
53.486535,-0.095648,-0.323544,0.874008,1.680000,3.500000,-1.120000
53.494622,-0.039040,-0.297680,0.921344,1.260000,-0.700000,-0.560000
53.502709,0.020008,-0.265472,1.057008,0.980000,-1.820000,0.140000
53.510796,-0.040016,-0.317200,0.931592,1.680000,3.080000,-1.540000
53.518883,-0.074176,-0.318664,0.945744,0.980000,-0.140000,-0.420000
53.526970,-0.014152,-0.289384,0.953552,1.400000,0.560000,-0.700000
53.535058,-0.030744,-0.282552,0.988688,-0.140000,0.280000,-0.560000
53.543145,0.018056,-0.324520,1.012600,1.960000,-0.700000,-0.420000
53.551232,-0.090280,-0.309880,0.846680,1.820000,4.200000,-1.260000
53.559319,-0.041968,-0.291336,1.007232,1.260000,-2.380000,0.560000
53.567406,0.003904,-0.266448,0.988200,1.400000,0.700000,-0.980000
53.575493,-0.038064,-0.347456,0.955016,1.120000,1.680000,-1.260000
53.583581,-0.032208,-0.305488,0.942816,2.240000,0.280000,-0.280000
53.591668,-0.058072,-0.270840,0.927200,0.980000,1.400000,-1.120000
53.599755,0.027816,-0.291336,1.057984,1.400000,-3.500000,0.140000
53.607842,-0.060024,-0.302072,0.937936,1.820000,5.180000,-1.680000
53.615929,-0.099552,-0.328912,0.868640,1.120000,0.980000,-0.700000
53.624016,0.064416,-0.265472,1.078480,1.540000,-4.060000,0.420000
53.632103,-0.043432,-0.295728,0.948672,1.260000,4.060000,-1.820000
53.640191,-0.073688,-0.329400,0.952088,2.100000,-0.840000,0.140000
53.648278,-0.025864,-0.305488,0.912560,2.100000,1.400000,-0.980000
53.656365,-0.017568,-0.284992,0.967216,1.120000,-0.280000,-0.420000
53.664452,0.003416,-0.303536,1.045784,2.660000,-0.980000,-0.140000
53.672539,-0.095160,-0.319640,0.863272,2.800000,4.620000,-1.680000
53.680626,-0.016104,-0.260104,1.015040,1.960000,-3.920000,0.840000
53.688714,0.008296,-0.279624,1.003816,1.820000,2.380000,-1.260000
53.696801,-0.101016,-0.349408,0.911584,1.400000,1.540000,-0.840000
53.704888,0.003416,-0.275232,0.962824,3.220000,-1.540000,-0.140000
53.712975,-0.045872,-0.283528,0.925736,-0.140000,3.500000,-1.260000
53.721062,0.019520,-0.314760,1.056520,1.820000,-4.200000,0.420000
53.729149,-0.067344,-0.310856,0.890112,2.520000,4.340000,-1.540000
53.737237,-0.077104,-0.309392,0.917440,1.400000,0.420000,-0.140000
53.745324,0.032696,-0.252784,1.047248,2.660000,-2.940000,0.280000
53.753411,-0.038552,-0.349408,0.936472,2.240000,4.200000,-2.100000
53.761498,-0.054168,-0.296704,0.940376,2.940000,-1.120000,0.140000
53.769585,-0.023912,-0.258152,0.952088,1.960000,0.560000,-0.560000
53.777672,-0.023912,-0.297192,1.044320,1.540000,-1.120000,-0.420000
53.785760,-0.031720,-0.304512,0.959896,2.800000,2.660000,-0.840000
53.793847,-0.062464,-0.324032,0.841800,1.680000,2.380000,-1.260000
53.801934,0.014640,-0.238144,1.087264,1.820000,-4.060000,0.560000
53.810021,-0.020008,-0.323056,0.933544,1.960000,1.820000,-0.700000
53.818108,-0.090768,-0.305488,0.981368,2.380000,3.080000,-1.260000
53.826195,-0.038552,-0.272304,0.882792,1.540000,-1.540000,0.280000
53.834282,0.056120,-0.316224,1.060912,0.280000,-0.700000,-0.980000
53.842370,-0.118584,-0.267912,0.968680,2.660000,3.220000,-0.840000
53.850457,-0.009272,-0.335256,0.864736,0.980000,-0.840000,-0.280000
53.858544,0.001464,-0.281576,1.044808,1.680000,0.560000,-1.120000
53.866631,-0.054656,-0.293776,0.938912,2.240000,0.000000,-0.140000
53.874718,-0.016104,-0.335744,0.945256,2.660000,2.100000,-1.400000
53.882805,-0.087352,-0.226432,0.945256,1.960000,-0.560000,0.560000
53.890893,0.030744,-0.323544,0.995520,1.260000,-0.840000,-1.120000
53.898980,-0.037576,-0.289872,1.018944,1.820000,2.520000,-1.540000
53.907067,-0.058072,-0.314760,0.846192,2.520000,0.420000,0.000000
53.915154,-0.027328,-0.277672,1.020896,1.400000,-0.560000,-0.560000
53.923241,-0.035136,-0.269864,1.019920,2.240000,0.280000,-0.420000
53.931328,-0.007320,-0.346480,0.873520,0.840000,2.380000,-1.540000
53.939416,-0.067344,-0.250344,1.020896,1.820000,-0.980000,0.420000
53.947503,-0.009272,-0.290848,0.915000,0.840000,-0.280000,-0.700000
53.955590,-0.000488,-0.323056,1.070184,1.400000,1.400000,-1.540000
53.963677,-0.081984,-0.299144,0.845704,2.940000,1.960000,-0.140000
53.971764,-0.023424,-0.290360,0.979416,0.980000,-0.980000,-0.840000
53.979851,-0.020984,-0.259128,1.083848,2.380000,-0.700000,0.000000
53.987939,-0.012200,-0.314272,0.860832,1.680000,2.240000,-0.840000
53.996026,-0.072224,-0.289872,1.010160,1.120000,0.700000,-0.560000
54.004113,-0.019520,-0.283528,0.903288,1.540000,-1.260000,-0.140000
54.012200,0.000976,-0.311832,1.044320,0.000000,1.680000,-1.400000
54.020287,-0.103456,-0.288408,0.902312,3.220000,1.400000,-0.280000
54.028374,0.021472,-0.287432,0.965264,0.840000,-0.700000,-0.840000
54.036462,-0.048312,-0.258152,1.037000,0.700000,0.560000,-0.700000
54.044549,-0.009272,-0.334280,0.874008,1.260000,-0.140000,-0.420000
54.052636,-0.055144,-0.289872,1.029680,0.840000,2.520000,-0.980000
54.060723,-0.052704,-0.270840,0.935984,1.680000,-1.540000,0.280000
54.068810,0.026352,-0.303536,0.974048,-0.840000,1.680000,-1.680000
54.076897,-0.104920,-0.284504,0.996984,1.400000,1.680000,-0.140000
54.084984,0.011712,-0.319640,0.871568,1.820000,-1.120000,0.140000
54.093072,-0.041968,-0.273280,1.075552,0.560000,2.240000,-1.260000
54.101159,-0.040504,-0.298656,0.905728,2.240000,-1.960000,0.140000
54.109246,0.023912,-0.326472,0.972096,0.700000,2.100000,-1.400000
54.117333,-0.118096,-0.235216,0.969656,1.960000,0.140000,0.560000
54.125420,0.029768,-0.304024,0.942328,0.140000,-1.540000,-0.560000
54.133507,-0.031720,-0.319152,1.052128,0.700000,2.660000,-1.680000
54.141595,-0.069296,-0.288408,0.847168,2.100000,0.000000,0.140000
54.149682,-0.005368,-0.301096,1.018456,-0.280000,0.560000,-1.260000
54.157769,-0.057584,-0.254248,0.976000,0.980000,-0.840000,0.140000
54.165856,0.028792,-0.318664,0.939400,0.700000,1.120000,-0.980000
54.173943,-0.111264,-0.298656,0.963800,0.560000,2.660000,-0.840000
54.182030,0.007320,-0.291336,0.958920,1.260000,-3.080000,0.280000
54.190118,-0.009760,-0.278160,1.027728,-0.140000,3.080000,-1.680000
54.198205,-0.085400,-0.313784,0.891088,1.540000,-0.140000,0.280000
54.206292,0.024888,-0.305976,0.958432,1.680000,0.140000,-0.840000
54.214379,-0.081496,-0.230336,1.026752,0.980000,1.820000,-0.840000
54.222466,0.015128,-0.344528,0.947696,1.680000,-2.100000,0.280000
54.230553,-0.068320,-0.289384,0.958432,0.560000,4.340000,-1.820000
54.238641,-0.033184,-0.268888,0.943304,1.960000,-3.080000,0.700000
54.246728,0.023912,-0.313784,0.998936,-0.140000,1.680000,-0.980000
54.254815,-0.102480,-0.293776,0.948672,1.960000,2.100000,-0.840000
54.262902,0.020496,-0.327448,0.915000,2.100000,-1.680000,-0.420000
54.270989,-0.066368,-0.216184,1.058960,0.000000,2.940000,-1.680000
54.279076,-0.017080,-0.321104,0.917440,1.120000,-2.940000,0.700000
54.287163,0.002928,-0.326472,0.962336,0.560000,3.920000,-1.540000
54.295251,-0.126392,-0.248880,0.934032,1.680000,-0.140000,0.420000
54.303338,0.053192,-0.317688,0.991616,0.700000,-1.820000,-0.560000
54.311425,-0.064904,-0.274256,1.018944,0.420000,3.920000,-1.680000
54.319512,-0.046848,-0.324520,0.888648,1.260000,-1.960000,0.280000
54.327599,0.010248,-0.260104,1.019920,0.280000,1.540000,-1.400000
54.335686,-0.093208,-0.272792,0.939888,0.140000,0.560000,-0.280000
54.343774,0.043432,-0.330864,0.967216,-0.140000,-0.700000,-0.420000
54.351861,-0.105408,-0.284016,0.949160,0.280000,4.340000,-1.680000
54.359948,-0.007320,-0.295728,0.962336,0.840000,-4.480000,0.980000
54.368035,0.018056,-0.271816,1.022360,0.420000,2.380000,-1.260000
54.376122,-0.106384,-0.320128,0.887672,0.700000,1.120000,-0.420000
54.384209,0.031720,-0.311344,0.966240,1.260000,-1.260000,-0.280000
54.392297,-0.083936,-0.239120,0.996008,0.280000,2.520000,-0.840000
54.400384,0.010736,-0.334768,0.986248,-0.140000,-2.800000,-0.140000
54.408471,-0.036600,-0.274744,1.001376,1.400000,3.360000,-1.960000
54.416558,-0.087352,-0.298656,0.841312,0.140000,0.280000,0.000000
54.424645,0.023912,-0.285968,1.045784,-0.140000,-0.560000,-0.840000
54.432732,-0.077104,-0.281088,0.960872,0.140000,2.240000,-0.980000
54.440820,0.017568,-0.342088,0.928176,1.120000,-1.680000,-0.280000
54.448907,-0.072712,-0.253760,0.992104,0.140000,3.500000,-1.680000
54.456994,-0.017080,-0.298168,0.949160,-0.560000,-2.940000,0.700000
54.465081,0.028304,-0.296216,1.030168,0.280000,1.680000,-1.680000
54.473168,-0.149328,-0.303536,0.885720,0.700000,3.780000,-0.700000
54.481255,0.022936,-0.307440,0.934520,0.700000,-2.940000,0.000000
54.489343,0.011224,-0.264496,1.057008,0.700000,1.540000,-0.980000
54.497430,-0.076616,-0.325984,0.901824,1.680000,0.140000,-0.560000
54.505517,-0.007320,-0.275232,1.014552,1.680000,0.280000,-0.420000
54.513604,-0.077592,-0.277672,0.897432,0.420000,1.680000,-0.560000
54.521691,0.041480,-0.314272,1.012600,-0.560000,-1.960000,-0.560000
54.529778,-0.049776,-0.294264,0.971608,1.680000,3.640000,-1.120000
54.537865,-0.079544,-0.306464,0.858392,1.540000,-0.700000,0.280000
54.545953,0.008296,-0.253272,1.106296,1.400000,-0.560000,-0.420000
54.554040,-0.071248,-0.319640,0.898896,0.280000,2.520000,-1.260000
54.562127,0.010736,-0.325008,0.968680,1.680000,-1.120000,-0.420000
54.570214,-0.076616,-0.246440,0.951112,2.380000,2.240000,-0.840000
54.578301,-0.002440,-0.317688,0.961360,0.700000,-1.400000,-0.560000
54.586388,0.004392,-0.296704,1.073112,1.820000,1.400000,-1.540000
54.594476,-0.087352,-0.298168,0.791048,1.540000,1.960000,-0.700000
54.602563,-0.020008,-0.256200,1.087264,-0.140000,-1.540000,-0.140000
54.610650,-0.051728,-0.280112,0.949160,0.000000,1.820000,-0.840000
54.618737,0.013176,-0.346968,0.955992,-0.280000,-0.140000,-0.840000
54.626824,-0.070760,-0.261568,0.958432,1.120000,2.240000,-0.980000
54.634911,-0.006344,-0.286456,0.947208,-0.980000,-2.800000,-0.140000
54.642999,-0.000488,-0.303048,1.062376,0.420000,1.400000,-1.260000
54.651086,-0.087840,-0.303536,0.840824,1.540000,3.080000,-0.420000
54.659173,-0.002440,-0.296216,0.984296,-0.280000,-1.540000,0.280000
54.667260,-0.070272,-0.244976,1.006256,0.140000,1.540000,-0.980000
54.675347,0.036600,-0.336232,0.979416,-0.280000,-1.540000,-0.560000
54.683434,-0.065392,-0.301584,0.960872,0.700000,3.360000,-1.400000
54.691522,-0.078080,-0.264496,0.874496,-0.140000,-1.260000,0.280000
54.699609,0.042944,-0.290848,1.087264,-0.420000,-1.120000,-0.560000
54.707696,-0.077592,-0.315736,0.905240,0.980000,4.480000,-0.840000
54.715783,-0.016104,-0.308904,0.902312,0.280000,-1.680000,0.140000
54.723870,-0.035136,-0.234728,1.040904,0.560000,0.560000,0.140000
54.731957,-0.016104,-0.324520,0.967216,0.280000,-0.700000,0.000000
54.740044,-0.056120,-0.314272,1.001864,0.840000,1.960000,-1.260000
54.748132,-0.057096,-0.267424,0.850584,0.280000,0.280000,0.140000
54.756219,0.034160,-0.277672,1.049688,-1.680000,-1.960000,-0.560000
54.764306,-0.079056,-0.318176,0.954528,0.420000,3.360000,-1.120000
54.772393,-0.011712,-0.330864,0.897432,1.400000,-1.120000,0.420000
54.780480,-0.014640,-0.252784,1.010648,0.980000,0.700000,0.560000
54.788567,-0.070760,-0.286944,0.938912,0.980000,0.420000,0.560000
54.796655,0.027328,-0.315248,1.072624,0.700000,-0.700000,0.280000
54.804742,-0.100040,-0.296704,0.788120,1.400000,2.100000,-0.140000
54.812829,-0.002440,-0.263032,1.073600,-1.540000,-3.220000,0.280000
54.820916,-0.038064,-0.294264,0.986248,1.260000,3.080000,-0.980000
54.829003,-0.014640,-0.344040,0.888160,0.700000,-0.700000,0.700000
54.837090,-0.044896,-0.252296,1.002352,0.280000,1.260000,-0.140000
54.845178,-0.023912,-0.293776,0.951600,-0.840000,-1.120000,0.280000
54.853265,-0.014640,-0.318176,1.030168,0.000000,0.840000,-0.700000
54.861352,-0.105896,-0.285968,0.871080,0.560000,2.940000,-0.140000
54.869439,0.022448,-0.302072,0.985760,-0.280000,-2.800000,0.700000
54.877526,0.000488,-0.278160,1.023336,0.560000,1.400000,-0.560000
54.885613,-0.087352,-0.337696,0.858880,0.840000,1.260000,-0.140000
54.893701,-0.012200,-0.275720,1.021872,1.120000,-0.980000,0.560000
54.901788,-0.038552,-0.276696,0.936960,0.560000,0.700000,0.140000
54.909875,0.031720,-0.328424,1.020896,0.560000,-1.540000,0.280000
54.917962,-0.115168,-0.271328,0.933544,1.820000,4.200000,-0.420000
54.926049,-0.024888,-0.305000,0.910120,1.120000,-1.960000,1.120000
54.934136,0.031232,-0.264008,1.081896,0.980000,-0.980000,0.560000
54.942223,-0.071736,-0.325008,0.924272,-0.420000,1.820000,-0.280000
54.950311,-0.029280,-0.306952,0.931104,0.980000,0.280000,0.280000
54.958398,-0.055144,-0.292312,0.922320,0.700000,1.400000,0.420000
54.966485,-0.007320,-0.307440,0.980880,0.840000,-2.660000,0.700000
54.974572,-0.017568,-0.278648,1.050176,1.260000,1.680000,-0.980000
54.982659,-0.083936,-0.318664,0.875960,1.680000,2.520000,-0.700000
54.990746,0.012688,-0.258640,1.021384,0.560000,-2.940000,1.120000
54.998834,-0.040016,-0.321104,0.917440,0.980000,1.400000,0.140000
55.006921,0.002440,-0.320616,1.002840,1.400000,0.280000,-0.280000
55.015008,-0.102968,-0.264008,0.931104,2.240000,2.520000,-0.140000
55.023095,-0.020008,-0.305488,0.900848,1.540000,-1.400000,1.120000
55.031182,0.039528,-0.298168,1.123376,1.820000,-0.700000,0.000000
55.039269,-0.085400,-0.295728,0.822280,3.360000,1.680000,0.420000
55.047357,-0.018056,-0.269376,1.027728,2.520000,-0.560000,0.980000
55.055444,-0.062952,-0.292800,0.934520,0.980000,-0.140000,1.120000
55.063531,0.052216,-0.326960,1.007720,1.820000,-1.820000,0.840000
55.071618,-0.115656,-0.277672,0.941352,2.240000,4.900000,-0.420000
55.079705,-0.020008,-0.292312,0.933544,0.280000,-4.200000,1.540000
55.087792,0.029280,-0.263520,1.038464,0.840000,0.840000,0.140000
55.095879,-0.082472,-0.330376,0.920368,0.560000,2.380000,0.280000
55.103967,-0.025864,-0.295240,0.967216,2.940000,-1.820000,1.540000
55.112054,-0.023912,-0.289384,0.913048,2.800000,0.560000,1.540000
55.120141,-0.009760,-0.277184,1.050664,0.560000,-1.540000,0.980000
55.128228,-0.070760,-0.297192,0.940864,1.960000,2.660000,0.280000
55.136315,-0.007320,-0.325008,0.890600,1.260000,-1.120000,1.400000
55.144402,-0.037576,-0.227896,1.071160,0.980000,0.700000,1.260000
55.152490,-0.032208,-0.313784,0.933544,0.280000,-0.980000,1.120000
55.160577,-0.022448,-0.313784,0.993568,0.700000,0.980000,0.280000
55.168664,-0.071736,-0.286456,0.873520,0.560000,0.560000,0.980000
55.176751,0.030744,-0.297680,1.031632,-0.140000,-2.100000,0.840000
55.184838,-0.074176,-0.299632,0.956480,0.980000,2.940000,-0.420000
55.192925,-0.040504,-0.320128,0.915000,1.120000,-0.560000,0.280000
55.201013,-0.021960,-0.259128,1.030168,0.700000,0.280000,-0.140000
55.209100,-0.052216,-0.287432,0.928664,-0.420000,-0.140000,0.140000
55.217187,0.020984,-0.315736,1.008696,0.280000,-0.700000,-0.560000
55.225274,-0.106384,-0.299632,0.900360,0.980000,4.200000,-0.980000
55.233361,-0.010248,-0.311344,0.938912,1.120000,-2.380000,0.420000
55.241448,0.014152,-0.260104,1.070672,0.700000,0.280000,-0.420000
55.249536,-0.047824,-0.321104,0.884744,0.980000,1.400000,-0.420000
55.257623,-0.038064,-0.325984,0.966240,1.680000,0.280000,-0.420000
55.265710,-0.083936,-0.242536,0.940376,1.960000,1.540000,-0.280000
55.273797,0.034648,-0.307440,1.011624,-0.140000,-2.520000,0.000000
55.281884,-0.015616,-0.293776,1.051152,1.680000,1.680000,-1.120000
55.289971,-0.081496,-0.318664,0.808128,1.820000,2.660000,-0.280000
55.298058,0.000000,-0.279136,1.009672,0.840000,-2.520000,0.560000
55.306146,-0.063440,-0.251808,0.990640,0.840000,2.520000,-0.700000
55.314233,-0.011224,-0.346480,0.983320,0.140000,-0.840000,-0.700000
55.322320,-0.033184,-0.287432,0.958920,1.680000,1.400000,-0.840000
55.330407,-0.056120,-0.292800,0.879376,1.120000,0.840000,-0.560000
55.338494,0.011224,-0.289872,1.061400,0.420000,-2.100000,-0.140000
55.346581,-0.040992,-0.290848,0.942816,2.520000,3.080000,-1.540000
55.354669,-0.066368,-0.322568,0.905240,0.700000,0.840000,-0.560000
55.362756,-0.016104,-0.262056,1.025776,1.400000,-1.400000,-0.420000
55.370843,-0.019032,-0.274256,0.944280,0.280000,1.260000,-0.840000
55.378930,-0.029768,-0.337208,1.019432,0.000000,1.120000,-0.840000
55.387017,-0.105896,-0.270352,0.845704,1.820000,1.400000,-0.700000
55.395104,0.040992,-0.300608,1.024800,0.700000,-2.520000,-0.140000
55.403192,-0.009272,-0.268400,1.058960,1.260000,1.260000,-0.560000
55.411279,-0.082960,-0.346480,0.813496,1.680000,2.520000,-0.560000
55.419366,-0.014152,-0.289384,0.996984,1.260000,-1.260000,-0.140000
55.427453,-0.050752,-0.227896,0.978928,0.980000,0.980000,-0.700000
55.435540,0.003904,-0.338184,1.007232,0.140000,-0.840000,-0.700000
55.443627,-0.040504,-0.295240,0.967216,1.400000,2.240000,-1.400000
55.451714,-0.066856,-0.300608,0.869616,1.260000,0.700000,-0.560000
55.459802,0.023424,-0.293776,1.032120,0.560000,-1.400000,-0.420000
55.467889,-0.066368,-0.277672,0.964776,1.260000,2.240000,-0.840000
55.475976,-0.024888,-0.330864,0.923296,1.260000,0.700000,-1.260000
55.484063,-0.033672,-0.266936,1.016992,1.680000,-0.140000,-0.420000
55.492150,-0.042456,-0.264008,0.933056,0.980000,0.840000,-0.560000
55.500237,0.012688,-0.325008,1.034072,0.560000,-0.840000,-0.700000
55.508325,-0.061000,-0.298656,0.918904,2.240000,2.940000,-1.120000
55.516412,-0.053680,-0.287432,0.892552,0.700000,-0.560000,-0.420000
55.524499,-0.000488,-0.272304,1.077016,0.280000,-0.420000,-0.420000
55.532586,-0.042944,-0.306952,0.893528,0.280000,2.380000,-1.260000
55.540673,-0.035136,-0.347456,0.966728,1.680000,-0.420000,-0.420000
55.548760,-0.023424,-0.242536,0.983808,2.800000,0.840000,-0.840000
55.556848,-0.028304,-0.275232,0.965752,-0.140000,-0.560000,-0.420000
55.564935,-0.007808,-0.314272,1.019432,1.540000,0.560000,-0.840000
55.573022,-0.106872,-0.290848,0.838872,1.120000,3.220000,-1.120000
55.581109,0.019520,-0.311344,1.037488,0.560000,-2.800000,0.140000
55.589196,-0.013664,-0.247904,1.001864,0.420000,2.380000,-1.400000
55.597283,-0.066368,-0.338184,0.908168,0.560000,0.840000,-0.840000
55.605371,-0.011712,-0.300608,0.981856,2.240000,-0.560000,-0.280000
55.613458,-0.066856,-0.247904,0.941352,0.560000,1.680000,-0.840000
55.621545,-0.001464,-0.325984,1.019432,0.560000,-1.540000,-0.420000
55.629632,-0.006832,-0.295728,0.944280,1.960000,3.360000,-1.680000
55.637719,-0.082472,-0.310856,0.874008,1.120000,-0.980000,0.140000
55.645806,0.015616,-0.249856,1.057008,1.820000,-0.700000,-0.420000
55.653893,-0.106384,-0.285968,0.959408,0.140000,3.780000,-0.980000
55.661981,0.007808,-0.343064,0.946232,0.980000,-1.960000,-0.420000
55.670068,0.007320,-0.251320,0.989664,1.120000,1.960000,-1.120000
55.678155,-0.082472,-0.280112,0.946720,-0.700000,-0.980000,0.140000
55.686242,0.012688,-0.317688,0.995520,1.120000,-0.700000,-0.840000
55.694329,-0.086376,-0.293288,0.909144,0.980000,4.060000,-1.400000
55.702416,-0.002440,-0.278648,1.005768,-0.140000,-3.360000,0.420000
55.710504,-0.003416,-0.276696,0.986248,0.560000,2.380000,-1.540000
55.718591,-0.070760,-0.326472,0.935496,-0.420000,1.400000,-0.980000
55.726678,-0.016592,-0.309392,0.969656,2.380000,-0.840000,-0.140000
55.734765,-0.061000,-0.265472,0.914024,0.840000,2.240000,-0.980000
55.742852,0.018544,-0.291824,1.049688,0.000000,-2.380000,0.000000
55.750939,-0.051240,-0.300120,0.930616,1.260000,3.640000,-1.820000
55.759027,-0.061976,-0.303536,0.923784,0.700000,-0.420000,-0.140000
55.767114,0.026352,-0.269376,1.018456,0.700000,-0.980000,-0.140000
55.775201,-0.095160,-0.285480,0.952088,-0.280000,3.080000,-1.400000
55.783288,0.007320,-0.335256,0.957944,0.700000,-1.540000,-0.280000
55.791375,-0.033672,-0.274256,0.937936,1.120000,3.080000,-1.260000
55.799462,-0.058560,-0.281088,0.980392,0.280000,-1.680000,0.420000
55.807550,0.028792,-0.299144,1.034072,0.420000,0.560000,-1.260000
55.815637,-0.120048,-0.302560,0.884256,0.980000,4.060000,-1.260000
55.823724,0.015128,-0.312808,0.932080,0.980000,-3.640000,0.280000
55.831811,-0.028792,-0.261080,1.026264,0.000000,3.360000,-1.680000
55.839898,-0.037088,-0.314272,0.971120,1.120000,-1.400000,0.000000
55.847985,-0.011712,-0.299144,0.946720,1.260000,1.540000,-0.840000
55.856073,-0.108336,-0.271328,0.916464,0.420000,1.820000,-0.700000
55.864160,0.057584,-0.304512,1.019920,-0.140000,-3.780000,0.420000
55.872247,-0.039528,-0.291824,0.979416,1.120000,5.460000,-2.100000
55.880334,-0.100040,-0.313296,0.891088,0.980000,-1.120000,0.140000
55.888421,0.036112,-0.268400,1.030168,1.400000,-1.680000,-0.280000
55.896508,-0.086376,-0.280112,0.940864,0.000000,3.920000,-1.120000
55.904595,0.021472,-0.338184,0.983320,0.700000,-2.800000,-0.140000
55.912683,-0.054656,-0.293288,0.925736,1.260000,4.200000,-1.540000
55.920770,-0.063440,-0.262544,0.944280,0.280000,-2.800000,0.560000
55.928857,0.045384,-0.287920,1.083360,0.280000,-0.280000,-0.840000
55.936944,-0.120048,-0.314272,0.874008,0.700000,5.180000,-1.680000
55.945031,0.006832,-0.305488,0.931104,1.400000,-3.360000,0.420000
55.953118,-0.021472,-0.275232,1.030656,0.000000,2.660000,-1.400000
55.961206,-0.059048,-0.279624,0.958920,0.420000,-1.540000,0.140000
55.969293,0.029768,-0.328424,0.993568,1.120000,1.120000,-1.260000
55.977380,-0.127368,-0.285480,0.869128,0.560000,3.920000,-1.260000
55.985467,0.037088,-0.280112,1.007720,0.140000,-5.040000,1.120000
55.993554,-0.004392,-0.304024,1.024312,0.700000,3.780000,-2.240000
56.001641,-0.107360,-0.299144,0.877912,1.400000,1.120000,-0.420000
56.009729,0.021960,-0.311832,0.978440,0.980000,-0.700000,-0.420000
56.017816,-0.085888,-0.221552,0.980392,0.280000,1.820000,-0.560000
56.025903,0.051240,-0.330864,1.016016,0.420000,-2.660000,-0.280000
56.033990,-0.065880,-0.326960,0.965752,0.840000,4.760000,-2.240000
56.042077,-0.109312,-0.280600,0.840824,2.100000,0.140000,0.560000
56.050164,0.078080,-0.304512,1.028216,1.260000,-2.660000,0.000000
56.058252,-0.085888,-0.275720,1.014064,1.820000,3.780000,-1.400000
56.066339,-0.033672,-0.317200,0.892064,1.960000,-1.820000,-0.140000
56.074426,-0.008296,-0.249368,1.031632,-0.140000,2.100000,-1.260000
56.082513,-0.070760,-0.289872,0.905240,-0.280000,-0.420000,0.140000
56.090600,0.037576,-0.333792,1.019432,0.280000,-0.700000,-0.980000
56.098687,-0.108824,-0.285480,0.919880,1.400000,4.760000,-1.540000
56.106775,-0.031232,-0.289872,0.925248,0.140000,-2.800000,0.420000
56.114862,0.020008,-0.280600,1.082384,0.420000,0.700000,-1.260000
56.122949,-0.079544,-0.304512,0.875960,1.120000,2.240000,-0.840000
56.131036,0.013664,-0.334768,0.982832,1.260000,-1.120000,-0.420000
56.139123,-0.066856,-0.266936,0.964776,1.960000,2.380000,-1.260000
56.147210,-0.006832,-0.280112,0.937448,0.000000,-2.240000,0.280000
56.155298,-0.010248,-0.305488,1.055056,0.700000,2.380000,-1.960000
56.163385,-0.095648,-0.300120,0.875960,2.240000,1.960000,-0.280000
56.171472,0.020984,-0.310856,0.951600,1.260000,-1.820000,-0.280000
56.179559,-0.040992,-0.246440,1.049200,0.980000,1.680000,-0.840000
56.187646,-0.032208,-0.325008,0.904264,1.540000,0.000000,-0.280000
56.195733,-0.034160,-0.309880,0.994056,1.260000,1.120000,-0.700000
56.203820,-0.103456,-0.259128,0.912560,1.960000,0.700000,-0.140000
56.211908,0.070760,-0.314272,0.997960,0.560000,-2.240000,-0.560000
56.219995,-0.038064,-0.311344,1.007720,2.100000,3.640000,-1.260000
56.228082,-0.086376,-0.283528,0.848632,2.660000,-0.560000,0.000000
56.236169,-0.004392,-0.285480,1.055056,0.000000,0.700000,-0.980000
56.244256,-0.050264,-0.270840,0.955504,1.820000,0.420000,-0.280000
56.252343,0.019032,-0.326472,0.958920,1.400000,0.000000,-0.980000
56.260431,-0.081984,-0.307440,0.964288,2.380000,2.240000,-0.840000
56.268518,-0.031232,-0.262544,0.910120,1.960000,-2.100000,0.000000
56.276605,0.013176,-0.292312,1.047736,0.000000,1.820000,-1.260000
56.284692,-0.096136,-0.289872,0.923784,1.960000,1.820000,-0.560000
56.292779,0.016104,-0.313296,0.952576,0.840000,-1.400000,-0.420000
56.300866,-0.038552,-0.267424,1.021384,1.120000,1.400000,-0.980000
56.308954,-0.033184,-0.287920,0.918904,0.980000,0.140000,-0.140000
56.317041,-0.022448,-0.342088,0.987224,1.680000,1.400000,-0.840000
56.325128,-0.040504,-0.259128,0.958432,2.800000,0.000000,-0.560000
56.333215,-0.028304,-0.290360,0.929640,0.140000,0.000000,-0.560000
56.341302,-0.039040,-0.298168,1.030656,1.260000,0.980000,-0.700000
56.349389,-0.036112,-0.300608,0.899872,1.960000,0.420000,-0.700000
56.357477,-0.027328,-0.313784,0.968680,1.400000,0.840000,-0.980000
56.365564,-0.024888,-0.251808,1.018456,1.680000,-0.140000,-0.420000
56.373651,-0.045872,-0.298168,0.941840,0.560000,1.400000,-1.260000
56.381738,-0.024400,-0.336232,0.944768,2.520000,0.140000,-0.560000
56.389825,-0.030256,-0.256688,0.957456,2.380000,1.260000,-0.980000
56.397912,-0.050264,-0.302072,0.971608,0.420000,-0.560000,-0.420000
56.406000,0.001464,-0.283528,1.002840,1.540000,0.980000,-1.120000
56.414087,-0.072712,-0.286456,0.916464,0.840000,1.960000,-1.120000
56.422174,-0.002928,-0.315248,1.002840,1.960000,-1.400000,-0.140000
56.430261,-0.043432,-0.260104,0.954040,1.120000,2.940000,-1.260000
56.438348,-0.046848,-0.313296,0.975024,1.120000,-1.540000,0.140000
56.446435,0.014152,-0.287920,0.956480,2.240000,1.260000,-0.980000
56.454523,-0.080520,-0.284992,0.940864,1.260000,1.960000,-0.700000
56.462610,-0.011224,-0.295728,1.006256,0.280000,-2.100000,-0.280000
56.470697,-0.033184,-0.277184,0.959896,0.140000,3.640000,-1.680000
56.478784,-0.042944,-0.307928,0.955504,1.120000,-1.260000,0.000000
56.486871,0.003904,-0.301096,0.936960,1.120000,0.140000,-0.140000
56.494958,-0.087840,-0.245952,1.004792,0.280000,2.240000,-1.120000
56.503045,-0.008784,-0.324520,0.959408,0.000000,-0.980000,-0.420000
56.511133,0.014640,-0.296216,0.976976,1.400000,0.560000,-0.560000
56.519220,-0.078080,-0.292312,0.933544,1.540000,1.120000,-0.700000
56.527307,-0.004880,-0.294752,1.000400,0.840000,-1.120000,-0.420000
56.535394,-0.064416,-0.278160,0.941840,0.700000,2.940000,-0.980000
56.543481,-0.025864,-0.327936,0.918416,2.240000,-0.280000,-0.560000
56.551568,-0.002928,-0.271816,1.008696,1.540000,0.000000,-0.140000
56.559656,-0.073200,-0.260104,0.983320,1.400000,0.560000,-0.840000
56.567743,-0.003904,-0.320616,0.937936,0.980000,0.280000,-0.560000
56.575830,-0.031232,-0.292312,1.002840,1.540000,1.960000,-0.840000
56.583917,-0.049288,-0.281576,0.917440,1.540000,-0.560000,-0.560000
56.592004,0.004392,-0.300120,1.000888,0.280000,0.140000,-0.700000
56.600091,-0.082472,-0.267912,0.969656,0.420000,2.380000,-1.120000
56.608179,-0.012200,-0.326472,0.931104,1.540000,-1.120000,-0.280000
56.616266,-0.006344,-0.283040,0.962824,1.400000,1.260000,-0.840000
56.624353,-0.078080,-0.269376,1.000888,0.560000,0.420000,-0.420000
56.632440,-0.016592,-0.306952,0.938912,1.260000,0.140000,-0.560000
56.640527,-0.026352,-0.295728,0.973560,1.960000,1.260000,-0.700000
56.648614,-0.036112,-0.297680,0.933056,1.680000,-0.140000,-0.420000
56.656702,-0.025376,-0.275720,1.027728,0.840000,0.280000,-0.980000
56.664789,-0.050752,-0.289384,0.930616,1.260000,1.260000,-0.560000
56.672876,-0.003904,-0.316712,0.957456,1.400000,0.280000,-0.700000
56.680963,-0.034648,-0.269864,0.982832,2.380000,0.840000,-0.560000
56.689050,-0.039040,-0.290848,0.951112,1.260000,-0.420000,-0.700000
56.697137,-0.009760,-0.307440,0.989664,0.420000,0.420000,-0.840000
56.705225,-0.055632,-0.278648,0.942328,2.100000,2.100000,-0.980000
56.713312,-0.025864,-0.293776,0.961360,2.240000,-1.120000,-0.280000
56.721399,-0.019520,-0.264984,0.978440,0.840000,0.840000,-0.420000
56.729486,-0.072224,-0.284016,0.956968,0.840000,1.260000,-0.560000
56.737573,0.000976,-0.318176,0.977952,0.420000,-0.280000,-0.700000
56.745660,-0.035624,-0.279624,0.975024,0.980000,1.260000,-1.120000
56.753748,-0.045872,-0.282552,0.954528,0.560000,0.000000,-0.560000
56.761835,-0.015128,-0.307440,0.961360,0.140000,1.400000,-1.120000
56.769922,-0.051728,-0.284992,0.947208,1.260000,0.700000,-0.560000
56.778009,-0.009760,-0.295240,0.964776,0.980000,-0.280000,-0.840000
56.786096,-0.049776,-0.270352,1.011136,0.000000,0.980000,-0.840000
56.794183,-0.025864,-0.302072,0.918904,1.120000,0.140000,-0.280000
56.802270,-0.024888,-0.306952,0.963800,-0.140000,1.820000,-0.700000
56.810358,-0.072224,-0.267912,1.002840,1.120000,-0.700000,-0.700000
56.818445,0.010736,-0.269376,0.956968,0.420000,-0.420000,-0.420000
56.826532,-0.035624,-0.322568,0.976000,-0.980000,2.380000,-0.840000
56.834619,-0.040016,-0.291824,0.927688,1.260000,-0.280000,-0.700000
56.842706,-0.003416,-0.297680,0.974048,0.560000,-0.420000,-0.560000
56.850793,-0.053680,-0.262544,1.003816,0.140000,1.680000,-0.420000
56.858881,-0.042456,-0.309880,0.919392,0.560000,-0.560000,-0.420000
56.866968,-0.013664,-0.306464,0.997960,0.840000,0.980000,-0.980000
56.875055,-0.056120,-0.263520,0.941352,1.120000,0.560000,-0.560000
56.883142,-0.009272,-0.309880,0.975512,0.000000,0.140000,-0.980000
56.891229,-0.038552,-0.284016,1.013576,-0.140000,0.840000,-0.700000
56.899316,-0.027328,-0.300608,0.879376,1.680000,0.700000,-0.560000
56.907404,-0.035624,-0.310856,0.999424,0.140000,0.980000,-0.840000
56.915491,-0.054168,-0.245952,0.992592,0.700000,-0.560000,-0.420000
56.923578,0.007808,-0.300120,0.964288,-0.140000,0.420000,-1.120000
56.931665,-0.046360,-0.315736,0.973560,0.280000,1.260000,-0.560000
56.939752,-0.041480,-0.274744,0.907680,1.540000,0.140000,-0.560000
56.947839,-0.012200,-0.302560,1.005280,-0.280000,0.560000,-0.840000
56.955927,-0.048312,-0.287432,0.970632,0.560000,0.700000,-0.560000
56.964014,-0.022936,-0.302072,0.924272,1.260000,0.560000,-1.400000
56.972101,-0.034648,-0.298168,0.999424,1.260000,1.120000,-0.420000
56.980188,-0.043432,-0.248392,0.957944,0.420000,-0.140000,-0.280000
56.988275,-0.020984,-0.332816,0.981856,0.280000,0.420000,-0.840000
56.996362,-0.040992,-0.274744,0.960384,1.260000,1.260000,-1.120000
57.004450,-0.029280,-0.285968,0.938424,0.280000,-0.420000,-0.280000
57.012537,-0.017080,-0.296216,0.990640,-0.420000,0.840000,-0.980000
57.020624,-0.061000,-0.291336,0.971120,0.280000,0.700000,-0.560000
57.028711,0.000976,-0.314272,0.944280,1.400000,0.420000,-0.560000
57.036798,-0.038064,-0.279624,0.983808,1.120000,0.560000,-0.420000
57.044885,-0.040504,-0.263032,0.954040,0.560000,-0.140000,-0.280000
57.052972,-0.000488,-0.325496,0.984296,-0.140000,0.140000,-0.560000
57.061060,-0.071736,-0.267912,0.937448,1.260000,2.100000,-0.700000
57.069147,-0.023912,-0.306464,0.957456,0.140000,-1.960000,0.140000
57.077234,-0.018544,-0.284016,1.013576,-0.140000,1.820000,-0.840000
57.085321,-0.064904,-0.296216,0.911584,0.700000,0.980000,-0.560000
57.093408,0.003904,-0.322080,0.974536,0.980000,-0.280000,-0.420000
57.101495,-0.061488,-0.269864,0.976488,1.540000,1.260000,-0.560000
57.109583,-0.014640,-0.279624,0.966728,0.420000,-1.260000,-0.140000
57.117670,-0.010736,-0.313784,1.001864,0.140000,2.240000,-1.400000
57.125757,-0.087352,-0.297192,0.874008,1.400000,0.420000,-0.280000
57.133844,0.016104,-0.290848,1.004792,0.840000,-0.980000,0.000000
57.141931,-0.047336,-0.256200,0.994544,0.140000,2.100000,-0.840000
57.150018,-0.039040,-0.331840,0.929152,0.280000,-0.700000,-0.420000
57.158106,0.010736,-0.279624,0.990640,1.680000,0.560000,-0.280000
57.166193,-0.100528,-0.280112,0.939888,0.280000,1.960000,-0.280000
57.174280,0.013664,-0.314760,0.984296,0.840000,-2.380000,-0.140000
57.182367,-0.030744,-0.280600,0.972096,1.400000,2.940000,-1.260000
57.190454,-0.054168,-0.311832,0.909632,0.700000,-0.280000,-0.140000
57.198541,-0.006344,-0.266448,1.029192,1.540000,-0.700000,-0.280000
57.206629,-0.054168,-0.297680,0.933544,0.560000,2.380000,-0.700000
57.214716,-0.029768,-0.310856,0.977464,1.260000,-0.280000,-0.700000
57.222803,-0.030256,-0.273768,0.954040,1.260000,0.700000,-0.560000
57.230890,-0.030744,-0.301096,0.965752,-0.140000,0.280000,-0.560000
57.238977,-0.006832,-0.293288,1.006256,1.400000,-0.420000,-0.840000
57.247064,-0.054168,-0.297192,0.907192,1.120000,2.940000,-0.980000
57.255152,-0.049288,-0.303536,0.956480,0.980000,-0.840000,-0.140000
57.263239,-0.004392,-0.256200,1.011624,1.260000,0.000000,-0.840000
57.271326,-0.032208,-0.307440,0.967216,-0.560000,1.680000,-0.560000
57.279413,-0.053680,-0.315736,0.942816,1.680000,0.280000,-0.280000
57.287500,-0.023912,-0.277672,0.955016,1.260000,-0.420000,-0.700000
57.295587,-0.014152,-0.284504,0.995520,-0.420000,0.560000,-0.840000
57.303674,-0.045872,-0.300120,0.948672,2.100000,1.260000,-0.700000
57.311762,-0.016104,-0.306952,0.945744,1.540000,-0.140000,-0.140000
57.319849,-0.043432,-0.266936,0.995520,0.980000,0.280000,-0.560000
57.327936,-0.044896,-0.272304,0.936960,0.420000,0.980000,-0.280000
57.336023,-0.026840,-0.331352,0.992104,0.000000,0.840000,-0.560000
57.344110,-0.035624,-0.272304,0.949648,1.260000,0.420000,-0.420000
57.352197,-0.019032,-0.284992,0.972584,-0.280000,-0.700000,-0.280000
57.360285,-0.028304,-0.306464,0.996496,-0.140000,0.840000,-0.700000
57.368372,-0.044896,-0.305976,0.886208,1.820000,0.980000,-0.560000
57.376459,-0.025376,-0.310368,0.967704,1.120000,0.840000,-0.420000
57.384546,-0.052216,-0.244488,1.018456,1.680000,0.280000,-0.560000
57.392633,-0.006832,-0.295728,0.962336,0.420000,0.000000,-0.700000
57.400720,-0.040992,-0.337696,0.963312,1.120000,1.540000,-0.700000
57.408808,-0.050752,-0.270352,0.915976,2.240000,0.140000,-0.700000
57.416895,0.002440,-0.298168,0.991128,0.280000,-0.560000,-0.560000
57.424982,-0.044408,-0.277184,1.001376,1.540000,1.680000,-0.980000
57.433069,-0.036600,-0.325496,0.883280,1.960000,0.700000,-0.420000
57.441156,-0.031232,-0.284504,1.008696,1.960000,0.280000,-0.280000
57.449243,-0.052704,-0.233264,0.960384,0.700000,0.420000,-0.560000
57.457331,0.004880,-0.344040,1.011624,0.140000,0.420000,-0.700000
57.465418,-0.065880,-0.278648,0.944768,1.400000,1.820000,-0.980000
57.473505,-0.020008,-0.293776,0.928176,0.980000,-1.540000,-0.280000
57.481592,-0.007320,-0.287432,1.014064,0.140000,1.960000,-1.120000
57.489679,-0.071248,-0.301096,0.932080,0.560000,0.840000,-0.560000
57.497766,0.004880,-0.303536,0.966240,2.380000,-0.840000,-0.280000
57.505854,-0.039528,-0.267424,0.998936,0.280000,1.960000,-0.840000
57.513941,-0.051240,-0.284992,0.927688,0.560000,-1.120000,-0.280000
57.522028,0.012200,-0.313296,0.979904,0.840000,0.840000,-0.840000
57.530115,-0.095160,-0.263520,0.969656,1.120000,1.680000,-0.560000
57.538202,-0.001464,-0.310856,0.945256,0.420000,-1.680000,-0.280000
57.546289,-0.027328,-0.287920,1.013576,-0.140000,2.100000,-0.980000
57.554377,-0.050752,-0.297680,0.899872,0.840000,0.840000,-0.560000
57.562464,-0.000976,-0.331352,0.971608,1.260000,-0.280000,-0.420000
57.570551,-0.048312,-0.260104,0.991616,1.820000,1.120000,-0.840000
57.578638,-0.048312,-0.282552,0.940376,0.840000,0.420000,-0.700000
57.586725,-0.008296,-0.318664,0.996496,1.260000,1.120000,-0.980000
57.594812,-0.048800,-0.283528,0.917440,2.520000,1.120000,-0.700000
57.602899,-0.029768,-0.300120,0.980880,1.540000,-0.980000,-0.420000
57.610987,-0.008296,-0.269376,1.025776,1.120000,1.120000,-1.260000
57.619074,-0.060024,-0.325496,0.885232,0.840000,1.400000,-0.840000
57.627161,-0.010736,-0.299632,0.976488,2.800000,-0.700000,-0.280000
57.635248,-0.047336,-0.244976,0.986248,1.960000,2.240000,-0.840000
57.643335,-0.031720,-0.299632,0.981368,0.560000,-1.400000,-0.560000
57.651422,-0.007320,-0.291336,0.958432,1.400000,1.120000,-1.120000
57.659510,-0.058072,-0.291336,0.948672,0.840000,1.120000,-0.700000
57.667597,-0.033672,-0.311832,0.961360,0.980000,-0.140000,-0.700000
57.675684,-0.020984,-0.268888,0.980392,0.700000,0.980000,-1.120000
57.683771,-0.039040,-0.298656,0.963800,0.700000,0.420000,-0.560000
57.691858,-0.027816,-0.320128,0.937936,1.120000,1.260000,-1.260000
57.699945,-0.046360,-0.246928,1.004792,1.400000,-0.140000,-0.280000
57.708033,-0.011224,-0.296216,0.950136,0.280000,0.280000,-0.280000
57.716120,-0.034160,-0.323544,0.983320,0.700000,1.260000,-1.120000
57.724207,-0.046360,-0.287920,0.923296,1.680000,0.140000,-0.840000
57.732294,-0.010736,-0.289872,0.970144,0.840000,0.420000,-0.840000
57.740381,-0.045384,-0.265472,0.995520,0.840000,0.560000,-0.560000
57.748468,-0.021960,-0.311344,0.934520,0.560000,0.280000,-0.840000
57.756556,-0.040992,-0.295240,0.991616,0.980000,0.980000,-0.560000
57.764643,-0.048800,-0.255712,0.958432,1.680000,0.560000,-0.560000
57.772730,-0.007808,-0.319640,0.965752,0.280000,-0.280000,-0.420000
57.780817,-0.040992,-0.284504,0.988688,0.420000,1.260000,-0.840000
57.788904,-0.031720,-0.296704,0.921344,1.540000,-0.280000,-0.420000
57.796991,-0.028304,-0.313296,0.967704,1.120000,1.680000,-0.980000
57.805079,-0.048312,-0.252296,0.993568,1.120000,-0.560000,-0.140000
57.813166,-0.008296,-0.293776,0.960872,0.420000,0.700000,-0.840000
57.821253,-0.049288,-0.316224,0.970632,0.700000,0.980000,-0.700000
57.829340,-0.021960,-0.274256,0.941840,1.540000,-0.700000,-0.700000
57.837427,-0.017568,-0.304512,0.967216,0.000000,1.400000,-0.840000
57.845514,-0.060024,-0.284016,0.991128,0.560000,0.280000,-0.280000
57.853602,-0.011712,-0.297680,0.925248,1.400000,0.280000,-1.120000
57.861689,-0.037088,-0.325496,0.958432,1.540000,1.260000,-0.560000
57.869776,-0.038552,-0.232288,0.990152,1.820000,0.420000,-0.280000
57.877863,-0.035136,-0.313784,0.983320,0.280000,0.000000,-0.840000
57.885950,-0.023912,-0.294752,0.961848,1.820000,1.120000,-0.840000
57.894037,-0.024400,-0.283040,0.941840,0.840000,0.560000,-0.700000
57.902125,-0.059048,-0.304512,0.963312,0.000000,0.420000,-0.560000
57.910212,-0.006832,-0.266448,0.984296,1.820000,-0.140000,-0.560000
57.918299,-0.055632,-0.312808,0.952576,0.140000,2.100000,-1.120000
57.926386,-0.022448,-0.305488,0.964288,1.540000,-1.260000,-0.420000
57.934473,-0.021960,-0.241560,0.983808,0.420000,1.120000,-0.980000
57.942560,-0.051728,-0.330864,0.967704,-0.560000,0.980000,-0.560000
57.950647,-0.009760,-0.292800,0.951600,1.820000,0.700000,-1.260000
57.958735,-0.045384,-0.275232,0.964776,1.400000,0.420000,-0.840000
57.966822,-0.009760,-0.314760,0.955016,1.820000,-0.280000,-0.420000
57.974909,-0.036112,-0.254248,1.008696,0.420000,1.960000,-1.260000
57.982996,-0.050264,-0.319640,0.931592,0.560000,0.140000,-0.560000
57.991083,-0.005856,-0.294264,0.948184,1.820000,0.700000,-0.840000
57.999170,-0.075152,-0.245464,1.006744,0.560000,1.540000,-0.840000
58.007258,-0.007808,-0.318664,0.953064,0.560000,-0.980000,-0.420000
58.015345,-0.018056,-0.314760,0.961848,1.400000,1.820000,-1.400000
58.023432,-0.064904,-0.259616,0.967704,2.800000,0.280000,0.000000
58.031519,-0.001952,-0.311344,0.963800,0.420000,0.000000,-0.700000
58.039606,-0.041968,-0.267912,0.992104,1.120000,1.120000,-0.840000
58.047693,-0.011712,-0.305976,0.914512,0.420000,-0.560000,-0.420000
58.055781,-0.041968,-0.310368,0.976000,0.560000,1.120000,-0.420000
58.063868,-0.059048,-0.250832,0.975024,1.820000,0.140000,-0.560000
58.071955,-0.012688,-0.295240,0.986736,-0.700000,0.000000,-0.840000
58.080042,-0.033184,-0.314272,0.982832,0.560000,1.260000,-0.980000
58.088129,-0.034160,-0.286456,0.910120,1.680000,0.280000,-0.700000
58.096216,-0.027328,-0.311832,0.967216,0.700000,0.420000,-0.700000
58.104304,-0.025376,-0.266448,0.999424,1.400000,0.560000,-0.700000
58.112391,-0.028792,-0.313296,0.932568,1.400000,0.000000,-0.840000
58.120478,-0.037576,-0.290360,0.979416,1.540000,1.820000,-0.840000
58.128565,-0.057584,-0.263032,0.953552,2.240000,0.140000,-0.420000
58.136652,0.002928,-0.293288,0.990152,-0.140000,0.000000,-1.120000
58.144739,-0.031720,-0.291824,0.984784,0.980000,0.420000,-0.420000
58.152827,-0.046360,-0.281088,0.922320,0.980000,1.400000,-1.120000
58.160914,-0.045872,-0.326960,0.964776,0.560000,0.560000,-0.700000
58.169001,0.002440,-0.259128,0.983320,0.980000,-0.140000,-0.700000
58.177088,-0.054656,-0.308416,0.955504,0.280000,0.980000,-0.980000
58.185175,-0.027328,-0.309880,0.964288,2.240000,-0.280000,-0.420000
58.193262,-0.044408,-0.256200,0.968680,1.120000,1.820000,-1.400000
58.201350,-0.025376,-0.308416,0.972584,0.840000,-1.120000,-0.140000
58.209437,-0.017080,-0.282064,0.984784,0.420000,2.240000,-1.400000
58.217524,-0.076128,-0.294264,0.922808,1.400000,0.140000,-0.420000
58.225611,0.027816,-0.294264,0.973560,1.400000,-0.140000,-0.700000
58.233698,-0.070760,-0.257176,0.994544,-0.140000,1.820000,-0.700000
58.241785,-0.033184,-0.321592,0.950136,0.840000,-0.840000,-0.560000
58.249873,0.002440,-0.290848,0.970144,0.980000,1.680000,-1.400000
58.257960,-0.049776,-0.283040,0.973072,1.400000,0.140000,-0.140000
58.266047,-0.027816,-0.295728,0.943792,0.840000,0.140000,-0.840000
58.274134,-0.032696,-0.294752,0.993568,0.840000,0.700000,-0.700000
58.282221,-0.023424,-0.284016,0.941840,1.820000,0.840000,-0.560000
58.290308,-0.066856,-0.329888,0.939400,1.960000,1.260000,-1.120000
58.298396,-0.008296,-0.254248,1.011624,2.380000,-1.120000,-0.140000
58.306483,-0.034160,-0.279136,0.935496,0.280000,2.240000,-0.980000
58.314570,-0.042944,-0.333304,0.974536,1.120000,-0.140000,-0.560000
58.322657,-0.019520,-0.257664,0.980880,2.380000,0.140000,-0.840000
58.330744,-0.038552,-0.302072,0.936472,0.980000,1.820000,-1.120000
58.338831,-0.006832,-0.290848,0.988688,1.820000,-0.560000,-0.140000
58.346919,-0.050264,-0.285968,0.964776,1.120000,0.980000,-0.980000
58.355006,-0.044896,-0.318664,0.936960,2.100000,0.560000,-0.840000
58.363093,0.003904,-0.249368,0.975024,2.940000,0.140000,-0.280000
58.371180,-0.077104,-0.288408,0.980392,-0.280000,1.820000,-1.120000
58.379267,-0.021960,-0.308904,0.962824,1.680000,-0.280000,-0.420000
58.387354,-0.011224,-0.255712,0.983808,1.260000,1.120000,-0.980000
58.395441,-0.072712,-0.315248,0.936472,0.700000,0.420000,-0.420000
58.403529,0.021472,-0.279136,0.991128,2.100000,-0.700000,-0.420000
58.411616,-0.074176,-0.265960,0.978440,-0.700000,2.800000,-0.980000
58.419703,-0.020984,-0.322568,0.910608,0.700000,-1.540000,0.000000
58.427790,0.005856,-0.275720,1.009672,0.840000,0.840000,-0.840000
58.435877,-0.082472,-0.278648,0.971120,0.280000,1.120000,-0.420000
58.443964,-0.013176,-0.315248,0.922320,0.140000,-0.420000,-0.560000
58.452052,-0.031232,-0.285480,1.010160,1.400000,1.680000,-0.980000
58.460139,-0.042456,-0.284992,0.950136,1.680000,-0.980000,-0.280000
58.468226,-0.012200,-0.311344,0.948184,0.700000,1.120000,-1.120000
58.476313,-0.052216,-0.260592,1.001376,1.400000,0.140000,-0.140000
58.484400,-0.028304,-0.289872,0.944280,0.420000,0.700000,-0.700000
58.492487,-0.029768,-0.329888,0.950624,0.840000,1.260000,-1.120000
58.500575,-0.035136,-0.257664,0.983808,1.960000,-0.280000,-0.420000
58.508662,-0.016592,-0.297192,0.958920,0.560000,0.840000,-0.840000
58.516749,-0.043920,-0.300120,0.973072,0.840000,0.140000,-0.420000
58.524836,-0.037576,-0.276696,0.953552,1.260000,1.400000,-1.260000
58.532923,-0.033184,-0.311344,0.963312,1.960000,0.560000,-0.840000
58.541010,0.002928,-0.276696,0.978928,1.820000,-0.840000,-0.140000
58.549098,-0.068808,-0.271328,0.944768,0.980000,2.240000,-1.400000
58.557185,-0.028792,-0.317200,0.985760,1.260000,0.280000,-0.560000
58.565272,-0.011712,-0.268888,0.967216,1.960000,0.280000,-0.840000
58.573359,-0.061488,-0.295728,0.935984,2.240000,1.400000,-1.400000
58.581446,-0.005856,-0.295728,1.018944,1.680000,-0.840000,0.000000
58.589533,-0.033184,-0.252296,0.941840,0.560000,1.400000,-0.840000
58.597621,-0.059536,-0.337696,0.959408,1.680000,1.120000,-0.840000
58.605708,-0.005856,-0.284016,0.956480,1.820000,-0.140000,-0.420000
58.613795,-0.015128,-0.272792,0.975512,2.100000,0.420000,-0.700000
58.621882,-0.061488,-0.276696,0.985760,1.260000,0.280000,-0.560000
58.629969,-0.011712,-0.291336,0.993080,0.420000,0.840000,-0.980000
58.638056,-0.059048,-0.292312,0.892064,1.680000,1.540000,-0.840000
58.646144,-0.000976,-0.307440,0.988200,1.260000,-1.400000,-0.280000
58.654231,-0.060512,-0.269376,0.976976,0.840000,2.520000,-1.400000
58.662318,-0.025376,-0.282552,0.957944,2.100000,-1.540000,0.140000
58.670405,-0.004880,-0.305488,0.955504,0.560000,2.520000,-1.260000
58.678492,-0.100528,-0.265960,0.996984,0.980000,0.700000,-0.420000
58.686579,0.013664,-0.277672,0.940376,0.980000,-1.120000,-0.420000
58.694667,-0.027816,-0.309880,1.005280,-0.560000,1.680000,-0.980000
58.702754,-0.057096,-0.288896,0.950136,1.120000,0.420000,-0.420000
58.710841,-0.005368,-0.290360,0.939888,1.540000,0.000000,-0.840000
58.718928,-0.036112,-0.299632,0.986248,0.700000,0.700000,-0.700000
58.727015,-0.032696,-0.247904,0.971120,1.260000,0.000000,-0.420000
58.735102,-0.030744,-0.316712,0.956480,0.000000,1.400000,-1.120000
58.743190,-0.042944,-0.317200,0.968680,1.400000,0.280000,-0.280000
58.751277,-0.032696,-0.256688,0.939888,2.520000,1.260000,-0.840000
58.759364,-0.037576,-0.318176,0.972584,1.820000,-0.140000,-0.140000
58.767451,0.001464,-0.264984,0.999912,2.380000,-0.280000,-0.560000
58.775538,-0.054656,-0.284992,0.953552,1.400000,1.680000,-1.120000
58.783625,-0.037088,-0.323056,0.933544,2.240000,0.700000,-0.420000
58.791713,-0.026352,-0.275232,0.982832,2.800000,0.280000,-0.560000
58.799800,-0.049288,-0.253760,0.957944,2.800000,0.840000,-0.700000
58.807887,0.011224,-0.337208,0.995520,1.540000,-0.280000,-0.280000
58.815974,-0.068808,-0.265472,0.957944,3.220000,2.240000,-0.840000
58.824061,-0.029768,-0.293776,0.952088,3.220000,-0.420000,-0.420000
58.832148,0.002440,-0.295240,0.958432,2.380000,0.840000,-0.560000
58.840235,-0.056608,-0.269376,1.003816,3.500000,0.420000,-0.280000
58.848323,-0.026352,-0.305000,0.918416,3.080000,1.400000,-0.840000
58.856410,-0.046848,-0.299632,0.973072,3.220000,1.680000,-0.840000
58.864497,-0.036112,-0.265472,0.948184,3.220000,-0.700000,-0.420000
58.872584,-0.004880,-0.275720,1.005280,2.380000,0.560000,-0.420000
58.880671,-0.060512,-0.275232,0.990152,2.380000,1.260000,-0.840000
58.888758,-0.028304,-0.305488,0.909632,3.780000,0.840000,-0.700000
58.896846,-0.022936,-0.302072,0.984296,3.640000,-0.140000,-0.420000
58.904933,-0.040016,-0.253272,0.957456,3.780000,0.980000,-0.420000
58.913020,-0.009272,-0.296704,0.996008,3.080000,0.700000,-0.840000
58.921107,-0.051728,-0.290848,0.982832,3.220000,1.540000,-0.420000
58.929194,-0.047336,-0.264984,0.906704,4.060000,0.280000,-0.560000
58.937281,-0.015616,-0.292800,1.006744,2.940000,0.560000,-0.700000
58.945369,-0.024888,-0.267912,0.991616,3.640000,-0.140000,-0.420000
58.953456,-0.045384,-0.274256,0.946720,3.500000,1.820000,-0.700000
58.961543,-0.041480,-0.328424,0.947696,3.080000,1.120000,-0.420000
58.969630,-0.031232,-0.256688,0.977464,4.480000,-0.560000,-0.560000
58.977717,-0.016104,-0.254248,0.982344,3.360000,0.840000,-0.560000
58.985804,-0.024888,-0.310368,0.989664,2.520000,1.120000,-0.140000
58.993892,-0.062952,-0.257664,0.944280,4.060000,1.260000,-0.700000
59.001979,-0.018544,-0.308904,0.958920,4.200000,-0.560000,0.000000
59.010066,-0.006344,-0.273280,0.967216,3.500000,1.120000,-0.420000
59.018153,-0.072712,-0.267424,0.970144,4.060000,1.120000,-0.700000
59.026240,-0.008784,-0.301096,1.011136,3.640000,-0.280000,0.000000
59.034327,-0.048800,-0.252296,0.918416,4.060000,2.100000,-0.420000
59.042415,-0.033672,-0.277184,0.972096,3.640000,0.420000,-0.560000
59.050502,-0.016104,-0.280600,0.999424,3.220000,-0.420000,0.000000
59.058589,-0.055144,-0.253272,0.971608,3.500000,1.960000,-0.840000
59.066676,-0.029280,-0.313784,0.923784,3.500000,0.560000,-0.280000
59.074763,-0.011712,-0.263032,1.016504,3.500000,-0.420000,-0.280000
59.082850,-0.055144,-0.250344,0.946232,3.360000,1.680000,-0.700000
59.090938,-0.019520,-0.308416,0.978440,1.820000,0.560000,-0.420000
59.099025,-0.042944,-0.273768,0.952576,3.640000,1.120000,-0.560000
59.107112,-0.053680,-0.255712,0.991616,3.920000,1.260000,-0.560000
59.115199,0.002928,-0.278160,0.966728,2.800000,-1.260000,0.420000
59.123286,-0.044896,-0.249368,0.942816,3.220000,2.240000,-0.840000
59.131373,-0.047336,-0.322080,0.999424,2.520000,0.700000,-0.700000
59.139461,-0.028304,-0.246440,0.974048,2.940000,-0.140000,-0.140000
59.147548,-0.019032,-0.238144,0.958920,2.520000,0.700000,-0.840000
59.155635,-0.028304,-0.325008,1.002352,1.120000,0.140000,-0.280000
59.163722,-0.045384,-0.243024,0.922320,3.920000,1.400000,-0.560000
59.171809,-0.051728,-0.299144,1.002840,2.800000,0.840000,-0.560000
59.179896,-0.005368,-0.243024,0.967704,1.820000,-0.560000,0.000000
59.187984,-0.009760,-0.266448,0.977464,2.380000,0.980000,-0.420000
59.196071,-0.078568,-0.306464,0.986736,1.540000,1.400000,-0.140000
59.204158,-0.031232,-0.247416,0.903288,2.800000,-0.140000,0.000000
59.212245,-0.014152,-0.283528,0.985272,2.660000,0.280000,0.000000
59.220332,-0.028792,-0.262544,1.030168,1.680000,0.280000,-0.140000
59.228419,-0.079056,-0.252784,0.950624,2.800000,1.680000,-0.280000
59.236506,0.009272,-0.303048,0.949160,3.640000,0.000000,0.280000
59.244594,-0.020984,-0.251320,0.982344,2.100000,1.260000,0.140000
59.252681,-0.069784,-0.265960,0.970632,2.800000,-0.980000,0.000000
59.260768,0.000000,-0.265960,1.015040,1.260000,0.840000,-0.560000
59.268855,-0.068320,-0.267912,0.913536,0.840000,1.960000,-0.700000
59.276942,-0.021960,-0.287920,0.984296,2.100000,-0.980000,-0.420000
59.285029,-0.016104,-0.277184,0.985272,1.260000,0.980000,-0.700000
59.293117,-0.037088,-0.240584,0.983320,1.960000,0.000000,-0.420000
59.301204,-0.046848,-0.297192,0.951600,1.820000,1.820000,-0.840000
59.309291,-0.053192,-0.272304,0.994544,1.680000,0.280000,-0.280000
59.317378,-0.010248,-0.217160,0.916464,1.540000,-0.840000,-0.140000
59.325465,-0.029768,-0.312320,1.009672,-0.980000,1.540000,-1.120000
59.333552,-0.077592,-0.260592,0.956480,1.120000,1.260000,-0.420000
59.341640,-0.009272,-0.257176,0.976000,1.680000,-0.560000,-0.280000
59.349727,-0.008296,-0.295728,0.975512,0.000000,0.280000,-0.140000
59.357814,-0.055632,-0.216672,0.975024,1.400000,0.980000,-0.560000
59.365901,-0.036600,-0.319152,1.024312,0.420000,0.140000,-0.700000
59.373988,-0.017568,-0.255712,0.909632,0.980000,0.840000,-0.560000
59.382075,-0.046848,-0.261568,0.951600,0.840000,0.140000,-0.420000
59.390163,-0.014640,-0.289872,1.019920,-0.140000,-0.140000,0.420000
59.398250,-0.049776,-0.230336,0.951112,0.420000,1.540000,-0.840000
59.406337,-0.051240,-0.311344,0.962824,0.420000,0.560000,-0.980000
59.414424,-0.001952,-0.253760,1.009184,0.980000,-1.120000,-0.140000
59.422511,-0.051728,-0.237656,0.964776,0.700000,1.400000,-0.420000
59.430598,-0.044408,-0.306464,0.963312,-0.420000,0.420000,-0.560000
59.438686,-0.004392,-0.265960,0.957944,0.140000,0.280000,-0.560000
59.446773,-0.065392,-0.261080,0.957944,0.840000,0.840000,-0.700000
59.454860,-0.007808,-0.286944,0.982344,-0.420000,-0.280000,0.000000
59.462947,-0.032696,-0.242048,1.000400,0.140000,0.980000,-1.260000
59.471034,-0.053192,-0.278160,0.984296,-0.560000,0.140000,-0.840000
59.479121,-0.018544,-0.270352,0.923784,-1.260000,0.700000,-0.700000
59.487209,-0.048800,-0.264008,0.972584,-0.560000,0.700000,-0.700000
59.495296,-0.013664,-0.272792,0.996008,-1.680000,-0.560000,-0.700000
59.503383,-0.046848,-0.288408,0.963312,-1.960000,1.680000,-1.260000
59.511470,-0.052704,-0.259616,0.955016,-0.700000,0.420000,-1.120000
59.519557,-0.009760,-0.279136,0.997960,-1.680000,-0.980000,-0.420000
59.527644,-0.026840,-0.264008,0.954528,-1.680000,1.400000,-1.260000
59.535732,-0.043432,-0.256688,1.005280,-1.960000,-0.140000,-0.700000
59.543819,-0.030744,-0.292800,0.933544,-2.520000,1.260000,-1.400000
59.551906,-0.057584,-0.283528,0.952088,-1.400000,0.700000,-0.700000
59.559993,0.009760,-0.237168,1.008696,-1.960000,-1.120000,-0.700000
59.568080,-0.061488,-0.287432,0.966728,-3.920000,1.680000,-1.400000
59.576167,-0.014640,-0.279624,0.973560,-1.680000,-0.840000,-0.560000
59.584255,-0.038552,-0.269864,0.966728,-2.940000,1.960000,-1.540000
59.592342,-0.088328,-0.309392,0.934032,-1.820000,-0.560000,-0.280000
59.600429,0.054656,-0.240584,1.007720,-1.120000,-0.560000,-0.700000
59.608516,-0.088328,-0.270352,0.981368,-4.060000,2.100000,-1.260000
59.616603,-0.026352,-0.303048,0.941840,-1.680000,-2.240000,-0.140000
59.624690,-0.006832,-0.260104,0.975512,-2.800000,2.660000,-1.400000
59.632778,-0.106384,-0.279624,0.955016,-3.080000,0.140000,-0.420000
59.640865,0.042456,-0.297680,0.979904,-1.820000,-1.540000,-0.700000
59.648952,-0.054656,-0.257664,0.999424,-3.500000,2.800000,-1.260000
59.657039,-0.049288,-0.290360,0.940376,-1.680000,-1.680000,-0.140000
59.665126,-0.003416,-0.308416,0.950624,-2.240000,1.680000,-1.540000
59.673213,-0.094672,-0.241560,0.991128,-1.820000,0.140000,-0.140000
59.681300,0.026352,-0.265472,0.965752,-2.240000,-1.680000,-0.560000
59.689388,-0.033672,-0.292312,1.011136,-4.900000,3.080000,-2.100000
59.697475,-0.075152,-0.280600,0.919392,-2.940000,-1.680000,0.140000
59.705562,0.011712,-0.298168,0.959896,-2.240000,0.700000,-1.120000
59.713649,-0.066856,-0.310368,0.977952,-3.220000,1.400000,-0.980000
59.721736,0.001952,-0.234728,0.986736,-0.700000,-2.240000,0.280000
59.729823,-0.031232,-0.318664,0.964776,-2.660000,3.080000,-1.680000
59.737911,-0.063440,-0.284504,0.987224,-1.820000,-0.840000,-0.280000
59.745998,-0.023424,-0.241560,0.915000,-1.260000,0.280000,-0.840000
59.754085,-0.024400,-0.348432,1.007720,-2.800000,0.420000,-0.700000
59.762172,0.016104,-0.263032,0.973072,-0.980000,-0.840000,-0.280000
59.770259,-0.090768,-0.302072,0.922808,-1.960000,2.380000,-1.260000
59.778346,-0.029768,-0.304024,0.956968,-1.260000,-1.680000,0.140000
59.786434,-0.001952,-0.214720,0.972096,-1.820000,0.560000,-1.260000
59.794521,-0.072712,-0.314760,1.012112,-3.920000,1.400000,-1.540000
59.802608,0.008784,-0.291824,0.942328,-2.100000,-1.540000,0.000000
59.810695,-0.049776,-0.279136,0.936472,-2.660000,3.080000,-1.820000
59.818782,-0.079544,-0.308904,0.982832,-2.520000,-1.400000,0.000000
59.826869,0.048800,-0.283040,0.964288,-0.700000,-1.260000,-0.140000
59.834957,-0.098576,-0.267424,1.010160,-2.520000,3.500000,-0.980000
59.843044,-0.014152,-0.327448,0.943304,-0.700000,-2.240000,0.140000
59.851131,0.009760,-0.300120,0.967216,-0.420000,1.260000,-0.700000
59.859218,-0.092232,-0.277672,0.915976,-0.980000,0.840000,-0.560000
59.867305,0.008784,-0.304512,1.003328,-1.400000,-0.840000,-0.560000
59.875392,-0.028792,-0.278648,0.967216,-0.840000,2.520000,-1.260000
59.883480,-0.047336,-0.312808,0.911096,0.000000,-0.840000,-0.280000
59.891567,-0.008296,-0.289384,0.998448,-0.140000,0.560000,-0.700000
59.899654,-0.090280,-0.235704,0.970632,-0.140000,1.400000,-0.700000
59.907741,0.017080,-0.352336,0.969168,-0.840000,-1.260000,-0.840000
59.915828,-0.015616,-0.280112,0.980880,0.280000,2.240000,-1.540000
59.923915,-0.078568,-0.290848,0.906216,0.420000,0.000000,0.000000
59.932003,0.008296,-0.288896,1.006256,-0.700000,-0.560000,-0.840000
59.940090,-0.059048,-0.269864,0.950624,-0.140000,2.240000,-0.980000
59.948177,0.006344,-0.325984,0.960872,0.700000,-1.260000,-0.280000
59.956264,-0.047336,-0.285968,0.991616,0.280000,1.540000,-0.840000
59.964351,-0.071736,-0.270352,0.938912,0.700000,0.140000,-0.700000
59.972438,0.006344,-0.325496,0.979416,-0.840000,0.980000,-1.120000
59.980526,-0.044408,-0.294752,0.989176,1.260000,0.560000,-0.560000
59.988613,-0.036112,-0.287432,0.887672,0.980000,0.280000,-0.840000
59.996700,-0.028304,-0.307440,1.000400,0.280000,0.560000,-0.700000
60.004787,-0.043920,-0.264008,0.966728,1.400000,0.840000,-0.280000
60.012874,-0.023912,-0.335744,0.972096,1.400000,0.280000,-1.120000
60.020961,-0.037088,-0.265472,0.983808,2.520000,0.280000,-0.420000
60.029049,-0.037088,-0.249856,0.907680,0.840000,1.260000,-0.700000
60.037136,-0.015616,-0.333792,1.034560,0.000000,-1.120000,-0.280000
60.045223,-0.007320,-0.270352,0.949160,1.540000,1.680000,-0.980000
60.053310,-0.070272,-0.301096,0.929640,-0.560000,0.980000,-0.840000
60.061397,-0.021472,-0.291824,0.994056,0.560000,-1.400000,-0.140000
60.069484,-0.020008,-0.262056,0.954040,0.420000,1.960000,-0.840000
60.077572,-0.059048,-0.346480,0.983320,0.700000,0.840000,-0.560000
60.085659,-0.006344,-0.272304,0.945256,2.240000,-0.560000,-0.840000
60.093746,-0.041480,-0.276208,0.963312,0.840000,1.540000,-1.120000
60.101833,-0.019032,-0.310856,0.997960,0.420000,-0.840000,-0.140000
60.109920,-0.054656,-0.285480,0.928176,0.840000,2.660000,-1.540000
60.118007,-0.025864,-0.311344,0.964776,1.260000,-0.700000,-0.420000
60.126095,-0.001952,-0.269864,0.990640,1.120000,-0.140000,-0.280000
60.134182,-0.104432,-0.284016,0.920368,0.980000,2.520000,-0.980000
60.142269,0.018056,-0.325008,1.006744,1.540000,-1.120000,-0.560000
60.150356,-0.004880,-0.294752,0.961360,2.100000,2.240000,-0.980000
60.158443,-0.078080,-0.274744,0.926224,2.240000,-0.560000,-0.140000
60.166530,0.005856,-0.289872,1.014552,1.120000,0.140000,-0.700000
60.174617,-0.081984,-0.276696,0.942328,1.680000,2.940000,-0.980000
60.182705,0.005856,-0.351360,0.942816,3.640000,-1.260000,-0.280000
60.190792,-0.026840,-0.274256,1.008208,3.360000,1.820000,-0.840000
60.198879,-0.049776,-0.269376,0.907680,4.200000,-0.140000,-0.280000
60.206966,-0.010736,-0.325496,1.018944,2.520000,0.980000,-0.700000
60.215053,-0.095160,-0.244976,0.929152,4.340000,1.540000,-0.560000
60.223140,0.043432,-0.290360,0.983320,2.100000,-1.260000,-0.280000
60.231228,-0.052216,-0.278160,1.021384,-0.700000,1.260000,-0.560000
60.239315,-0.050264,-0.291336,0.884256,1.400000,-0.140000,-0.420000
60.247402,0.012200,-0.327936,0.970632,1.400000,0.980000,-0.140000
60.255489,-0.078568,-0.250344,0.983320,1.680000,0.560000,0.140000
60.263576,-0.028304,-0.284504,0.961848,1.960000,-0.420000,-0.420000
60.271663,-0.011712,-0.318664,1.019432,1.400000,0.980000,-0.280000
60.279751,-0.042944,-0.238632,0.930128,2.100000,0.840000,-0.280000
60.287838,-0.037576,-0.325496,0.950136,0.420000,0.420000,-0.420000
60.295925,-0.008784,-0.287920,1.009184,0.700000,-0.280000,-0.420000
60.304012,-0.041480,-0.271816,0.931104,0.700000,1.120000,-0.980000
60.312099,-0.038552,-0.322568,0.971120,0.700000,0.700000,-0.560000
60.320186,-0.007808,-0.280600,0.976976,1.680000,-0.140000,-0.560000
60.328274,-0.070760,-0.274744,0.938424,2.100000,1.540000,-0.980000
60.336361,-0.013664,-0.306464,0.985760,0.420000,-0.140000,-0.140000
60.344448,-0.039528,-0.255224,0.974048,0.840000,0.560000,-0.700000
60.352535,-0.028304,-0.315736,0.954040,1.120000,0.560000,-0.980000
60.360622,-0.028304,-0.318664,0.959408,0.980000,0.980000,-0.420000
60.368709,-0.040504,-0.250832,0.952088,2.800000,0.980000,-0.700000
60.376797,-0.031232,-0.292312,1.001376,0.980000,-0.140000,-0.700000
60.384884,-0.007808,-0.295240,0.969656,0.420000,0.700000,-0.560000
60.392971,-0.084912,-0.262544,0.931104,1.680000,2.380000,-0.980000
60.401058,-0.003904,-0.315736,0.996496,0.980000,-1.960000,-0.280000
60.409145,-0.003416,-0.275232,0.944768,0.840000,1.400000,-1.120000
60.417232,-0.073688,-0.262056,0.981856,0.980000,0.700000,-0.280000
60.425320,-0.013176,-0.328912,0.958920,0.140000,0.280000,-0.840000
60.433407,-0.030256,-0.291336,0.955016,1.680000,1.120000,-0.700000
60.441494,-0.065392,-0.245464,0.957456,1.260000,0.700000,-0.140000
60.449581,0.005856,-0.311832,1.012112,0.000000,-1.120000,-0.560000
60.457668,-0.031720,-0.271816,0.977464,0.420000,1.260000,-1.260000
60.465755,-0.045872,-0.290848,0.941352,0.000000,0.420000,-0.420000
60.473843,-0.035624,-0.325984,0.924760,0.840000,0.980000,-0.560000
60.481930,-0.013176,-0.266448,1.002840,1.400000,-0.280000,-0.280000
60.490017,-0.028304,-0.270840,0.966728,0.000000,0.420000,-0.140000
60.498104,-0.053680,-0.318176,0.957944,0.280000,0.840000,-0.560000
60.506191,-0.027328,-0.274256,0.985760,1.400000,0.420000,-0.700000
60.514278,-0.038552,-0.294752,0.935984,0.980000,1.120000,-0.840000
60.522366,-0.020008,-0.312808,0.943304,2.100000,-0.560000,0.140000
60.530453,-0.024888,-0.249856,1.032608,1.260000,0.840000,-0.980000
60.538540,-0.062952,-0.296704,0.929640,0.980000,0.560000,-0.560000
60.546627,-0.007808,-0.312320,0.952088,1.120000,0.980000,-0.560000
60.554714,-0.060512,-0.276696,0.978928,0.980000,1.120000,-0.840000
60.562801,-0.009760,-0.280600,0.948184,2.240000,-0.840000,-0.700000
60.570889,-0.014152,-0.302072,1.001864,0.700000,1.400000,-0.840000
60.578976,-0.065392,-0.273280,0.961848,1.260000,0.420000,-0.420000
60.587063,-0.019032,-0.293776,0.942816,1.680000,0.840000,-1.400000
60.595150,-0.030256,-0.317688,0.979904,0.700000,0.420000,-0.560000
60.603237,-0.021472,-0.244976,0.952576,2.380000,0.000000,-0.140000
60.611324,-0.035624,-0.300120,0.975024,0.420000,1.120000,-1.260000
60.619412,-0.034160,-0.313296,0.992592,0.840000,0.000000,-0.280000
60.627499,-0.032696,-0.235216,0.920856,1.680000,1.680000,-0.840000
60.635586,-0.058072,-0.326472,0.987712,0.420000,0.140000,-0.560000
60.643673,0.016104,-0.270352,0.973560,0.840000,-0.700000,-0.280000
60.651760,-0.043920,-0.289384,0.968680,0.420000,1.820000,-1.120000
60.659847,-0.065880,-0.302072,0.967704,0.560000,-0.140000,-0.560000
60.667935,0.007320,-0.277672,0.941840,1.120000,0.700000,-0.280000
60.676022,-0.061000,-0.286944,0.989176,0.420000,1.540000,-0.700000
60.684109,-0.021960,-0.281576,0.963800,0.560000,-1.960000,-0.280000
60.692196,-0.000976,-0.295728,0.970632,0.420000,2.100000,-1.260000
60.700283,-0.071736,-0.284992,0.963800,0.700000,0.700000,-0.140000
60.708370,-0.034160,-0.288896,0.949160,1.400000,-0.560000,-0.280000
60.716458,-0.011712,-0.298656,0.976000,0.840000,1.680000,-0.980000
60.724545,-0.033672,-0.263032,0.982344,0.840000,-1.400000,0.280000
60.732632,-0.035136,-0.301584,0.939400,0.840000,1.680000,-0.980000
60.740719,-0.054168,-0.307440,0.981368,0.420000,1.400000,-0.840000
60.748806,-0.008784,-0.252784,0.956968,1.120000,-0.980000,0.140000
60.756893,-0.044408,-0.318176,0.961848,0.000000,1.680000,-0.840000
60.764980,-0.032208,-0.281088,1.009184,0.980000,-0.980000,-0.420000
60.773068,-0.011712,-0.264008,0.935496,0.420000,0.980000,-0.840000
60.781155,-0.081984,-0.337208,0.946232,0.700000,2.240000,-0.980000
60.789242,0.004392,-0.265960,0.987712,2.520000,-1.820000,0.280000
60.797329,-0.019520,-0.273768,0.967704,1.120000,1.540000,-0.700000
60.805416,-0.074664,-0.312808,0.968680,0.000000,0.280000,-0.420000
60.813503,0.011224,-0.254736,0.977952,1.400000,-0.280000,-0.280000
60.821591,-0.046848,-0.301096,0.953064,0.000000,1.960000,-0.700000
60.829678,-0.056608,-0.307928,0.925248,1.120000,-0.280000,-0.140000
60.837765,-0.000488,-0.253760,1.009672,0.840000,-0.420000,-0.140000
60.845852,-0.038552,-0.301584,0.972096,0.280000,1.260000,-0.980000
60.853939,-0.032208,-0.309392,0.957456,0.420000,0.420000,-0.420000
60.862026,-0.037088,-0.268400,0.943304,0.840000,1.260000,-0.980000
60.870114,-0.056608,-0.300120,0.972584,0.700000,0.140000,-0.560000
60.878201,0.017080,-0.279624,0.985760,0.560000,-0.280000,-0.560000
60.886288,-0.055144,-0.279136,0.976488,-0.140000,1.540000,-0.980000
60.894375,-0.054656,-0.306952,0.947208,0.980000,-0.420000,-0.420000
60.902462,0.003416,-0.284016,0.968192,1.120000,0.700000,-0.560000
60.910549,-0.062952,-0.274256,0.958432,0.840000,0.840000,-0.560000
60.918637,-0.021472,-0.304024,0.972096,0.700000,-0.560000,-0.700000
60.926724,-0.026840,-0.282552,0.966728,-0.140000,2.240000,-1.400000
60.934811,-0.028792,-0.293288,0.959408,1.120000,0.000000,-0.280000
60.942898,-0.033184,-0.303536,0.946720,1.400000,0.000000,-0.280000
60.950985,-0.028304,-0.270352,1.000888,1.120000,1.400000,-0.840000
60.959072,-0.036112,-0.287920,0.948184,0.700000,-0.420000,-0.420000
60.967160,-0.041480,-0.307928,0.972584,0.840000,0.560000,-0.980000
60.975247,-0.023424,-0.290360,0.961848,2.240000,1.260000,-0.980000
60.983334,-0.036600,-0.268400,0.974536,1.540000,0.560000,-0.840000
60.991421,-0.030744,-0.318176,0.941352,1.960000,-0.560000,-0.280000
60.999508,-0.018544,-0.265960,0.997472,1.260000,1.540000,-1.120000
61.007595,-0.058072,-0.272304,0.976000,0.000000,1.540000,-1.120000
61.015683,-0.013176,-0.322080,0.937936,1.680000,-0.700000,-0.420000
61.023770,-0.035136,-0.282552,0.962336,1.960000,1.540000,-0.980000
61.031857,-0.041480,-0.275720,0.975024,1.960000,-0.560000,-0.420000
61.039944,0.001952,-0.305488,0.954040,1.260000,0.700000,-0.700000
61.048031,-0.065392,-0.263520,1.001376,1.820000,1.680000,-0.840000
61.056118,-0.044408,-0.296216,0.936472,0.840000,-0.280000,-0.280000
61.064206,-0.006832,-0.303536,0.957456,1.400000,0.420000,-0.840000
61.072293,-0.044896,-0.275232,0.998448,1.540000,0.980000,-0.560000
61.080380,-0.023424,-0.286944,0.950624,0.840000,0.140000,-0.980000
61.088467,-0.035624,-0.309880,0.955992,1.540000,1.260000,-0.980000
61.096554,-0.048800,-0.262056,0.976976,2.240000,-0.140000,-0.140000
61.104641,-0.018544,-0.291336,0.948184,0.980000,0.840000,-0.980000
61.112729,-0.026840,-0.300608,0.989176,1.260000,0.840000,-0.700000
61.120816,-0.025864,-0.275232,0.962336,1.400000,0.140000,-0.280000
61.128903,-0.053680,-0.290360,0.963800,1.820000,1.260000,-1.260000
61.136990,-0.031720,-0.312320,0.953064,1.820000,0.280000,-0.280000
61.145077,-0.016592,-0.245464,0.982344,1.820000,0.280000,-0.560000
61.153164,-0.041968,-0.301584,0.982344,1.540000,0.700000,-0.840000
61.161252,-0.007808,-0.300608,0.950136,1.260000,0.140000,-0.420000
61.169339,-0.058560,-0.264984,0.955992,1.540000,1.960000,-0.840000
61.177426,-0.041968,-0.297680,0.967704,1.820000,-0.560000,-0.140000
61.185513,0.013176,-0.285968,0.980880,1.820000,0.000000,-0.280000
61.193600,-0.073200,-0.263032,0.982832,0.980000,1.680000,-0.840000
61.201687,-0.032208,-0.312320,0.959408,1.400000,-0.140000,-0.560000
61.209775,0.005368,-0.296704,0.954528,1.820000,1.120000,-1.260000
61.217862,-0.084912,-0.267424,0.960872,2.100000,1.260000,-0.280000
61.225949,0.010736,-0.289872,0.954528,2.380000,-1.120000,0.420000
61.234036,-0.037088,-0.301584,1.000400,0.700000,2.240000,-0.840000
61.242123,-0.071736,-0.254248,0.949648,2.520000,-0.140000,-0.280000
61.250210,-0.001464,-0.314272,0.968680,1.540000,0.560000,-0.700000
61.258298,-0.047824,-0.268400,0.968680,2.100000,0.840000,-0.420000
61.266385,-0.007808,-0.269864,0.961360,1.960000,-1.120000,-0.420000
61.274472,-0.043920,-0.309880,0.984296,0.420000,2.100000,-1.120000
61.282559,-0.039040,-0.279624,0.941840,2.240000,-0.140000,-0.140000
61.290646,-0.035624,-0.277184,0.962336,1.680000,1.400000,-0.980000
61.298733,-0.037088,-0.312320,0.969656,1.680000,-0.140000,-0.280000
61.306821,-0.020008,-0.249368,0.995032,1.540000,0.420000,-0.700000
61.314908,-0.043920,-0.301584,0.964288,0.840000,1.540000,-1.120000
61.322995,-0.024888,-0.299632,0.950624,2.800000,-0.420000,0.000000
61.331082,-0.046848,-0.252784,0.962824,1.540000,1.820000,-0.840000
61.339169,-0.043432,-0.305000,0.972096,1.540000,-0.560000,-0.560000
61.347256,0.021472,-0.287432,0.981368,1.820000,-0.280000,-0.280000
61.355344,-0.085888,-0.268888,0.957944,1.120000,3.220000,-0.980000
61.363431,-0.025864,-0.305488,0.943304,2.380000,-1.260000,-0.140000
61.371518,0.014640,-0.290848,0.985272,2.800000,0.700000,-0.280000
61.379605,-0.107848,-0.244488,0.964776,1.960000,2.100000,-0.140000
61.387692,0.031720,-0.292312,0.991616,1.540000,-2.520000,0.000000
61.395779,-0.033184,-0.296704,0.985272,0.980000,3.500000,-1.400000
61.403867,-0.085400,-0.270840,0.915000,1.400000,-0.840000,0.280000
61.411954,0.023424,-0.287920,0.977952,0.840000,-0.140000,-0.420000
61.420041,-0.048312,-0.289384,1.001864,1.260000,1.680000,-0.560000
61.428128,-0.031232,-0.257176,0.947696,0.980000,-0.840000,-0.420000
61.436215,-0.039528,-0.323056,0.970144,0.840000,2.380000,-1.260000
61.444302,-0.053192,-0.267912,0.943304,2.240000,-0.420000,0.000000
61.452390,-0.000488,-0.279136,0.970144,1.680000,0.560000,-0.840000
61.460477,-0.057584,-0.311832,0.992104,1.260000,0.840000,-0.700000
61.468564,-0.010248,-0.244488,0.964776,2.660000,-0.420000,0.000000
61.476651,-0.042456,-0.305000,0.948672,0.700000,2.380000,-0.980000
61.484738,-0.060024,-0.286944,0.957944,1.400000,-0.840000,0.140000
61.492825,0.008784,-0.243024,0.998448,1.680000,0.140000,-0.840000
61.500913,-0.065392,-0.319640,0.985272,0.000000,1.820000,-0.840000
61.509000,-0.010248,-0.281088,0.946232,2.660000,-0.420000,-0.280000
61.517087,-0.047824,-0.273280,0.965752,1.540000,1.820000,-0.840000
61.525174,-0.039040,-0.296704,0.951112,1.960000,-0.980000,0.000000
61.533261,0.008784,-0.265960,0.997472,2.240000,0.840000,-0.980000
61.541348,-0.069296,-0.297680,0.963800,0.560000,0.560000,-0.280000
61.549436,-0.020984,-0.265960,0.933056,2.240000,0.140000,-0.560000
61.557523,-0.034648,-0.292312,1.024312,0.980000,2.240000,-1.120000
61.565610,-0.025376,-0.262056,0.939888,1.540000,-1.820000,0.140000
61.573697,-0.018544,-0.293288,0.968680,1.820000,1.680000,-0.980000
61.581784,-0.081008,-0.287920,0.977952,0.980000,1.820000,-0.840000
61.589871,-0.005368,-0.286456,0.928176,2.660000,-1.120000,-0.140000
61.597959,-0.019032,-0.299144,0.979416,2.660000,1.400000,-0.420000
61.606046,-0.063440,-0.236192,0.982344,1.960000,0.700000,-0.140000
61.614133,-0.009760,-0.295240,0.974048,0.980000,-1.120000,-0.840000
61.622220,-0.030256,-0.287432,0.987224,1.120000,2.660000,-0.700000
61.630307,-0.066856,-0.259128,0.933056,1.680000,0.140000,-0.140000
61.638394,-0.023912,-0.308904,0.980392,1.680000,-0.420000,-0.700000
61.646482,-0.000488,-0.282064,0.973560,2.100000,0.840000,-0.700000
61.654569,-0.040016,-0.258152,0.985760,1.960000,0.420000,-0.420000
61.662656,-0.061976,-0.318176,0.944280,1.960000,1.120000,-0.840000
61.670743,-0.006832,-0.270352,0.965752,2.380000,0.700000,-0.700000
61.678830,-0.038064,-0.276208,0.963312,2.800000,0.280000,-0.560000
61.686917,-0.037088,-0.299632,0.976488,2.660000,0.700000,-0.560000
61.695004,-0.018056,-0.259616,1.013576,2.800000,0.420000,-0.700000
61.703092,-0.035136,-0.260104,0.911584,3.080000,1.120000,-0.420000
61.711179,-0.064416,-0.322568,0.961848,2.100000,0.700000,-0.140000
61.719266,-0.006832,-0.256688,0.982344,3.080000,-0.140000,-0.700000
61.727353,-0.020984,-0.256688,0.982344,2.240000,0.840000,-0.700000
61.735440,-0.053680,-0.313296,0.973560,0.980000,1.120000,-0.280000
61.743527,-0.032696,-0.258152,0.941352,2.800000,0.700000,-1.120000
61.751615,-0.024888,-0.287432,0.983320,2.520000,-0.140000,-0.280000
61.759702,-0.025864,-0.282064,0.963800,2.100000,1.260000,-0.560000
61.767789,-0.052704,-0.258152,0.977464,2.100000,0.700000,-1.120000
61.775876,-0.013176,-0.301584,0.980880,2.660000,-0.420000,-0.560000
61.783963,-0.043920,-0.284016,0.902800,2.940000,1.680000,-0.700000
61.792050,-0.060024,-0.238144,0.997472,2.940000,0.420000,-0.140000
61.800138,0.014640,-0.288408,1.022848,1.960000,-0.280000,-0.420000
61.808225,-0.059048,-0.280112,0.959408,1.680000,1.960000,-0.700000
61.816312,-0.035136,-0.265472,0.942328,2.100000,0.140000,-0.560000
61.824399,-0.042944,-0.294264,0.975024,1.400000,0.560000,-0.420000
61.832486,-0.015128,-0.257664,0.980392,2.380000,0.000000,-0.560000
61.840573,-0.015128,-0.280112,0.984296,1.260000,0.840000,-0.280000
61.848661,-0.067832,-0.314272,0.927688,2.240000,1.540000,-0.420000
61.856748,-0.020008,-0.262544,0.983808,3.920000,0.140000,-0.560000
61.864835,-0.025864,-0.263032,0.976976,2.240000,0.280000,-0.280000
61.872922,-0.043920,-0.279624,0.962824,2.380000,0.560000,-0.140000
61.881009,-0.030256,-0.256688,0.996984,2.520000,0.280000,-0.840000
61.889096,-0.026352,-0.289384,0.968192,0.980000,0.700000,-0.560000
61.897184,-0.055144,-0.268888,0.917440,3.220000,0.700000,0.140000
61.905271,-0.014640,-0.259128,1.034072,1.540000,0.140000,-0.140000
61.913358,-0.038552,-0.269864,0.948184,1.400000,0.700000,-0.140000
61.921445,-0.030256,-0.280600,0.988688,1.820000,0.840000,-0.280000
61.929532,-0.061488,-0.274256,0.966240,1.400000,0.980000,-0.420000
61.937619,-0.018056,-0.288408,0.934520,2.660000,-0.700000,0.280000
61.945707,-0.010248,-0.263520,1.020408,2.240000,1.260000,-0.420000
61.953794,-0.057096,-0.267912,0.940376,1.120000,0.280000,0.000000
61.961881,-0.029280,-0.287920,0.955992,1.680000,0.980000,-0.700000
61.969968,-0.037088,-0.273280,0.980880,1.260000,1.260000,-0.420000
61.978055,-0.026352,-0.262544,0.974536,1.680000,-0.840000,-0.140000
61.986142,-0.028304,-0.282552,0.987712,1.260000,1.260000,-0.560000
61.994230,-0.044408,-0.261568,0.974048,0.840000,0.560000,-0.420000
62.002317,-0.033184,-0.284504,0.939888,1.820000,0.140000,-0.420000
62.010404,-0.039040,-0.289872,0.961360,1.820000,0.980000,-0.140000
62.018491,-0.034648,-0.235704,0.990152,1.540000,-0.560000,0.140000
62.026578,-0.013176,-0.278648,0.980880,0.980000,0.560000,-0.420000
62.034665,-0.060512,-0.288408,0.989664,0.280000,1.680000,-0.560000
62.042752,-0.029280,-0.249856,0.931592,2.100000,-0.280000,0.000000
62.050840,-0.025376,-0.305000,0.975024,1.540000,1.400000,-0.420000
62.058927,-0.050264,-0.264008,0.987224,0.980000,-0.420000,-0.140000
62.067014,-0.004392,-0.235216,0.972096,1.120000,-0.140000,-0.280000
62.075101,-0.063928,-0.318176,0.966728,-0.420000,2.800000,-0.980000
62.083188,-0.035136,-0.264984,0.962336,0.840000,-0.700000,-0.420000
62.091275,0.008784,-0.256688,0.968192,1.260000,0.000000,-0.700000
62.099363,-0.068320,-0.296704,0.973072,0.280000,1.260000,-0.420000
62.107450,-0.020984,-0.258640,0.998448,0.840000,0.280000,-0.840000
62.115537,-0.034648,-0.291824,0.942328,0.980000,1.260000,-0.980000
62.123624,-0.046848,-0.291824,0.951600,1.820000,0.000000,0.000000
62.131711,-0.012200,-0.243024,1.002840,1.820000,0.560000,-0.980000
62.139798,-0.048312,-0.281576,0.962336,0.840000,0.140000,-0.420000
62.147886,-0.020496,-0.281088,0.946232,0.980000,1.400000,-0.700000
62.155973,-0.064416,-0.252296,0.986736,1.540000,1.260000,-0.840000
62.164060,-0.013176,-0.286456,0.957456,1.540000,-1.120000,-0.560000
62.172147,-0.014640,-0.274256,1.000400,0.980000,0.840000,-0.700000
62.180234,-0.065392,-0.230336,0.978440,0.700000,0.840000,-0.420000
62.188321,-0.030256,-0.316224,0.953064,0.140000,0.700000,-1.120000
62.196409,-0.036112,-0.296216,0.932568,1.400000,0.980000,-0.700000
62.204496,-0.027328,-0.224968,0.988200,1.680000,-0.140000,-0.280000
62.212583,-0.037088,-0.309392,0.979904,0.840000,0.840000,-0.980000
62.220670,-0.012200,-0.274744,0.987224,2.800000,0.420000,-0.560000
62.228757,-0.047824,-0.254736,0.971608,1.820000,1.680000,-0.980000
62.236844,-0.050264,-0.295240,0.932080,2.800000,-0.280000,-0.420000
62.244932,-0.003416,-0.249368,1.010160,2.100000,0.420000,-0.840000
62.253019,-0.053192,-0.275232,0.966728,1.400000,1.120000,-0.840000
62.261106,-0.014640,-0.286944,0.958920,2.800000,0.140000,-0.420000
62.269193,-0.044408,-0.253272,1.009672,2.100000,1.680000,-1.120000
62.277280,-0.036112,-0.266936,0.930616,2.660000,-0.980000,0.140000
62.285367,-0.006832,-0.281088,0.972584,1.820000,1.120000,-0.560000
62.293455,-0.063440,-0.265472,1.024312,1.540000,0.420000,-0.420000
62.301542,-0.038552,-0.262056,0.892064,2.380000,0.840000,-0.700000
