Time [s],lsm6dsv16x_acc_x [g],lsm6dsv16x_acc_y [g],lsm6dsv16x_acc_z [g],lsm6dsv16x_gyro_x [dps],lsm6dsv16x_gyro_y [dps],lsm6dsv16x_gyro_z [dps]
16.212970,-0.099552,0.050752,0.812032,2.520000,-1.820000,-0.140000
16.221057,0.031720,0.041968,1.229272,-0.560000,2.520000,-1.540000
16.229144,-0.042456,0.020984,0.777872,0.980000,-1.260000,0.140000
16.237232,-0.032208,0.057584,1.283440,0.140000,3.640000,-2.660000
16.245319,-0.061976,0.008784,0.772016,1.400000,-1.960000,0.280000
16.253406,-0.017568,0.076128,1.277096,0.000000,3.080000,-1.540000
16.261494,0.010736,0.020008,0.769576,0.420000,-0.560000,-0.420000
16.269581,-0.071248,0.026352,1.279048,1.400000,3.920000,-2.520000
16.277668,-0.058072,0.055144,0.746152,-0.140000,-1.680000,0.840000
16.285756,0.003904,0.032696,1.285392,0.700000,1.540000,-1.260000
16.293843,-0.045384,0.041968,0.783728,0.700000,1.120000,-0.700000
16.301930,-0.011712,0.029280,1.283440,2.240000,1.260000,-1.400000
16.310018,-0.055144,0.049288,0.793000,1.260000,-0.280000,-0.280000
16.318105,0.007320,0.050264,1.234640,0.000000,1.820000,-2.940000
16.326192,-0.084912,0.007320,0.781288,1.820000,-0.140000,-0.140000
16.334279,0.025376,0.072224,1.259528,0.420000,1.400000,-0.420000
16.342367,-0.067344,-0.012688,0.793000,0.840000,-0.140000,-0.280000
16.350454,0.000488,0.104920,1.268800,1.680000,1.960000,-1.820000
16.358541,-0.073200,-0.025376,0.778360,0.140000,-0.420000,0.000000
16.366629,0.057584,0.098576,1.288320,2.660000,1.400000,-1.680000
16.374716,-0.088816,-0.025864,0.748592,1.540000,0.700000,-1.400000
16.382803,0.002928,0.126392,1.318088,0.560000,0.140000,-1.260000
16.390891,-0.093208,-0.039528,0.730048,0.560000,0.980000,0.280000
16.398978,0.041968,0.125904,1.342976,0.560000,-1.260000,-1.120000
16.407065,-0.077592,-0.071248,0.696864,1.260000,2.660000,-1.540000
16.415153,-0.011224,0.169336,1.350784,-0.980000,-1.820000,-0.840000
16.423240,-0.024400,-0.094672,0.678808,0.700000,1.260000,-1.120000
16.431327,-0.036112,0.167872,1.361032,0.700000,0.280000,-1.820000
16.439415,-0.034160,-0.110288,0.590480,1.260000,1.960000,0.280000
16.447502,-0.070760,0.184464,1.348344,0.280000,-1.960000,0.140000
16.455589,0.026840,-0.075152,0.682712,-0.140000,0.840000,-0.840000
16.463676,0.009272,0.122976,1.172176,0.700000,-1.680000,-1.680000
16.471764,-0.122976,-0.011712,0.808128,1.120000,3.640000,-0.140000
16.479851,0.092720,0.082472,1.047248,-0.700000,-3.920000,-1.120000
16.487938,-0.102968,-0.017080,0.824720,-1.680000,5.460000,-2.240000
16.496026,-0.043432,0.109312,0.948672,-3.500000,-1.680000,0.560000
16.504113,0.028792,0.074664,0.936960,-11.340000,1.400000,-0.700000
16.512200,-0.088328,0.063440,0.779336,-20.440001,3.780000,-0.420000
16.520288,0.038064,0.036600,1.001376,-24.639999,-2.940000,-1.820000
16.528375,-0.051240,-0.008784,0.901824,-22.400000,3.220000,0.140000
16.536462,-0.063440,0.110288,1.037000,-18.200001,-1.960000,-1.680000
16.544550,0.018544,0.001952,0.974048,-24.080000,5.180000,-2.100000
16.552637,-0.065880,0.028792,0.797880,-18.620001,-0.280000,-0.840000
16.560724,-0.053192,0.110776,1.106296,-22.540001,-0.140000,-2.240000
16.568812,-0.009760,-0.017568,0.835944,-22.960001,1.820000,-0.420000
16.576899,0.000000,0.060024,1.020896,-21.280001,-1.120000,-1.540000
16.584986,-0.042456,0.041968,0.940864,-20.719999,2.520000,-0.140000
16.593073,-0.004392,0.030744,0.985272,-15.120000,-2.380000,-2.240000
16.601161,-0.031232,0.005368,0.955992,-17.639999,3.920000,-1.960000
16.609248,-0.066368,0.049288,0.814472,-16.660000,-0.420000,0.420000
16.617335,0.019520,0.030256,1.113616,-14.000000,-1.260000,-2.100000
16.625423,-0.074664,-0.030256,0.852048,-10.780000,1.820000,-0.700000
16.633510,-0.048312,0.119560,0.976488,-12.460000,-1.540000,-1.260000
16.641597,0.051728,0.004880,0.936960,-16.799999,1.540000,-0.980000
16.649685,-0.093696,0.027328,0.824720,-12.600000,0.280000,-1.400000
16.657772,0.001952,0.042456,1.029192,-15.120000,-3.220000,-0.980000
16.665859,-0.072224,0.059536,0.906216,-13.300000,2.800000,-0.700000
16.673947,-0.040992,0.010248,0.956480,-10.220000,-1.120000,-1.680000
16.682034,0.017080,0.008296,0.998936,-8.400000,0.140000,-0.840000
16.690121,-0.089304,0.045384,0.785680,-6.020000,2.380000,-1.960000
16.698209,-0.000488,0.056608,1.063352,-9.100000,-1.680000,-2.100000
16.706296,-0.056608,0.032208,0.912560,-3.640000,1.540000,0.420000
16.714383,-0.003416,0.017568,0.874496,-1.260000,-0.280000,-1.680000
16.722470,0.031720,-0.001464,1.021872,-2.940000,2.100000,-1.680000
16.730558,-0.089304,-0.014152,0.729560,4.060000,1.260000,-0.280000
16.738645,0.032696,0.054656,1.034072,1.960000,-2.100000,-1.540000
16.746732,-0.099552,0.044408,0.842776,1.120000,6.300000,-0.700000
16.754820,-0.019032,-0.014152,0.932568,2.380000,-3.640000,-0.560000
16.762907,0.029768,0.077592,1.034072,0.280000,-0.280000,0.140000
16.770994,-0.086864,0.028792,0.708088,2.800000,2.940000,-1.400000
16.779082,0.046360,0.045872,1.089216,-0.280000,-1.820000,-1.680000
16.787169,-0.125904,0.015616,0.877424,1.260000,4.760000,-0.140000
16.795256,0.023912,0.017080,0.917928,0.560000,-4.480000,-0.700000
16.803344,-0.041968,0.092232,1.075552,-0.980000,4.480000,-1.260000
16.811431,-0.104920,-0.015128,0.725168,1.400000,2.240000,0.000000
16.819518,0.088328,0.069784,1.124840,0.280000,-4.760000,0.140000
16.827605,-0.121024,0.016104,0.833504,0.980000,6.300000,-2.100000
16.835693,-0.007808,0.062464,0.929152,0.980000,-2.520000,-0.420000
16.843780,0.005368,0.055632,1.088240,-1.540000,2.100000,-0.560000
16.851867,-0.028304,-0.046848,0.722240,2.240000,1.540000,-1.540000
16.859955,-0.013176,0.115656,1.107272,0.000000,-0.840000,-1.120000
16.868042,-0.101504,0.003416,0.804712,-0.140000,3.360000,0.140000
16.876129,0.056608,0.015128,0.974048,1.960000,-3.780000,-0.840000
16.884217,-0.084912,0.064416,0.957456,-2.100000,5.600000,-2.100000
16.892304,-0.034160,0.009760,0.782752,-4.900000,1.400000,-0.560000
16.900391,0.016592,0.067832,1.063352,-7.280000,-2.100000,-0.840000
16.908479,-0.061488,-0.004880,0.851560,-5.180000,2.520000,-0.840000
16.916566,-0.018056,0.049776,0.968192,-2.940000,-2.100000,-0.280000
16.924653,-0.073200,0.072224,1.030656,-6.020000,3.500000,-1.680000
16.932741,0.024400,-0.013176,0.826184,-4.760000,-0.980000,-0.840000
16.940828,-0.040016,0.066368,1.019920,-3.780000,0.280000,-1.820000
16.948915,-0.076616,0.054656,0.940376,-5.320000,3.500000,-0.980000
16.957002,-0.014640,0.007320,0.874008,-4.760000,-1.680000,-0.140000
16.965090,-0.041968,0.071736,1.011624,-5.600000,-0.140000,-2.380000
16.973177,-0.039528,-0.002928,0.881328,-5.040000,2.520000,-0.280000
16.981264,-0.026352,0.026352,1.062864,1.680000,0.700000,-0.980000
16.989352,0.007320,0.009272,0.912072,7.280000,2.240000,-1.540000
16.997439,-0.050752,0.029768,0.773480,5.040000,0.980000,-0.840000
17.005526,-0.032696,0.100040,1.015040,-2.240000,0.560000,-1.120000
17.013614,-0.021960,-0.006344,0.914024,-0.420000,2.520000,-0.560000
17.021701,-0.058560,0.028304,0.841312,3.220000,0.560000,-0.560000
17.029788,0.008784,0.052216,1.037976,-0.840000,0.000000,-0.840000
17.037876,-0.070272,0.001464,0.793976,0.000000,3.500000,-0.560000
17.045963,-0.026352,0.097112,0.992104,0.700000,-3.220000,-1.260000
17.054050,0.056608,-0.023912,0.927200,-0.420000,2.100000,-1.120000
17.062138,-0.110288,0.042456,0.784216,1.540000,3.920000,-1.120000
17.070225,0.006344,0.083448,1.078480,-1.960000,-2.660000,-1.540000
17.078312,-0.050264,-0.045384,0.844728,-0.140000,3.920000,-0.700000
17.086399,-0.052704,0.077104,0.955016,2.100000,-0.840000,-0.700000
17.094487,-0.009272,0.039040,1.040904,-0.840000,1.820000,-1.120000
17.102574,-0.058560,0.023424,0.782752,1.260000,1.540000,-0.420000
17.110661,0.035136,0.051728,0.998448,-0.560000,-1.680000,-1.260000
17.118749,-0.041968,-0.003416,0.892552,-2.240000,3.220000,-0.980000
17.126836,-0.097112,0.097600,0.926712,2.380000,-1.540000,-0.840000
17.134923,0.012200,0.023424,1.044808,-1.260000,0.000000,-1.260000
17.143011,-0.030256,0.001952,0.813984,0.140000,3.500000,-0.140000
17.151098,-0.039040,0.057096,0.942328,1.820000,-1.260000,-1.960000
17.159185,-0.011224,0.047336,1.008208,-0.840000,1.960000,-0.980000
17.167273,-0.056608,0.004880,0.804224,1.260000,0.840000,-0.840000
17.175360,0.036112,0.031720,1.030168,0.140000,-1.680000,-1.680000
17.183447,-0.078568,0.060024,0.864248,0.840000,3.360000,-0.420000
17.191535,-0.016592,0.008296,0.836432,2.240000,-2.380000,-0.980000
17.199622,0.050752,0.015128,1.049200,-0.420000,0.840000,-1.820000
17.207709,-0.163968,0.028304,0.768600,1.260000,4.900000,-0.840000
17.215796,0.081008,0.050264,1.044808,0.420000,-5.180000,-0.980000
17.223884,-0.012688,0.028304,0.976000,0.420000,5.460000,-1.540000
17.231971,-0.068808,0.023912,0.700280,1.400000,-0.560000,-0.980000
17.240058,0.028304,0.069784,1.156072,-0.840000,-2.240000,-0.280000
17.248146,-0.150792,0.025864,0.780312,1.120000,6.440000,-0.280000
17.256233,0.060024,0.016104,0.973072,1.120000,-6.160000,-0.700000
17.264320,-0.055632,0.045872,0.988688,-0.980000,4.060000,-0.980000
17.272408,-0.032208,0.028304,0.750544,1.120000,0.420000,-0.980000
17.280495,0.090768,0.001952,1.070672,0.560000,-1.260000,-0.700000
17.288582,-0.144936,0.031232,0.808128,0.420000,5.600000,-1.260000
17.296670,-0.007320,0.049288,0.962824,0.980000,-4.480000,1.400000
17.304757,0.003416,0.043432,1.070672,-0.700000,2.800000,-0.980000
17.312844,-0.039528,0.005856,0.744688,1.820000,3.220000,-1.680000
17.320931,-0.000488,0.031232,0.993568,0.140000,-2.940000,0.000000
17.329019,-0.001952,0.071736,1.005280,-0.140000,3.920000,-1.260000
17.337106,-0.047824,-0.036600,0.775920,0.980000,1.680000,-0.280000
17.345193,0.016104,0.061488,1.051640,-0.280000,-1.400000,-0.980000
17.353281,-0.091256,0.039040,0.857904,0.140000,4.900000,0.560000
17.361368,0.036112,-0.017080,0.874496,0.700000,-3.360000,0.000000
17.369455,-0.013176,0.080520,1.094096,0.000000,2.380000,-1.120000
17.377543,-0.111264,0.000976,0.760792,0.700000,3.360000,0.000000
17.385630,0.101016,0.029768,1.067256,0.420000,-3.920000,0.280000
17.393717,-0.111752,0.054168,0.934032,0.560000,6.020000,-1.820000
17.401805,0.002928,-0.000976,0.847168,0.840000,-1.540000,0.140000
17.409892,0.005856,0.021960,1.098488,0.000000,0.140000,0.700000
17.417979,-0.061976,0.056120,0.869616,1.540000,4.060000,-0.560000
17.426067,0.008784,-0.024400,1.016992,1.960000,-2.940000,-1.120000
17.434154,-0.084424,0.101504,1.138504,-0.140000,3.640000,-0.420000
17.442241,0.010736,-0.051240,0.848632,2.240000,-0.980000,0.140000
17.450328,0.006832,0.103944,1.159000,1.400000,0.980000,-2.240000
17.458416,-0.129808,-0.033184,0.907680,0.840000,1.960000,0.560000
17.466503,0.031720,0.052704,1.095072,2.520000,-2.380000,0.560000
17.474590,-0.006832,0.045872,1.076040,0.420000,2.380000,-1.820000
17.482678,-0.034648,-0.002440,0.872056,3.640000,-0.700000,-0.280000
17.490765,-0.043432,0.069296,1.184864,-0.280000,1.400000,-1.260000
17.498852,-0.019032,-0.009760,0.977464,1.120000,1.120000,-0.140000
17.506940,-0.063440,0.070272,1.102880,4.200000,-0.420000,-1.680000
17.515027,0.028304,-0.023424,1.148264,-0.420000,-0.700000,0.560000
17.523114,-0.055632,0.063928,0.962824,3.360000,4.760000,-0.420000
17.531202,-0.014152,0.018056,1.261480,0.560000,-4.760000,-1.400000
17.539289,-0.090280,0.069296,1.013088,3.500000,5.740000,-0.420000
17.547376,0.094672,-0.028304,1.173152,1.540000,-3.360000,-1.960000
17.555464,-0.131272,0.051240,1.077504,1.120000,5.460000,-0.140000
17.563551,0.023912,0.072712,1.209752,2.380000,-2.660000,-2.100000
17.571638,-0.036112,-0.043920,1.178520,-0.700000,0.700000,0.560000
17.579725,-0.061976,0.089304,1.190720,6.580000,1.400000,0.000000
17.587813,0.029768,0.026840,1.296128,5.740000,1.260000,-1.540000
17.595900,-0.052216,-0.031720,0.961848,5.880000,-3.780000,-1.400000
17.603987,-0.068320,0.204472,1.404464,2.520000,8.120000,-2.100000
17.612075,-0.008784,-0.169824,0.966728,4.060000,-3.780000,-1.820000
17.620162,-0.079056,0.226432,1.322480,3.220000,3.360000,-0.700000
17.628249,-0.016592,-0.071248,0.996984,-3.080000,0.980000,-1.120000
17.636337,0.014152,0.098576,1.303936,-5.320000,-2.240000,-2.240000
17.644424,-0.070760,-0.081496,1.072136,0.840000,4.060000,-0.140000
17.652511,0.026352,0.160064,1.371768,2.800000,-0.420000,-2.380000
17.660599,-0.071248,-0.114192,0.916464,-1.400000,3.640000,-0.560000
17.668686,-0.037576,0.208864,1.427888,0.840000,-1.680000,-1.400000
17.676773,-0.055144,-0.136640,0.950624,0.420000,4.480000,-0.420000
17.684860,0.007808,0.149328,1.345904,2.520000,-5.460000,-1.260000
17.692948,-0.082960,-0.028792,1.023336,1.120000,7.840000,-1.540000
17.701035,0.098088,0.034648,1.337120,0.560000,-10.500000,-2.660000
17.709122,-0.158600,0.028304,0.996496,1.260000,12.040000,0.000000
17.717210,0.085888,0.064904,1.411296,2.100000,-8.120000,-3.500000
17.725297,-0.119560,-0.009272,0.895968,-0.140000,6.160000,0.840000
17.733384,0.024888,0.103944,1.430328,1.540000,-3.920000,-1.260000
17.741472,-0.073200,-0.020496,0.936472,0.280000,6.580000,-2.100000
17.749559,0.003416,0.022448,1.250256,0.560000,-7.280000,-0.840000
17.757646,-0.084912,0.118096,1.104344,-1.120000,9.380000,-0.420000
17.765734,0.101504,-0.121024,1.218048,-0.840000,-4.760000,-1.960000
17.773821,-0.207888,0.178608,1.110200,1.540000,8.680000,0.280000
17.781908,0.133712,-0.062952,1.222440,-1.260000,-7.280000,-0.840000
17.789996,-0.150304,0.065392,1.016016,-1.120000,7.700000,0.420000
17.798083,0.063440,0.041968,1.317112,0.420000,-1.680000,-2.240000
17.806170,-0.074664,-0.032208,0.928664,0.140000,0.560000,-0.560000
17.814257,0.017080,0.096624,1.391776,-0.420000,-1.260000,-0.980000
17.822345,-0.072224,-0.012688,0.929152,2.100000,7.280000,-2.100000
17.830432,-0.044896,0.033672,1.317112,-0.140000,-6.860000,0.140000
17.838519,-0.029280,0.072712,0.945256,1.120000,6.300000,0.560000
17.846607,0.033672,-0.021960,1.355176,0.420000,-4.340000,-2.100000
17.854694,-0.090280,0.031720,0.865224,2.240000,5.600000,0.140000
17.862781,0.014152,0.092720,1.388360,0.420000,-4.760000,-1.260000
17.870869,-0.038064,-0.073200,0.881816,0.980000,2.100000,-0.280000
17.878956,0.018544,0.135664,1.197552,2.660000,0.420000,-2.100000
17.887043,-0.067832,-0.078080,0.915000,-0.140000,0.560000,-0.700000
17.895131,-0.014152,0.146400,1.206824,2.240000,-1.540000,0.000000
17.903218,0.002928,-0.065392,0.962824,0.700000,4.340000,-3.080000
17.911305,-0.058072,0.035624,1.004304,2.800000,-2.520000,0.980000
17.919392,-0.011712,0.096136,1.247816,0.700000,3.500000,-3.080000
17.927480,-0.022936,-0.080520,0.845216,1.400000,-0.560000,-0.560000
17.935567,0.002928,0.124440,1.206824,1.960000,1.260000,-2.380000
17.943654,-0.082960,-0.060024,0.963800,0.560000,-0.700000,0.140000
17.951742,0.036112,0.100040,1.098976,2.380000,0.000000,-1.680000
17.959829,-0.047824,-0.071736,1.003816,0.420000,3.360000,-1.260000
17.967916,-0.066368,0.133712,1.087752,3.640000,-5.180000,0.280000
17.976004,0.033184,-0.046360,1.049688,-1.960000,1.540000,-1.960000
17.984091,-0.060512,0.012688,0.946232,3.360000,-5.740000,0.560000
17.992178,-0.033672,0.104920,1.232200,0.280000,3.220000,-2.380000
18.000266,-0.078080,-0.067832,0.847168,0.980000,-5.740000,0.420000
18.008353,0.025376,0.099064,1.160464,0.140000,-6.300000,-1.540000
18.016440,-0.069784,-0.025376,0.972584,-0.420000,-6.300000,-0.560000
18.024527,0.020008,0.064416,1.140456,2.660000,-4.200000,-1.680000
18.032615,-0.030744,-0.017080,0.969168,-1.540000,-2.100000,-0.560000
18.040702,-0.057584,0.049288,1.044808,3.220000,-8.960000,0.000000
18.048789,-0.002928,0.070760,1.118496,-1.120000,-5.600000,-2.380000
18.056877,-0.045384,-0.104920,0.879376,2.380000,-11.200000,0.560000
18.064964,-0.047824,0.202520,1.262456,-1.260000,-4.340000,-1.120000
18.073051,0.004392,-0.161040,0.872544,1.540000,-8.260000,-0.840000
18.081139,-0.019520,0.164944,1.138504,1.400000,-3.780000,-0.840000
18.089226,0.014640,-0.087352,0.979904,-0.560000,-2.660000,-0.420000
18.097313,-0.086376,0.113216,1.086288,2.940000,0.280000,-0.280000
18.105401,0.048800,-0.033184,1.084336,-0.700000,1.820000,-1.820000
18.113488,-0.065880,0.015128,0.878888,3.360000,2.800000,1.260000
18.121575,-0.019032,0.115656,1.254160,0.560000,1.820000,-2.800000
18.129662,-0.053192,-0.094184,0.849120,1.820000,2.100000,0.560000
18.137750,0.001464,0.133224,1.168272,0.980000,0.560000,-1.540000
18.145837,0.026840,-0.105408,0.978928,0.140000,0.980000,0.140000
18.153924,-0.137616,0.164456,1.009672,2.800000,1.960000,-1.120000
18.162012,0.095160,-0.106384,1.144848,-0.840000,-0.980000,-1.260000
18.170099,-0.128832,0.076616,0.863760,2.380000,3.080000,1.260000
18.178186,0.066856,0.023912,1.205360,-0.140000,-0.840000,-2.520000
18.186274,-0.105896,-0.027328,0.888648,0.280000,3.500000,0.560000
18.194361,-0.023424,0.089792,1.120936,2.240000,-2.660000,-0.420000
18.202448,0.042944,-0.047824,1.122400,-0.280000,-0.980000,-0.280000
18.210536,-0.105896,0.090768,0.872544,3.640000,3.080000,-1.120000
18.218623,0.062464,-0.047336,1.182424,-0.140000,-4.480000,-0.840000
18.226710,-0.129808,0.054168,0.910120,1.960000,2.100000,1.260000
18.234797,0.037576,0.014640,1.163392,2.800000,-1.680000,-1.400000
18.242885,-0.057096,0.021960,1.041392,0.140000,-0.280000,-0.840000
18.250972,-0.009760,0.011712,0.915000,2.240000,0.420000,0.280000
18.259059,0.036112,0.000000,1.140944,0.420000,-3.780000,-1.120000
18.267147,-0.079544,0.050264,0.955016,0.840000,3.220000,-0.980000
18.275234,-0.033184,-0.018056,1.009672,2.800000,-2.100000,-0.140000
18.283321,0.005856,0.032696,1.129232,-0.840000,-2.240000,0.000000
18.291409,-0.055632,0.010736,0.961360,2.660000,7.980000,-0.280000
18.299496,-0.005856,0.000488,1.061400,0.840000,-4.620000,0.560000
18.307583,-0.011224,0.072224,1.077016,0.000000,3.640000,-0.700000
18.315671,-0.004392,-0.045872,0.899384,1.400000,1.540000,-2.380000
18.323758,-0.011224,0.025864,1.113616,0.560000,-0.980000,-1.120000
18.331845,-0.057584,0.047336,1.046760,0.280000,4.060000,0.000000
18.339932,0.011712,-0.038064,0.900848,2.240000,-4.900000,-0.420000
18.348020,-0.017568,0.087352,1.143872,-0.700000,6.020000,-1.260000
18.356107,-0.082472,-0.050752,0.923784,-0.560000,-0.560000,0.000000
18.364194,0.013176,0.081008,1.074088,1.680000,-2.100000,-0.980000
18.372282,-0.017080,-0.003416,1.066280,-0.980000,3.500000,-2.380000
18.380369,-0.049776,-0.060512,0.876448,2.520000,-0.560000,0.840000
18.388456,0.020008,0.140544,1.176568,-0.840000,0.840000,-1.400000
18.396544,0.018544,-0.097112,0.935496,-1.120000,-0.140000,-1.820000
18.404631,-0.108824,0.082472,0.950624,2.660000,3.920000,-0.560000
18.412718,0.034648,-0.018544,1.140944,-0.560000,-3.080000,-1.400000
18.420806,-0.035624,0.008296,0.895968,1.400000,2.940000,-0.700000
18.428893,-0.033672,0.052216,1.035536,1.680000,-0.840000,-1.540000
18.436980,0.012688,-0.059048,1.124352,0.420000,-1.260000,-0.280000
18.445067,-0.068808,0.096624,0.924272,1.680000,6.440000,-0.980000
18.453155,0.057584,-0.072712,1.063840,1.680000,-5.320000,-1.400000
18.461242,-0.069296,0.099064,1.004792,0.140000,6.020000,-1.120000
18.469329,-0.009272,-0.063440,0.874496,0.840000,-1.540000,-1.260000
18.477417,0.037088,0.062952,1.159976,-0.980000,-0.420000,-1.260000
18.485504,-0.089792,0.023424,0.947696,-0.700000,6.020000,-2.660000
18.493591,0.023424,-0.061000,0.968192,0.980000,-5.740000,-0.560000
18.501679,-0.024888,0.147864,1.171200,-0.840000,6.440000,-2.380000
18.509766,-0.031720,-0.131272,0.802760,0.980000,-1.260000,-1.680000
18.517853,0.002440,0.123464,1.118496,0.000000,0.700000,-0.700000
18.525941,-0.026352,-0.051240,0.985272,0.280000,0.980000,-0.840000
18.534028,-0.036600,0.070760,0.980880,2.520000,0.280000,-1.540000
18.542115,-0.015128,-0.000488,1.082872,-0.840000,2.660000,-2.520000
18.550202,-0.018056,-0.044408,0.867664,0.420000,-1.400000,0.840000
18.558290,-0.035624,0.118584,1.164368,0.560000,2.100000,-3.500000
18.566377,-0.013176,-0.085888,0.873032,-0.280000,0.280000,-0.140000
18.574464,-0.049288,0.116632,1.062376,1.820000,0.140000,-0.560000
18.582552,0.041480,-0.058560,1.077016,-1.400000,-1.540000,-1.680000
18.590639,-0.056608,0.062952,0.853024,2.380000,4.060000,-1.120000
18.598726,0.003416,0.016592,1.153144,-1.680000,-2.800000,-1.540000
18.606814,-0.052704,0.013664,0.855464,0.000000,3.500000,-0.140000
18.614901,0.005368,0.027816,1.152656,0.980000,-2.800000,-2.380000
18.622988,-0.069784,0.040016,0.872544,-2.100000,4.620000,0.700000
18.631076,-0.007808,-0.010248,1.024312,2.380000,-1.960000,-1.540000
18.639163,0.000000,0.046848,1.066280,-2.520000,1.680000,-1.120000
18.647250,-0.058072,-0.020008,0.837896,1.960000,2.240000,-1.400000
18.655337,0.021472,0.084424,1.176080,-1.680000,-1.540000,-0.700000
18.663425,-0.032696,-0.064904,0.827160,1.820000,4.200000,-1.400000
18.671512,-0.029768,0.097600,1.148264,0.700000,-2.660000,-0.700000
18.679599,-0.012688,-0.023424,0.887672,-1.120000,5.460000,-0.560000
18.687687,-0.043920,0.035624,0.999912,2.800000,-3.780000,-0.140000
18.695774,0.006832,0.023424,1.072624,-2.380000,2.800000,-1.820000
18.703861,-0.041968,-0.025864,0.875960,1.820000,1.120000,-1.260000
18.711949,-0.005368,0.078080,1.137040,-0.700000,0.560000,-1.540000
18.720036,-0.062464,-0.045384,0.883280,2.940000,0.980000,0.000000
18.728123,0.001952,0.087840,1.089704,0.840000,-0.560000,-0.980000
18.736211,-0.030744,-0.015128,0.978440,-1.540000,2.940000,-0.140000
18.744298,-0.043432,0.034160,0.929640,2.940000,-0.420000,-0.560000
18.752385,0.001952,0.035624,1.137040,-0.840000,-1.680000,-0.140000
18.760472,-0.020496,-0.012688,0.865712,2.800000,2.940000,-1.260000
18.768560,0.000488,0.057096,1.129720,-0.280000,-0.700000,-1.820000
18.776647,-0.081496,0.000000,0.844728,1.120000,4.060000,-0.840000
18.784734,0.023424,-0.004392,1.132160,1.260000,-3.780000,0.560000
18.792822,-0.029280,0.075152,1.000888,0.840000,4.480000,-0.700000
18.800909,-0.032696,-0.059536,0.896944,2.940000,0.000000,-0.420000
18.808996,-0.061000,0.151768,1.220488,-0.840000,-0.140000,0.000000
18.817084,0.051728,-0.121512,0.796416,2.800000,2.800000,-1.960000
18.825171,-0.064416,0.128344,1.184376,0.700000,-0.140000,-1.540000
18.833258,-0.064904,-0.041480,0.884744,0.140000,5.180000,-0.280000
18.841346,0.005368,0.024400,1.062864,2.100000,-3.080000,0.700000
18.849433,-0.040016,0.050264,1.069208,0.140000,6.440000,-1.960000
18.857520,-0.047336,-0.018056,0.897432,1.680000,-3.500000,-0.420000
18.865607,-0.007320,0.094672,1.162904,-0.280000,3.080000,-1.820000
18.873695,-0.017080,-0.095648,0.894504,1.540000,-0.280000,-0.840000
18.881782,-0.032696,0.141520,1.102880,2.100000,2.100000,-1.960000
18.889869,-0.034160,-0.113704,0.932568,1.540000,2.660000,0.980000
18.897957,-0.041968,0.133712,1.145824,4.480000,-1.960000,0.560000
18.906044,0.029280,-0.080520,0.942328,4.060000,3.920000,-0.840000
18.914131,-0.085400,0.084424,1.012600,9.100000,-3.500000,0.000000
18.922219,0.028304,0.020008,1.121912,2.100000,2.940000,-1.820000
18.930306,-0.052704,-0.021960,0.845704,5.880000,-1.260000,0.840000
18.938393,0.005368,0.092232,1.215608,5.040000,1.260000,-2.240000
18.946480,-0.087840,-0.050752,0.855464,5.600000,-0.700000,1.120000
18.954568,0.002440,0.112728,1.119472,3.780000,0.280000,-0.280000
18.962655,0.008296,-0.049776,0.972584,0.980000,1.260000,0.420000
18.970742,-0.086864,0.107360,0.912072,2.100000,-0.700000,-1.540000
18.978830,0.047336,-0.046360,1.184376,-4.900000,-0.980000,-0.700000
18.986917,-0.096624,0.044408,0.839360,0.560000,1.820000,0.700000
18.995004,0.041968,0.027328,1.197552,-0.700000,-1.540000,-2.240000
19.003092,-0.129808,-0.005368,0.867664,0.560000,1.260000,0.140000
19.011179,0.044408,0.072224,1.173152,-1.540000,-1.680000,-0.420000
19.019266,-0.039040,-0.023912,0.983320,-0.840000,2.800000,-0.420000
19.027354,-0.040504,0.045872,0.959896,2.100000,-1.260000,-1.540000
19.035441,-0.010248,0.027816,1.198040,-2.380000,-2.380000,-0.560000
19.043528,-0.037576,0.001952,0.865224,1.820000,4.060000,-1.960000
19.051615,0.012200,0.020984,1.207312,0.140000,-3.360000,-1.400000
19.059703,-0.119072,0.070272,0.877912,0.700000,4.060000,0.280000
19.067790,0.077592,-0.047824,1.163880,-0.140000,-4.060000,-0.560000
19.075877,-0.090280,0.102480,1.051152,0.000000,5.880000,-1.120000
19.083965,0.005368,-0.072224,0.934520,1.820000,-1.960000,-1.120000
19.092052,-0.048800,0.120536,1.238544,-0.280000,0.980000,-0.420000
19.100139,-0.005368,-0.050752,0.825696,1.400000,1.960000,-1.680000
19.108227,-0.031232,0.073688,1.216096,0.140000,-1.680000,-1.260000
19.116314,-0.068808,-0.020984,0.929152,0.560000,3.360000,-0.140000
19.124401,0.045872,0.073688,1.190720,0.280000,-4.340000,-0.280000
19.132488,-0.068320,-0.001464,0.956968,0.420000,6.720000,-1.960000
19.140576,-0.020008,0.023424,1.121424,1.960000,-4.900000,-0.700000
19.148663,-0.040992,0.050752,1.038952,0.280000,1.820000,-0.420000
19.156750,0.001464,-0.029280,0.955016,2.240000,-0.140000,-1.400000
19.164838,-0.055632,0.092232,1.254160,0.560000,0.420000,-1.680000
19.172925,-0.020496,-0.043920,0.859368,0.280000,1.540000,-0.420000
19.181012,0.029280,0.050264,1.222928,0.280000,-3.920000,-0.840000
19.189100,-0.098576,0.034160,0.963312,1.400000,7.420000,-1.960000
19.197187,0.026352,0.007320,1.143872,2.100000,-7.560000,-1.820000
19.205274,-0.035624,0.055144,0.988200,-1.120000,6.440000,-1.260000
19.213361,-0.074176,-0.013664,1.100928,1.680000,-4.900000,-0.840000
19.221449,0.016104,0.075152,1.076040,0.000000,2.520000,-1.960000
19.229536,-0.094672,-0.060512,0.938912,1.400000,-12.740000,-0.140000
19.237623,-0.066856,0.143960,1.271728,-0.560000,-15.260000,-0.700000
19.245711,-0.007808,-0.075152,0.808128,0.560000,-21.420000,-0.560000
19.253798,-0.041480,0.085888,1.335656,1.120000,-27.440001,-0.560000
19.261885,-0.029768,0.011224,0.843752,-0.140000,-19.320000,-1.120000
19.269973,0.004880,0.005856,1.189744,0.420000,-29.960001,-0.700000
19.278060,-0.050264,0.055144,0.998448,-0.280000,-16.240000,-0.140000
19.286147,-0.002440,-0.020008,1.116544,2.660000,-25.480000,-1.820000
19.294235,-0.005368,0.073688,1.034072,-2.240000,-14.280000,-0.700000
19.302322,-0.062952,-0.026840,0.993080,2.940000,-24.080000,-0.840000
19.310409,0.020984,0.085888,1.211704,-0.420000,-18.340000,-0.560000
19.318496,-0.002928,-0.048312,0.923296,3.220000,-16.240000,-0.980000
19.326584,0.017080,0.084424,1.184376,-0.560000,-8.400000,-0.420000
19.334671,-0.012200,-0.021472,1.086776,2.100000,3.640000,-1.120000
19.342758,-0.014152,0.073688,1.070672,2.520000,3.920000,-0.420000
19.350846,-0.015128,0.007320,1.110688,0.700000,9.380000,-1.960000
19.358933,-0.036112,0.030744,0.971608,1.400000,5.320000,1.120000
19.367020,-0.038552,0.066368,1.239032,0.840000,8.680000,-3.080000
19.375108,-0.066856,-0.084912,0.840336,1.540000,-0.420000,1.540000
19.383195,-0.007808,0.174216,1.329312,0.840000,2.520000,-1.260000
19.391282,-0.022448,-0.114680,0.852536,-0.140000,1.680000,0.420000
19.399369,-0.012688,0.157136,1.240496,1.260000,0.980000,-1.960000
19.407457,-0.024888,-0.121024,0.920856,-0.560000,0.420000,0.700000
19.415544,-0.055632,0.195688,1.232200,0.840000,-2.800000,0.980000
19.423631,0.032208,-0.114192,0.924272,-1.680000,4.480000,-1.400000
19.431719,-0.096136,0.115656,1.138504,1.680000,-3.220000,0.140000
19.439806,0.007808,-0.001464,1.122400,-1.260000,3.220000,-1.260000
19.447893,-0.027328,0.004880,0.914512,1.960000,-4.340000,0.840000
19.455981,-0.008784,0.083448,1.288320,-0.560000,4.060000,-2.800000
19.464068,-0.051728,-0.060024,0.856928,0.700000,-0.980000,1.120000
19.472155,0.003416,0.120536,1.200968,-0.420000,-1.120000,-0.280000
19.480243,-0.018056,-0.076128,0.960872,-0.420000,4.060000,-0.420000
19.488330,-0.044408,0.135664,1.182912,0.700000,-3.360000,-0.560000
19.496417,-0.007320,-0.037576,0.966728,-1.540000,5.180000,-1.120000
19.504504,-0.041968,0.015616,1.071160,1.540000,-4.340000,-0.280000
19.512592,0.028304,0.065392,1.167296,-0.420000,5.600000,-2.520000
19.520679,-0.075152,-0.050264,0.874496,1.680000,-4.060000,0.840000
19.528766,-0.001464,0.123952,1.226832,0.000000,4.340000,-1.260000
19.536854,0.000976,-0.092720,0.888160,0.420000,-0.560000,-1.540000
19.544941,-0.062952,0.148352,1.189256,0.420000,-0.560000,-1.820000
19.553028,0.018544,-0.104920,0.986736,-0.140000,4.760000,-0.840000
19.561116,0.031720,0.124440,1.158512,3.360000,6.300000,-0.560000
19.569203,0.005368,-0.037576,1.046760,-0.560000,23.520000,-2.520000
19.577290,-0.061488,0.031232,0.925248,2.800000,19.040001,0.700000
19.585377,0.060512,0.052704,1.181936,0.700000,21.420000,-1.680000
19.593465,-0.083936,-0.026840,0.940376,1.820000,26.040001,-1.680000
19.601552,0.001464,0.064416,1.099464,2.520000,22.960001,-2.380000
19.609639,-0.067344,-0.002928,1.036024,-0.700000,21.700001,0.000000
19.617727,-0.018544,0.046360,0.998936,2.940000,17.080000,-0.280000
19.625814,0.018056,0.009760,1.191208,-0.420000,22.680000,-2.240000
19.633901,-0.126880,0.012200,0.838872,2.660000,17.920000,0.280000
19.641989,0.022448,0.064416,1.217072,-0.980000,12.320000,-1.400000
19.650076,-0.040504,-0.044408,0.868640,1.960000,12.600000,0.280000
19.658163,-0.014640,0.099064,1.194136,1.820000,10.780000,-2.520000
19.666251,-0.098088,-0.042944,0.922808,-0.560000,7.140000,-0.560000
19.674338,0.001464,0.077592,1.071648,2.800000,-1.260000,-0.840000
19.682425,-0.036600,-0.022936,1.072624,-0.840000,-0.280000,-0.560000
19.690512,-0.069784,0.039528,0.895968,2.660000,-5.600000,0.000000
19.698600,0.070272,0.018544,1.230736,-0.840000,-7.560000,-1.120000
19.706687,-0.083448,-0.001464,0.890600,2.800000,0.560000,-1.120000
19.714774,0.050264,0.042456,1.109224,1.260000,1.120000,-1.540000
19.722862,-0.058560,0.026352,1.001376,1.120000,0.280000,-1.260000
19.730949,-0.004880,0.001464,0.970632,1.120000,-1.820000,-2.100000
19.739036,-0.018544,0.060024,1.206336,0.700000,1.680000,-1.820000
19.747124,-0.041968,-0.038064,0.804712,0.000000,4.340000,-0.140000
19.755211,0.004392,0.055632,1.197552,1.820000,-3.360000,-0.420000
19.763298,-0.051240,0.020008,0.908656,0.280000,5.460000,-2.240000
19.771385,-0.028792,0.006832,1.029192,1.820000,-0.980000,0.000000
19.779473,-0.005856,0.062952,1.094584,-1.400000,5.880000,-1.540000
19.787560,-0.009760,-0.063440,0.832040,2.380000,-0.980000,-1.120000
19.795647,-0.038552,0.124928,1.053104,-0.140000,2.100000,-1.960000
19.803735,-0.005368,-0.091744,0.887184,-0.980000,3.640000,0.280000
19.811822,-0.092232,0.091744,0.949160,2.660000,1.820000,-1.120000
19.819909,0.061000,-0.017080,1.050176,-0.560000,-1.820000,-1.400000
19.827997,-0.076616,0.024888,0.820328,1.680000,4.620000,-0.700000
19.836084,0.040016,0.024888,1.006256,1.820000,-0.980000,-0.700000
19.844171,-0.012688,-0.011712,0.968192,0.700000,3.220000,-1.680000
19.852259,-0.104432,0.024400,0.809104,2.660000,1.680000,-0.140000
19.860346,0.067832,0.005856,0.979904,0.000000,-3.080000,-0.560000
19.868433,-0.023912,0.044408,0.976000,1.680000,5.040000,-1.120000
19.876520,-0.094184,-0.011712,0.683688,1.400000,2.520000,-1.260000
19.884608,0.068808,0.025376,1.007232,0.420000,-5.600000,0.000000
19.892695,-0.037088,0.006344,0.900848,0.840000,6.300000,-1.820000
19.900782,-0.088816,0.038552,0.752496,2.520000,3.080000,-1.120000
19.908870,0.066856,-0.032696,0.926712,1.400000,-3.500000,0.000000
19.916957,-0.033184,0.025376,0.913048,0.420000,3.080000,-0.140000
19.925044,-0.074176,0.035624,0.813008,5.460000,2.940000,-0.840000
19.933132,0.026352,-0.046848,0.897920,6.300000,-2.520000,-1.120000
19.941219,0.014152,0.009272,1.014552,9.380000,1.820000,-0.980000
19.949306,-0.084912,-0.015616,0.799344,16.940001,3.500000,-0.700000
19.957393,0.032208,0.003904,0.863272,21.559999,-3.080000,-1.400000
19.965481,0.015616,0.065392,0.863760,14.840000,2.240000,-0.560000
19.973568,-0.073200,0.045872,0.772504,10.640000,3.080000,-1.820000
19.981655,0.038064,-0.029768,0.802760,10.500000,-2.660000,-0.840000
19.989743,-0.016592,0.028792,0.962824,12.460000,0.700000,-0.840000
19.997830,-0.046360,0.022448,0.767624,10.640000,2.940000,-1.540000
20.005917,-0.031720,0.020496,0.836432,11.480000,-0.420000,-0.560000
20.014005,-0.013176,0.000000,0.866688,10.780000,-0.140000,-0.700000
20.022092,0.006832,0.026352,0.896944,9.520000,2.940000,-1.400000
20.030179,-0.024400,0.008784,0.691008,8.400000,1.680000,0.000000
20.038266,-0.007808,0.047824,0.781288,5.320000,0.420000,-0.280000
20.046354,-0.052216,0.100040,0.935008,1.260000,-0.140000,-1.260000
20.054441,0.033184,-0.026840,0.820816,-3.360000,0.840000,-2.520000
20.062528,-0.100040,0.027328,0.769088,-3.640000,2.660000,-0.280000
20.070616,0.017568,0.023912,0.876448,-2.380000,-0.560000,-1.260000
20.078703,0.005368,-0.039528,0.921832,-2.240000,2.380000,-1.400000
20.086790,-0.079544,0.024400,0.720288,0.840000,2.940000,0.140000
20.094878,-0.020008,0.036112,0.817888,-0.420000,0.280000,-0.420000
20.102965,0.024400,0.003416,0.904752,-1.540000,-0.840000,-1.120000
20.111052,-0.037088,0.031232,0.860832,0.700000,3.080000,-0.420000
20.119140,-0.104920,0.026352,0.775920,2.380000,1.400000,-0.840000
20.127227,0.090280,0.042944,0.994544,-0.560000,-3.360000,-1.540000
20.135314,-0.036600,-0.022448,0.850584,1.680000,5.600000,-1.540000
20.143401,-0.108336,0.028792,0.693936,2.520000,1.260000,-1.260000
20.151489,0.106872,-0.002440,0.947208,-1.820000,-1.820000,-1.540000
20.159576,-0.093208,-0.000976,0.867176,-0.840000,4.340000,-1.820000
20.167663,-0.039040,0.020984,0.743712,2.100000,-0.280000,-0.840000
20.175751,0.025864,0.046848,1.059448,0.420000,-1.260000,-0.700000
20.183838,-0.033184,0.008784,0.916952,-0.980000,4.620000,-1.260000
20.191925,-0.023912,0.002928,0.811056,3.360000,-0.560000,-0.560000
20.200013,-0.029280,0.052216,1.110688,-0.560000,0.140000,-1.820000
20.208100,-0.092232,0.036112,0.935496,0.980000,4.480000,-1.960000
20.216187,-0.010736,-0.003416,1.095560,1.960000,-3.360000,-2.380000
20.224274,-0.024888,0.078568,0.978928,-0.700000,3.500000,-0.980000
20.232362,-0.038064,-0.076616,1.029192,1.960000,-3.640000,-0.980000
20.240449,0.011712,0.103944,1.193160,0.980000,5.460000,-2.100000
20.248536,-0.104920,-0.058560,0.933544,3.080000,-3.640000,-0.280000
20.256624,0.026840,0.140544,1.217560,0.000000,2.100000,-1.120000
20.264711,-0.058560,-0.097600,0.876448,1.680000,0.140000,-1.120000
20.272798,-0.047824,0.143960,1.248304,1.120000,0.980000,-1.540000
20.280886,-0.057584,-0.086376,0.856440,1.120000,0.840000,-0.560000
20.288973,0.006344,0.111752,1.198528,0.000000,-2.520000,-0.560000
20.297060,-0.095160,-0.074664,0.981368,2.800000,4.760000,-1.400000
20.305148,0.019520,0.131272,1.133624,0.840000,-3.220000,-0.700000
20.313235,-0.072712,-0.093208,0.930128,1.120000,4.060000,-0.980000
20.321322,0.016592,0.141520,1.195600,0.980000,-4.340000,-0.560000
20.329409,-0.093208,-0.066856,0.946720,1.120000,6.720000,-2.380000
20.337497,-0.013664,0.129320,1.110200,0.980000,-5.180000,0.140000
20.345584,-0.020008,-0.088328,0.996496,-0.140000,4.760000,-2.520000
20.353671,-0.067832,0.126392,1.093120,2.800000,-4.340000,0.000000
20.361759,-0.012688,-0.047824,1.024312,-0.280000,6.300000,-2.520000
20.369846,-0.060024,0.051240,0.960384,1.680000,-4.760000,0.560000
20.377933,-0.028792,0.015616,1.179984,-1.120000,4.200000,-1.960000
20.386021,-0.040992,0.032696,0.873032,2.380000,-3.500000,-0.140000
20.394108,-0.044408,0.049776,1.194624,-0.980000,4.480000,-2.100000
20.402195,-0.020008,-0.034160,0.825696,0.980000,-2.800000,0.420000
20.410282,-0.078080,0.079544,1.265384,1.120000,4.060000,-1.820000
20.418370,-0.001952,-0.006344,0.785192,0.280000,-1.260000,0.700000
20.426457,-0.033184,0.038552,1.251720,0.280000,2.520000,-2.100000
20.434544,-0.052704,-0.007320,0.794952,-0.560000,0.980000,1.260000
20.442632,-0.013664,0.053192,1.281976,1.540000,-0.420000,-2.520000
20.450719,-0.065392,0.029280,0.766160,0.420000,2.520000,0.280000
20.458806,0.029280,0.006344,1.237080,0.140000,-1.540000,-2.380000
20.466894,-0.119072,0.029768,0.852048,0.560000,4.900000,0.840000
20.474981,0.015128,0.039040,1.222440,0.700000,-2.380000,-2.240000
20.483068,-0.088816,0.028792,0.822768,0.700000,4.060000,0.420000
20.491155,0.019032,0.008296,1.176568,-0.560000,-2.100000,-1.820000
20.499243,-0.093208,0.027328,0.876936,0.840000,4.760000,1.260000
20.507330,0.012688,0.032208,1.161440,1.680000,-2.660000,-2.940000
20.515417,-0.122000,0.053192,0.874984,-0.700000,5.040000,0.560000
20.523505,0.053192,0.002928,1.109712,1.820000,-2.660000,-1.540000
20.531592,-0.109800,0.041480,0.914024,-1.260000,5.600000,0.700000
20.539679,0.063440,-0.000488,1.118984,1.680000,-4.200000,-2.380000
20.547767,-0.162504,0.046360,0.951112,-1.120000,7.420000,0.560000
20.555854,0.029280,0.017080,1.025776,2.100000,-4.760000,-0.140000
20.563941,-0.051240,0.021472,0.938912,0.000000,5.740000,-1.120000
20.572029,-0.054656,0.031720,1.008208,1.260000,-3.220000,-1.120000
20.580116,-0.010736,0.017080,1.037976,-2.100000,4.060000,-0.280000
20.588203,-0.087352,0.021472,0.917928,2.380000,-2.240000,-0.420000
20.596290,0.016592,0.045384,1.139480,-0.560000,1.820000,-1.120000
20.604378,-0.097600,-0.012688,0.766648,1.680000,0.980000,0.420000
20.612465,0.021960,0.081984,1.178032,-0.280000,-1.260000,-0.280000
20.620552,-0.038064,-0.064416,0.741272,1.400000,1.540000,-0.700000
20.628640,-0.052216,0.119560,1.030656,1.120000,0.840000,-2.100000
20.636727,-0.029768,-0.021960,0.932080,-2.100000,2.240000,0.420000
20.644814,-0.042944,0.007320,0.831552,2.940000,-0.980000,-0.980000
20.652902,-0.049776,0.063440,1.063840,-0.700000,0.140000,-0.840000
20.660989,-0.088816,0.011224,0.774456,0.700000,3.920000,0.000000
20.669076,0.028304,0.049776,1.007232,0.420000,-2.240000,-0.700000
20.677163,-0.020008,-0.026840,0.887672,-0.140000,1.960000,-0.420000
20.685251,-0.073200,0.049776,0.843264,2.380000,0.280000,-1.400000
20.693338,-0.024888,0.060024,1.068232,0.840000,0.700000,-1.260000
20.701425,-0.039528,-0.037088,0.731512,1.260000,3.640000,-0.700000
20.709513,0.007320,0.041968,0.964776,1.820000,-3.080000,-0.980000
20.717600,-0.040504,-0.013176,0.901824,0.980000,4.900000,-1.260000
20.725687,-0.078568,0.030744,0.765184,2.660000,0.840000,0.280000
20.733775,0.037088,0.037088,1.035536,0.420000,-2.380000,-0.420000
20.741862,-0.056120,-0.027816,0.809592,1.820000,4.900000,-0.420000
20.749949,-0.081984,0.063928,0.857904,3.080000,-0.420000,-0.700000
20.758037,-0.012688,0.017568,1.043832,0.420000,0.840000,-0.280000
20.766124,-0.049776,-0.001952,0.748592,0.980000,3.360000,1.120000
20.774211,-0.011224,0.039040,0.909144,1.540000,-2.240000,0.000000
20.782298,-0.006344,0.024400,0.954528,-0.560000,1.540000,-1.120000
20.790386,-0.090280,0.025864,0.797392,1.680000,2.100000,0.280000
20.798473,0.027328,0.034160,0.928176,0.140000,-2.520000,-0.980000
20.806560,-0.012200,-0.024888,0.921832,-0.140000,3.080000,-1.260000
20.814648,-0.155184,0.040504,0.729072,2.100000,2.520000,-0.140000
20.822735,0.028792,0.063440,1.045296,-0.840000,-3.220000,-0.280000
20.830822,-0.027816,-0.027328,0.882304,-0.280000,3.780000,0.000000
20.838910,-0.076128,0.030256,0.749080,1.680000,-0.700000,-0.280000
20.846997,0.021472,0.049776,1.043832,-0.140000,-1.400000,-0.980000
20.855084,-0.098576,-0.013664,0.807152,1.260000,4.480000,-0.980000
20.863171,-0.009760,0.040016,0.856928,1.260000,-2.380000,-0.140000
20.871259,0.014640,-0.007808,0.968680,-0.840000,0.280000,-0.560000
20.879346,-0.051728,-0.010736,0.761768,0.560000,4.340000,-0.840000
20.887433,-0.063440,0.047824,1.005280,3.640000,-2.520000,-0.560000
20.895521,-0.026840,-0.035624,1.059448,7.840000,1.260000,-0.280000
20.903608,-0.020008,-0.061488,0.876936,23.100000,-0.280000,0.140000
20.911695,-0.012200,0.041480,1.069696,30.520000,1.680000,-0.420000
20.919783,-0.062464,-0.020496,0.640256,29.820000,3.500000,-0.280000
20.927870,-0.014152,0.065392,0.918416,25.340000,-2.380000,-0.280000
20.935957,-0.012200,-0.007320,0.996496,23.660000,1.960000,-0.560000
20.944044,-0.089792,-0.002928,0.832040,26.740000,3.640000,-0.280000
20.952132,-0.030744,0.029768,0.957456,26.180000,-3.780000,0.280000
20.960219,-0.031720,0.073200,1.055056,22.820000,2.940000,-2.100000
20.968306,-0.089792,-0.029280,0.827648,23.379999,1.540000,0.280000
20.976394,0.077592,0.050752,1.050176,24.500000,-2.660000,0.280000
20.984481,-0.065392,0.021960,0.851560,20.580000,4.900000,-1.960000
20.992568,-0.060024,0.047824,0.854000,15.400000,-0.980000,-0.140000
21.000656,-0.005368,0.066856,1.079944,6.720000,-0.840000,-1.120000
21.008743,-0.055632,0.059536,0.785680,1.260000,2.940000,-0.280000
21.016830,-0.042944,0.049288,0.883768,-4.900000,-0.980000,-1.820000
21.024917,-0.029768,0.042456,1.077992,-10.220000,0.700000,-1.260000
21.033005,-0.053192,-0.075640,0.873520,-7.140000,4.480000,-0.140000
21.041092,-0.017080,0.056608,1.104832,-0.560000,-3.220000,-0.840000
21.049179,-0.064416,-0.016104,0.882304,-2.520000,6.580000,0.000000
21.057267,-0.009760,0.051240,0.942328,0.000000,-3.080000,0.560000
21.065354,-0.028792,-0.002440,1.091656,-0.420000,2.800000,-2.660000
21.073441,-0.057096,-0.013664,0.870592,3.220000,-1.820000,-0.280000
21.081529,-0.038064,0.079544,1.069696,1.400000,1.960000,-1.680000
21.089616,-0.023424,-0.000488,0.867664,0.560000,2.660000,0.140000
21.097703,-0.036112,0.005368,0.993080,2.940000,-0.980000,-0.840000
21.105790,-0.069296,0.051728,1.067744,1.260000,2.100000,0.140000
21.113878,-0.008296,-0.042944,0.822280,1.680000,2.940000,-0.140000
21.121965,-0.035624,0.097600,1.144848,1.540000,0.140000,-2.800000
21.130052,-0.052704,-0.066856,0.795440,0.420000,1.680000,-1.260000
21.138140,-0.020008,0.072712,1.148264,1.680000,-2.380000,-0.140000
21.146227,-0.057584,0.016104,0.903288,-0.140000,7.560000,-1.400000
21.154314,-0.006832,-0.019032,0.928176,2.940000,-5.320000,0.840000
21.162402,-0.061000,0.093208,1.095560,-0.840000,3.780000,-1.540000
21.170489,-0.022448,-0.054656,0.880840,0.700000,0.980000,-0.560000
21.178576,-0.024400,0.087840,1.078480,1.960000,1.540000,-2.800000
21.186663,-0.050264,-0.035136,0.843264,-0.420000,1.260000,0.280000
21.194751,-0.003416,0.036112,1.027240,1.960000,-0.980000,-0.840000
21.202838,-0.114192,0.030744,1.080920,0.840000,4.900000,-1.260000
21.210925,0.011712,-0.030256,0.842776,1.540000,-1.820000,0.700000
21.219013,-0.000488,0.041968,1.142896,0.140000,-0.420000,0.140000
21.227100,-0.061000,0.020008,0.817888,1.260000,4.760000,-0.700000
21.235187,-0.001952,-0.002928,1.153144,1.820000,-2.660000,-1.260000
21.243275,-0.103944,0.067832,0.904752,-0.140000,2.520000,0.560000
21.251362,0.033672,-0.047824,1.025288,1.680000,-4.620000,-0.560000
21.259449,-0.093208,0.100040,1.103856,0.560000,5.180000,-0.560000
21.267536,-0.036600,-0.067832,0.817400,1.960000,-1.120000,0.280000
21.275624,0.016592,0.099552,1.198040,-0.980000,-3.780000,1.120000
21.283711,-0.072224,-0.046360,0.867176,0.840000,4.340000,-1.820000
21.291798,-0.020496,0.047824,1.122888,2.100000,-4.060000,0.140000
21.299886,-0.026352,0.035624,1.017480,-0.560000,2.380000,-0.140000
21.307973,-0.019520,-0.036112,0.899384,2.520000,-3.920000,0.000000
21.316060,-0.030256,0.086864,1.196088,-0.140000,3.920000,-1.260000
21.324148,-0.138104,-0.046848,0.874984,2.240000,0.000000,1.960000
21.332235,0.110288,0.081008,1.107272,0.840000,-3.640000,0.420000
21.340322,-0.059536,-0.039040,1.021872,0.560000,3.500000,-2.240000
21.348409,-0.087840,0.070760,0.970632,2.380000,-1.400000,-0.980000
21.356497,0.015128,-0.020496,1.200968,-0.560000,0.560000,-1.260000
21.364584,-0.044896,0.027816,0.841312,2.240000,-0.700000,0.420000
21.372671,-0.005368,0.050752,1.232200,2.100000,1.540000,-2.100000
21.380759,-0.085888,-0.026352,0.909144,-0.840000,0.840000,1.120000
21.388846,0.021472,0.058560,1.091168,2.800000,-1.260000,-0.560000
21.396933,0.012200,-0.000976,1.135088,-1.540000,-0.140000,-1.820000
21.405021,-0.127856,0.043432,0.890112,3.500000,4.900000,-0.840000
21.413108,0.085888,-0.023912,1.169736,-1.680000,-5.180000,-0.840000
21.421195,-0.131272,0.046848,1.001864,1.820000,4.620000,0.140000
21.429282,0.015128,-0.034648,1.140456,7.000000,0.700000,-0.840000
21.437370,-0.044896,0.004880,1.139968,14.420000,3.500000,1.680000
21.445457,-0.013664,0.068320,0.859856,15.820000,-0.280000,-1.540000
21.453544,-0.011224,-0.028792,1.183400,9.660000,-0.980000,-0.700000
21.461632,-0.096136,0.046360,1.027728,15.120000,6.580000,-0.700000
21.469719,0.040504,-0.020984,1.109712,20.719999,-3.640000,-0.560000
21.477806,-0.062952,0.080520,0.931592,14.840000,4.060000,-0.700000
21.485894,-0.028304,-0.014640,0.946232,12.880000,-2.520000,-0.560000
21.493981,-0.003416,0.053192,1.163880,10.500000,-1.260000,0.980000
21.502068,-0.082472,0.030256,1.065304,14.280000,4.760000,-2.100000
21.510155,0.000000,-0.008296,0.923784,12.040000,-5.320000,-0.140000
21.518243,-0.044896,0.136152,1.150216,4.340000,3.500000,-0.980000
21.526330,0.004880,-0.085400,0.916464,2.240000,-2.240000,-0.420000
21.534417,-0.052704,0.123464,1.117032,3.500000,1.260000,-0.420000
21.542505,0.052704,-0.024400,0.997472,-1.260000,-0.560000,-0.980000
21.550592,-0.072224,0.036112,0.963312,-1.540000,0.420000,0.840000
21.558679,0.000000,0.072224,1.215120,-1.120000,-0.840000,-2.660000
21.566767,-0.053192,-0.061000,0.988200,1.540000,0.700000,-0.140000
21.574854,-0.005368,0.102480,1.007232,1.400000,1.400000,-1.400000
21.582941,-0.042944,-0.010248,1.206824,-0.420000,-2.520000,-1.960000
21.591028,-0.061976,0.049288,0.928176,-0.560000,1.820000,0.700000
21.599116,0.045872,-0.011712,1.131184,2.800000,-4.060000,-0.840000
21.607203,-0.030256,0.078080,1.058472,-0.980000,2.800000,-0.840000
21.615290,-0.073688,-0.010248,1.005768,1.820000,1.260000,-2.520000
21.623378,0.035624,0.023912,1.089216,0.840000,-5.320000,-0.140000
21.631465,-0.043432,0.068808,1.086776,0.420000,5.740000,-1.260000
21.639552,-0.049776,-0.047824,0.925248,2.940000,-2.520000,-0.560000
21.647640,0.011712,0.100528,1.176080,0.420000,0.000000,-0.980000
21.655727,-0.009760,-0.024400,0.998936,-0.280000,0.140000,-1.540000
21.663814,-0.067344,0.053680,0.986248,2.660000,1.820000,-0.700000
21.671901,0.024888,0.015128,1.159976,-0.280000,-1.540000,-2.240000
21.679989,-0.044896,0.016592,0.975512,1.260000,1.820000,0.280000
21.688076,-0.052704,0.072712,1.084336,2.380000,0.840000,-1.540000
21.696163,0.011224,-0.044896,1.121424,0.000000,-0.560000,-0.980000
21.704251,-0.055144,0.084912,0.933056,1.540000,3.920000,-0.560000
21.712338,0.007808,-0.027328,1.123864,2.100000,-5.740000,-1.120000
21.720425,-0.010736,0.095648,1.056032,-0.840000,4.480000,-1.400000
21.728513,-0.025376,-0.062952,0.957944,2.520000,0.000000,-1.960000
21.736600,-0.005856,0.104432,1.093120,0.560000,-0.280000,-0.700000
21.744687,-0.044896,-0.031232,1.061400,0.560000,4.760000,-2.800000
21.752774,0.007320,0.026352,0.895968,0.980000,-1.400000,0.560000
21.760862,-0.037088,0.085888,1.219512,0.000000,3.920000,-2.100000
21.768949,-0.052704,-0.053680,0.897920,0.280000,0.000000,-0.140000
21.777036,0.001464,0.080520,1.039928,1.820000,2.940000,-1.120000
21.785124,0.016592,-0.026352,1.162416,-1.260000,-0.700000,-2.240000
21.793211,-0.083936,0.063440,0.897920,2.800000,5.740000,-0.420000
21.801298,0.025376,0.014152,1.077992,-0.280000,-1.120000,-1.960000
21.809386,-0.006344,0.003416,0.995520,-1.820000,3.780000,0.980000
21.817473,-0.069296,0.061976,0.977464,0.980000,2.940000,-1.400000
21.825560,0.009760,-0.021472,1.138016,-0.420000,-2.660000,-1.400000
21.833647,-0.055632,0.072224,0.936472,-0.560000,6.020000,-0.980000
21.841735,0.030256,-0.020496,1.092144,0.840000,-3.360000,-1.260000
21.849822,-0.051240,0.077104,1.018944,-1.680000,6.440000,0.280000
21.857909,-0.026352,-0.045872,0.903776,2.100000,-1.120000,-1.120000
21.865997,0.018544,0.099064,1.193160,-1.960000,-0.280000,0.000000
21.874084,-0.053680,-0.017568,0.899872,0.980000,6.440000,-1.680000
21.882171,-0.012688,0.033672,1.040416,0.280000,-4.480000,-1.400000
21.890259,0.001464,0.046848,1.125328,-2.100000,4.620000,-1.400000
21.898346,-0.074664,-0.023912,0.869128,0.280000,-1.120000,0.420000
21.906433,0.079056,0.068808,1.165344,0.980000,0.840000,-1.260000
21.914520,-0.091744,-0.011224,0.918416,-0.280000,3.500000,-1.400000
21.922608,-0.010248,0.063928,1.031144,1.680000,-2.380000,-0.140000
21.930695,0.012200,-0.000976,1.143872,-2.100000,3.920000,-1.820000
21.938782,-0.088816,0.018544,0.848632,2.380000,0.420000,-1.400000
21.946870,0.006344,0.059048,1.130208,0.560000,-1.400000,-1.260000
21.954957,0.040992,-0.031720,0.976000,-0.840000,1.120000,-0.140000
21.963044,-0.107360,0.077104,0.947696,3.920000,4.200000,-0.840000
21.971132,0.061488,-0.019032,1.138992,-0.700000,-6.020000,0.700000
21.979219,-0.094184,0.079056,0.909144,1.960000,8.260000,-0.700000
21.987306,0.067832,-0.044408,1.062864,1.820000,-4.760000,-1.120000
21.995393,-0.068320,0.104920,1.079944,0.700000,5.740000,-1.260000
22.003481,-0.029768,-0.055144,0.862784,1.820000,-2.520000,-0.700000
22.011568,0.049288,0.071248,1.198528,1.540000,-2.520000,-0.140000
22.019655,-0.082960,0.028304,0.958920,2.100000,7.000000,-1.820000
22.027743,0.018544,-0.060512,0.878400,3.920000,-4.060000,1.820000
22.035830,0.011712,0.146400,1.201944,0.140000,1.960000,0.000000
22.043917,-0.017080,-0.090768,0.910608,2.380000,0.140000,-2.660000
22.052005,-0.082960,0.128344,0.992592,2.240000,1.400000,-0.280000
22.060092,0.060024,-0.040504,1.072136,1.120000,-1.540000,-1.960000
22.068179,-0.057584,0.034160,0.926224,1.680000,2.660000,-0.140000
22.076266,-0.065392,0.068808,1.050176,2.800000,-1.400000,-1.960000
22.084354,0.007320,-0.019032,1.041392,-0.420000,-6.160000,0.280000
22.092441,-0.040016,0.027816,0.916952,2.520000,-0.840000,-0.420000
22.100528,0.016104,0.021472,1.075552,1.400000,-9.660000,-1.820000
22.108616,-0.018544,0.044896,0.997472,-0.280000,-2.660000,-0.700000
22.116703,-0.057096,-0.008296,0.896456,1.680000,-7.700000,-1.680000
22.124790,0.019520,0.031720,1.039928,-0.280000,-15.960000,0.140000
22.132878,0.013664,0.034160,1.097024,1.120000,-4.480000,-1.400000
22.140965,-0.072712,0.012688,0.879376,2.660000,-10.220000,-0.700000
22.149052,0.053192,0.062952,1.046760,-0.280000,-9.240000,-2.240000
22.157139,-0.047336,-0.035136,1.008208,-0.420000,-9.520000,-0.560000
22.165227,-0.066368,0.082960,0.940864,4.060000,-8.400000,-0.420000
22.173314,0.059536,-0.013176,1.092144,-1.120000,-8.540000,-2.800000
22.181401,-0.086376,0.031232,0.926224,0.700000,-6.440000,-0.700000
22.189489,0.000488,0.020008,0.991128,2.240000,-3.780000,-0.840000
22.197576,0.063928,0.017080,1.125816,1.540000,-2.520000,-1.960000
22.205663,-0.093208,0.058560,0.951600,1.120000,7.140000,-2.940000
22.213751,0.010736,-0.031232,0.932568,0.840000,-6.020000,0.840000
22.221838,0.001464,0.090768,1.143384,1.260000,5.040000,-1.820000
22.229925,-0.058072,-0.028792,0.943792,0.140000,2.660000,-1.680000
22.238012,-0.081008,0.106384,0.955992,2.520000,0.700000,-0.840000
22.246100,0.079056,-0.048312,1.162416,-2.660000,-2.520000,-0.980000
22.254187,-0.081008,0.078568,0.921832,2.520000,3.780000,-1.540000
22.262274,0.022448,-0.003904,1.050176,-0.140000,-0.700000,-2.240000
22.270362,0.008296,0.020984,1.020896,-1.120000,-1.540000,0.280000
22.278449,-0.066368,0.053192,0.941840,1.680000,2.800000,-1.680000
22.286536,0.032208,-0.003904,1.109712,-0.840000,-2.520000,-0.840000
22.294624,-0.097112,0.080032,0.919392,0.000000,7.980000,-1.120000
22.302711,0.036600,-0.064904,1.057984,-0.420000,-7.980000,-0.560000
22.310798,-0.071736,0.141032,1.113616,-0.420000,5.740000,-2.800000
22.318885,0.012688,-0.096624,0.896944,0.000000,0.560000,-0.840000
22.326973,-0.041480,0.143472,1.141920,1.680000,0.140000,-0.840000
22.335060,0.007320,-0.074176,0.975024,-0.980000,2.520000,-2.100000
22.343147,-0.036600,0.069784,0.970632,2.380000,-1.120000,0.420000
22.351235,-0.016104,0.044896,1.150216,-1.540000,3.780000,-3.360000
22.359322,-0.048800,-0.039528,0.939888,0.980000,0.280000,-0.700000
22.367409,-0.001464,0.110776,1.087264,0.700000,-0.280000,-1.260000
22.375497,0.009760,-0.062464,1.074088,-0.420000,0.420000,-0.420000
22.383584,-0.073688,0.098088,0.932568,3.640000,3.780000,-1.260000
22.391671,0.051728,-0.033672,1.200968,-0.560000,-3.500000,-0.840000
22.399758,-0.103456,0.094672,0.910608,0.840000,4.340000,0.980000
22.407846,0.071248,-0.053680,1.156072,1.960000,-1.820000,-3.080000
22.415933,-0.082960,0.086376,0.983808,-0.280000,4.760000,-0.140000
22.424020,-0.015128,0.000976,1.015040,2.520000,-2.240000,-0.420000
22.432108,0.003416,0.038552,1.162416,-1.120000,-0.560000,-0.560000
22.440195,-0.067832,0.008784,0.916952,3.640000,5.740000,-2.100000
22.448282,0.027328,0.016104,1.191696,-0.280000,-5.320000,-0.140000
22.456370,-0.054168,0.082472,0.943792,0.280000,5.460000,-0.560000
22.464457,0.000488,-0.047824,1.068720,0.980000,-0.980000,-1.400000
22.472544,-0.026352,0.094672,1.172176,-0.980000,2.520000,-1.540000
22.480631,-0.040504,-0.033184,0.881816,1.680000,1.960000,-0.980000
22.488719,0.003904,0.057096,1.236104,-1.120000,-2.940000,-0.840000
22.496806,-0.083936,0.003904,1.020896,2.100000,8.680000,-1.540000
22.504893,0.054168,0.012688,1.173640,-0.700000,-7.560000,-0.840000
22.512981,-0.093208,0.016592,1.072136,1.260000,8.400000,1.400000
22.521068,0.049288,0.065392,1.265384,1.680000,-2.520000,-2.380000
22.529155,-0.104920,-0.051728,1.000400,1.400000,3.920000,-0.140000
22.537243,-0.018056,0.152256,1.192184,1.400000,-2.800000,-0.420000
22.545330,0.040504,-0.091744,1.138504,-0.140000,5.880000,-3.080000
22.553417,-0.143472,0.061488,1.044320,3.640000,-2.660000,-0.420000
22.561504,0.031232,0.069784,1.245376,0.980000,4.620000,-1.260000
22.569592,-0.034160,-0.029768,0.975512,1.400000,-5.460000,-0.840000
22.577679,-0.025864,0.067832,1.303448,0.980000,4.340000,-2.660000
22.585766,-0.046848,0.015616,0.943792,2.660000,-0.980000,-0.840000
22.593854,0.021960,0.000488,1.306376,-0.420000,-3.080000,-2.520000
22.601941,-0.077104,0.085400,0.974048,1.680000,4.200000,-2.100000
22.610028,0.015128,-0.012200,1.265872,-0.140000,-1.120000,-2.240000
22.618116,-0.079544,0.021960,0.982832,0.280000,-1.260000,0.280000
22.626203,0.013176,0.081496,1.241472,0.980000,1.260000,-2.660000
22.634290,-0.053192,-0.072224,1.027728,-0.700000,-0.140000,-2.240000
22.642378,0.003416,0.115656,1.157536,0.980000,-0.420000,-1.400000
22.650465,-0.080032,-0.015128,1.168272,-0.280000,1.960000,-2.100000
22.658552,0.026840,0.060024,1.063352,1.260000,-2.940000,-0.560000
22.666639,-0.066368,0.027328,1.135088,-0.980000,8.540000,-2.800000
22.674727,0.030256,0.004392,1.078968,0.280000,-6.160000,-2.240000
22.682814,-0.087840,0.029768,1.118496,-0.700000,7.840000,-1.400000
22.690901,0.031232,0.085400,1.182424,2.100000,-4.480000,-2.800000
22.698989,-0.103456,-0.061488,1.013088,-1.260000,5.600000,-1.260000
22.707076,0.005856,0.164456,1.192672,2.520000,-3.360000,-1.400000
22.715163,-0.052704,-0.111752,0.999912,0.420000,5.320000,-0.560000
22.723251,0.012200,0.162504,1.218048,1.540000,-4.620000,-1.120000
22.731338,-0.086376,-0.035136,0.949648,-1.400000,7.840000,-2.100000
22.739425,0.024888,0.026840,1.240008,0.980000,-8.540000,-0.840000
22.747512,-0.100528,0.079544,0.967216,0.980000,10.780000,-1.260000
22.755600,0.081496,-0.038552,1.262456,-0.700000,-10.640000,-1.680000
22.763687,-0.177144,0.148352,0.904264,0.420000,10.640000,-0.280000
22.771774,0.116632,-0.082960,1.290760,0.280000,-7.280000,-2.660000
22.779862,-0.173728,0.145912,0.907680,0.420000,8.400000,0.420000
22.787949,0.046848,0.017080,1.358104,-0.700000,-1.540000,-3.920000
22.796036,-0.108824,0.003416,0.783240,-1.540000,3.780000,-0.140000
22.804123,0.018544,0.108336,1.426912,-0.420000,3.220000,-1.680000
22.812211,-0.042456,-0.045384,0.827160,-0.420000,-0.280000,-0.700000
22.820298,-0.075640,0.149816,1.327848,0.280000,5.320000,-0.420000
22.828385,0.050264,-0.063440,0.881328,-0.560000,-2.660000,-0.700000
22.836473,-0.105408,0.131760,1.240008,-0.700000,7.420000,-0.840000
22.844560,0.000976,0.002928,1.006256,-0.280000,-4.760000,-2.240000
22.852647,-0.125416,0.019520,0.995032,-0.980000,4.900000,0.700000
22.860734,0.004392,0.116144,1.096536,-3.500000,-13.160000,-1.680000
22.868822,-0.075640,-0.047824,0.947208,-7.840000,-13.300000,0.700000
22.876909,0.002928,0.151768,1.057008,-7.560000,-18.760000,-0.280000
22.884996,-0.051728,-0.062464,0.901824,-8.680000,-7.280000,-1.260000
22.893084,-0.061976,0.142008,0.996008,-6.860000,-23.660000,-0.280000
22.901171,0.004392,-0.031720,0.921344,-17.920000,-14.700000,-0.280000
22.909258,-0.043920,0.109800,0.994056,-14.700000,-18.900000,0.280000
22.917346,0.021960,0.003904,1.111176,-15.260000,-8.680000,-2.940000
22.925433,-0.103456,0.032696,0.790072,-9.940000,-16.520000,-0.140000
22.933520,0.016592,0.085888,1.146312,-17.780001,-14.980000,-1.540000
22.941607,-0.041968,0.030256,0.873520,-20.160000,-11.060000,-0.560000
22.949695,0.013664,0.008784,1.135576,-16.799999,-14.560000,-2.240000
22.957782,-0.004392,0.052704,0.975512,-15.960000,-5.460000,0.000000
22.965869,-0.009760,0.008784,1.047736,-12.040000,-5.740000,-1.680000
22.973957,0.016592,0.108824,1.047736,-19.040001,3.920000,-1.400000
22.982044,-0.056120,-0.039040,0.905728,-13.300000,3.360000,-1.820000
22.990131,-0.022448,0.109312,1.170224,-17.500000,5.320000,-1.820000
22.998218,-0.042944,-0.022936,0.890112,-12.740000,5.040000,-0.840000
23.006306,0.018056,0.045384,1.162416,-8.260000,-1.400000,-2.100000
23.014393,-0.114680,0.011712,0.909144,-5.180000,5.320000,-1.120000
23.022480,0.030744,0.075640,1.180472,-6.020000,-1.960000,-1.260000
23.030568,-0.018544,-0.023424,0.950624,-1.540000,5.460000,-0.140000
23.038655,-0.055144,0.080520,1.090192,6.580000,-2.660000,-1.820000
23.046742,-0.025864,0.031720,0.944768,2.520000,3.640000,0.420000
23.054829,0.022936,0.051728,1.018944,4.480000,-1.400000,-0.700000
23.062917,-0.046848,0.072712,1.023824,-1.540000,6.300000,-1.540000
23.071004,-0.021472,0.000976,0.911096,2.380000,-2.800000,0.700000
23.079091,-0.052216,0.120048,1.151192,-1.260000,3.360000,-0.700000
23.087179,0.026840,-0.034648,0.793000,0.420000,0.140000,0.280000
23.095266,-0.082472,0.158112,1.066280,-3.640000,1.960000,-0.980000
23.103353,0.026352,-0.053680,0.844240,-6.020000,-1.120000,2.520000
23.111441,-0.033672,0.165432,1.053104,-7.420000,1.260000,-2.520000
23.119528,-0.000488,-0.005368,0.883280,-14.980000,2.520000,-0.840000
23.127615,-0.070760,0.073200,0.897432,-14.980000,-0.700000,1.120000
23.135702,0.026352,0.041480,1.114592,-16.379999,-0.420000,-0.700000
23.143790,-0.050264,0.047336,0.778848,-17.080000,4.060000,-1.120000
23.151877,-0.017568,0.052704,1.022360,-18.900000,-2.380000,-0.560000
23.159964,0.003416,0.052704,0.894504,-22.820000,1.820000,1.260000
23.168052,-0.011712,0.002928,0.990640,-18.480000,-0.420000,-1.120000
23.176139,-0.031720,0.098088,1.105808,-21.980000,4.340000,-1.680000
23.184226,0.006832,-0.054656,0.772016,-18.059999,-0.700000,0.560000
23.192313,-0.023424,0.178120,1.097512,-20.299999,0.700000,-1.400000
23.200401,-0.024888,-0.075152,0.852048,-22.400000,1.260000,-0.140000
23.208488,-0.036600,0.123464,1.045296,-21.139999,0.980000,0.000000
23.216575,0.025864,-0.024888,1.007232,-21.980000,-0.420000,0.140000
23.224663,0.003904,0.039040,0.851560,-17.920000,1.680000,-0.700000
23.232750,-0.016104,0.060512,1.092632,-21.700001,0.560000,-1.400000
23.240837,-0.049776,-0.016104,0.962336,-16.799999,3.640000,0.000000
23.248925,-0.002440,0.023912,1.101904,-10.360000,-1.120000,-0.700000
23.257012,-0.014640,0.067832,0.919392,-9.240000,2.380000,-0.980000
23.265099,-0.010248,-0.032208,0.844728,-11.480000,0.140000,-0.140000
23.273186,-0.011712,0.054656,1.138016,-9.520000,-1.540000,0.140000
23.281274,-0.081008,-0.027816,1.025288,1.960000,5.180000,-0.700000
23.289361,0.044896,0.012200,1.022848,12.320000,-6.580000,-1.260000
23.297448,-0.063928,0.047336,0.953064,7.560000,3.640000,-1.680000
23.305536,-0.041968,0.090768,0.889136,4.760000,-2.940000,-0.140000
23.313623,0.022936,-0.048800,0.846192,3.640000,0.980000,-1.400000
23.321710,-0.009760,0.099552,1.115080,2.660000,-3.220000,-0.140000
23.329797,0.024400,-0.014152,0.866688,1.680000,2.240000,-2.240000
23.337885,-0.032208,0.048312,0.922808,2.520000,-1.960000,-1.260000
23.345972,-0.007320,0.049776,1.022360,-0.280000,-0.980000,-2.520000
23.354059,-0.010248,-0.020008,0.960384,0.980000,2.100000,0.000000
23.362147,-0.043920,0.091256,0.855952,2.520000,1.820000,-2.520000
23.370234,0.027328,-0.030744,1.028216,0.840000,-2.940000,-1.540000
23.378321,-0.045384,0.085888,0.943304,-0.560000,4.340000,-0.700000
23.386408,-0.003904,-0.024400,0.899384,2.940000,-0.700000,-2.240000
23.394496,-0.005368,0.099064,1.042368,-0.560000,0.840000,-2.660000
23.402583,-0.020496,-0.016592,0.936472,-0.420000,1.260000,-1.540000
23.410670,0.018544,0.013176,0.866688,2.100000,1.400000,-1.540000
23.418758,-0.033184,0.069784,1.107272,-0.140000,2.100000,-3.220000
23.426845,-0.052704,0.033672,0.875472,0.560000,3.780000,-1.680000
23.434932,-0.028304,0.021960,0.930616,0.140000,-1.820000,-0.840000
23.443020,0.055632,0.039528,1.064328,0.420000,1.260000,-2.380000
23.451107,-0.087352,-0.014640,0.905240,1.400000,6.160000,-1.540000
23.459194,-0.001464,0.097112,1.003816,1.540000,-2.100000,-1.540000
23.467281,0.061488,-0.018056,1.001376,-1.680000,2.380000,-2.800000
23.475369,-0.076128,0.071736,0.811056,1.120000,3.220000,-1.960000
23.483456,0.021960,0.005368,1.096536,-0.700000,0.700000,-2.800000
23.491543,-0.082472,0.050752,0.905728,0.280000,3.920000,-0.980000
23.499631,-0.019032,0.038064,0.912560,0.420000,-0.140000,-2.380000
23.507718,0.030256,0.024888,1.090680,-2.520000,1.540000,-1.820000
23.515805,-0.107848,0.007808,0.812032,0.840000,3.360000,-1.260000
23.523892,0.082960,0.053680,1.108248,-0.700000,-5.180000,-1.260000
23.531980,-0.095160,0.020984,0.871080,-0.420000,8.120000,-1.400000
23.540067,-0.004392,0.047824,0.957456,0.000000,-2.520000,-1.260000
23.548154,0.003904,0.021472,1.072136,-1.960000,1.540000,-1.260000
23.556242,-0.083448,0.044408,0.778848,1.540000,0.280000,-1.120000
23.564329,0.055144,0.030256,1.098000,-2.520000,-1.120000,-1.260000
23.572416,-0.100040,0.033184,0.868152,-0.140000,4.900000,-0.560000
23.580504,0.015616,0.022936,1.031144,1.540000,-3.920000,-1.540000
23.588591,-0.021472,0.028304,0.924760,-2.240000,3.360000,-1.960000
23.596678,-0.057096,0.049776,0.861320,1.260000,-1.680000,-1.120000
23.604765,0.025376,0.034648,1.073600,-3.920000,0.000000,-0.840000
23.612853,-0.067344,0.020984,0.872056,0.420000,1.680000,-0.420000
23.620940,0.043920,0.035624,1.040904,0.000000,-3.360000,-1.680000
23.629027,0.006344,0.018056,0.907680,-0.980000,2.520000,-1.260000
23.637115,-0.083936,0.045384,0.884256,2.800000,-0.980000,-2.240000
23.645202,0.022936,0.052216,1.144360,-1.120000,-0.700000,-1.540000
23.653289,-0.048800,-0.013176,0.805688,2.660000,1.400000,-0.700000
23.661376,0.060512,0.042944,0.998448,0.000000,-2.100000,-2.100000
23.669464,-0.096624,0.062952,0.967704,0.280000,3.500000,-1.260000
23.677551,-0.014152,-0.024400,0.914024,2.380000,-3.360000,-1.540000
23.685638,0.008784,0.097600,1.112152,-0.560000,1.960000,-1.260000
23.693726,-0.054656,-0.011712,0.735904,1.960000,3.220000,-2.100000
23.701813,0.009272,0.039040,1.143384,-0.420000,-2.240000,-0.140000
23.709900,-0.077592,0.018544,0.798368,1.260000,3.640000,0.420000
23.717987,0.084912,0.055144,1.083360,0.980000,-2.660000,-2.240000
23.726075,-0.107848,0.032696,0.943792,-0.560000,8.400000,-1.260000
23.734162,-0.034160,0.011224,0.922320,2.240000,-3.220000,-0.560000
23.742249,0.015128,0.092232,1.129232,0.420000,3.640000,-0.700000
23.750337,-0.050752,-0.021472,0.722240,2.380000,1.960000,-1.120000
23.758424,0.000488,0.075640,1.209752,0.000000,-1.120000,0.000000
23.766511,-0.093696,-0.014152,0.733952,2.800000,5.040000,-0.280000
23.774599,0.093208,0.075152,1.106296,-0.840000,-2.520000,-1.400000
23.782686,-0.136152,0.003416,0.876936,-0.420000,7.840000,-1.680000
23.790773,-0.013176,0.050264,1.013576,1.960000,-3.500000,-0.420000
23.798860,-0.023424,0.021472,1.032608,-1.960000,3.500000,0.140000
23.806948,-0.052704,0.060512,0.828624,2.240000,0.420000,-1.120000
23.815035,0.003904,0.024400,1.114592,-1.120000,0.140000,-0.140000
23.823122,-0.075152,0.031232,0.788608,0.980000,1.680000,0.420000
23.831210,0.079544,0.034160,1.120936,0.560000,-2.380000,-1.120000
23.839297,-0.110776,0.021472,0.825696,-0.980000,5.040000,-0.980000
23.847384,0.007808,0.068808,1.058960,2.660000,-3.640000,-0.840000
23.855471,-0.025864,-0.000488,0.972096,-1.260000,5.600000,-0.840000
23.863559,-0.089304,0.070272,0.886696,2.240000,-0.840000,0.420000
23.871646,0.059048,-0.001464,1.065304,-0.280000,-0.420000,-0.840000
23.879733,-0.057096,0.029768,0.810568,1.540000,1.400000,0.140000
23.887821,0.006832,0.031720,1.077504,1.260000,-1.540000,-1.680000
23.895908,-0.072712,0.036600,0.927200,-0.980000,3.640000,0.280000
23.903995,-0.060512,0.043432,0.911096,2.240000,-2.380000,-0.420000
23.912082,0.018056,0.033672,1.049688,-0.560000,0.700000,0.560000
23.920170,-0.051240,0.015128,0.777384,0.560000,1.820000,1.680000
23.928257,0.048800,0.050264,1.076040,0.280000,-2.940000,-1.680000
23.936344,-0.098088,0.007320,0.920856,-0.980000,1.820000,-0.420000
23.944432,-0.007808,0.061976,0.951600,1.400000,-2.100000,-0.140000
23.952519,-0.005368,-0.007320,1.036024,-0.140000,1.120000,-0.700000
23.960606,-0.061000,0.051240,0.825208,1.820000,0.700000,0.420000
23.968693,0.011712,0.020008,1.016504,1.820000,-4.340000,-0.420000
23.976781,-0.023912,0.048800,0.974536,-1.960000,3.780000,-0.280000
23.984868,-0.046360,-0.025864,0.830576,3.220000,-0.280000,-1.120000
23.992955,0.016592,0.091744,1.083848,-0.840000,-2.940000,-0.280000
24.001043,0.012200,-0.043432,0.878400,2.240000,2.940000,0.000000
24.009130,-0.106384,0.084912,0.939888,3.500000,0.840000,-1.260000
24.017217,0.024888,0.006344,1.109712,-0.560000,-1.260000,0.840000
24.025304,-0.094184,0.046360,0.827648,2.520000,3.360000,0.280000
24.033392,0.075640,0.006344,1.079456,0.280000,-4.620000,-0.420000
24.041479,-0.046848,0.062464,0.941352,-0.280000,5.180000,-1.680000
24.049566,-0.058560,-0.036112,0.870592,0.280000,-3.220000,0.980000
24.057654,0.061000,0.081984,1.191208,0.000000,-1.540000,-0.700000
24.065741,-0.115656,0.000000,0.888160,2.380000,4.060000,-1.400000
24.073828,0.009760,0.041480,1.018456,2.380000,-4.340000,0.420000
24.081915,-0.019520,0.047336,1.098488,0.560000,-0.420000,0.420000
24.090003,-0.004880,0.007320,0.938912,3.360000,0.700000,-1.960000
24.098090,-0.016104,0.047824,1.068232,1.680000,-2.660000,-1.120000
24.106177,0.021472,0.030256,1.021384,0.980000,-0.700000,-0.840000
24.114265,-0.042456,-0.004880,0.970632,2.800000,0.700000,-0.980000
24.122352,-0.004880,0.058560,1.096536,3.780000,-1.120000,-2.100000
24.130439,-0.042944,-0.033672,1.052616,4.620000,2.520000,0.000000
24.138527,-0.012200,0.070272,1.016016,9.940000,-1.820000,0.420000
24.146614,0.023912,0.003904,1.202432,6.860000,2.660000,-2.100000
24.154701,-0.062464,0.001952,0.897432,12.180000,2.520000,0.000000
24.162788,0.041480,0.027816,1.150216,15.820000,-1.260000,-0.700000
24.170876,0.000000,0.031232,0.970632,15.400000,4.480000,-0.560000
24.178963,-0.062952,0.035136,0.946720,13.720000,2.380000,-1.540000
24.187050,0.032696,0.033184,1.221952,9.380000,-0.560000,0.560000
24.195138,-0.067344,0.020984,0.915976,14.140000,7.560000,-0.840000
24.203225,0.095160,0.007808,1.092632,13.160000,-4.760000,-1.260000
24.211312,-0.058072,0.092232,1.005768,9.240000,8.680000,-1.960000
24.219399,-0.013664,-0.053680,0.994056,11.620000,-5.320000,-0.560000
24.227487,-0.011712,0.133712,1.240496,9.100000,7.420000,-1.120000
24.235574,0.000000,-0.070760,0.872544,8.820000,-1.540000,-1.120000
24.243661,-0.011712,0.105408,1.196088,2.800000,0.140000,0.560000
24.251749,-0.052216,0.025376,1.071160,4.200000,4.060000,-1.960000
24.259836,0.036112,-0.026352,1.128744,1.680000,-4.620000,-0.420000
24.267923,-0.065880,0.118584,1.088240,0.420000,5.320000,-0.420000
24.276010,0.019032,-0.033672,1.086776,0.000000,-3.080000,-1.960000
24.284098,-0.037088,0.051728,1.245864,0.980000,2.520000,-1.120000
24.292185,-0.010248,0.029280,0.890600,2.380000,2.940000,0.280000
24.300272,0.019520,0.004880,1.315648,-1.960000,-3.500000,-1.680000
24.308360,-0.052704,0.012688,0.904264,-1.260000,5.460000,0.280000
24.316447,0.028304,0.096136,1.383968,0.700000,-0.840000,-2.520000
24.324534,-0.053192,-0.074664,0.907192,-0.280000,0.980000,0.280000
24.332621,0.006832,0.160064,1.293200,0.140000,-0.560000,-1.120000
24.340709,-0.046360,-0.064904,0.989176,-1.680000,5.600000,-0.840000
24.348796,0.000488,0.062464,1.181448,0.000000,-3.080000,-0.280000
24.356883,-0.008784,0.041968,1.093608,-2.100000,6.440000,-1.820000
24.364971,-0.022936,-0.013664,1.107272,0.140000,-6.580000,-1.680000
24.373058,-0.000976,0.041968,1.220976,-0.840000,6.020000,-1.400000
24.381145,-0.039040,0.049776,1.007232,1.400000,-0.560000,-1.960000
24.389232,-0.005368,-0.018056,1.342000,-0.980000,-1.120000,-1.400000
24.397320,-0.070760,0.087840,0.945256,2.520000,4.340000,0.000000
24.405407,0.044408,-0.039528,1.385432,5.460000,-0.700000,-2.940000
24.413494,-0.093696,0.030256,0.867664,8.260000,4.480000,-0.140000
24.421582,0.043432,0.077592,1.439112,8.540000,-0.140000,-3.360000
24.429669,-0.061000,-0.116144,0.923296,13.300000,1.260000,-0.280000
24.437756,-0.056120,0.171776,1.405928,19.740000,0.560000,-1.120000
24.445844,0.019032,-0.073200,0.803736,15.260000,1.540000,-1.400000
24.453931,-0.031720,0.110288,1.268312,10.780000,-3.360000,-1.540000
24.462018,-0.075152,0.025864,0.980392,12.320000,7.280000,-1.540000
24.470105,0.067832,-0.027328,1.188768,12.040000,-5.180000,-3.500000
24.478193,-0.166896,0.142008,0.930616,7.280000,8.120000,-0.700000
24.486280,0.097600,-0.022448,1.263432,6.580000,-5.460000,-2.660000
24.494367,-0.161040,0.068808,0.924760,4.060000,3.640000,-0.700000
24.502455,0.069784,0.036600,1.173640,2.380000,-1.120000,-2.100000
24.510542,-0.105408,0.016104,0.998448,-2.520000,2.800000,-1.820000
24.518629,0.045384,-0.002440,1.126792,-1.960000,-2.240000,-2.100000
24.526716,-0.112728,0.122488,1.173152,-0.980000,4.340000,-1.820000
24.534804,0.038064,-0.090280,1.016504,1.120000,-4.620000,-0.560000
24.542891,-0.113704,0.179096,1.166808,0.700000,7.000000,-2.100000
24.550978,0.061976,-0.141520,0.999424,0.700000,-7.700000,-1.260000
24.559066,-0.101016,0.161040,1.180960,0.980000,5.600000,-0.840000
24.567153,0.023424,-0.010736,1.049688,1.120000,-1.820000,-2.940000
24.575240,-0.126392,0.013176,1.116056,-0.420000,0.840000,-1.260000
24.583327,0.057096,0.084424,1.029680,0.420000,-0.840000,-1.120000
24.591415,-0.034648,-0.086376,1.172176,-0.560000,3.080000,-2.380000
24.599502,-0.095648,0.189832,1.041880,1.680000,0.420000,-0.140000
24.607589,-0.026840,-0.093696,1.120448,-0.700000,1.540000,-1.120000
24.615677,0.001952,0.104432,1.066768,1.120000,-4.760000,-0.140000
24.623764,-0.041968,0.002928,1.114592,0.700000,9.800000,-2.660000
24.631851,-0.027328,0.033672,1.074088,1.120000,-9.660000,0.140000
24.639938,-0.072712,0.039528,1.058472,-0.420000,9.240000,-0.420000
24.648026,0.054656,-0.000488,1.141920,2.100000,-7.700000,-1.260000
24.656113,-0.129320,0.037576,1.005280,-1.120000,9.660000,1.400000
24.664200,0.071736,0.055632,1.209752,1.820000,-7.140000,-2.520000
24.672288,-0.098576,-0.027816,0.931592,-0.140000,4.760000,-0.560000
24.680375,0.009272,0.089792,1.219024,3.080000,-2.380000,-1.540000
24.688462,-0.057584,-0.022936,0.943792,-0.980000,3.500000,0.000000
24.696549,-0.015616,0.068320,1.174128,2.800000,-2.520000,-1.120000
24.704637,-0.039040,0.015128,1.052616,-0.700000,4.760000,-1.260000
24.712724,0.011224,-0.040504,0.995032,2.520000,-1.960000,-0.560000
24.720811,-0.068808,0.178608,1.249280,1.260000,6.580000,-3.080000
24.728899,-0.024888,-0.152744,0.850584,1.680000,-4.480000,-0.980000
24.736986,-0.046848,0.225944,1.304912,0.140000,6.580000,-0.700000
24.745073,-0.014152,-0.188368,0.837408,2.800000,0.420000,-1.400000
24.753160,-0.072224,0.219112,1.289296,1.540000,0.980000,0.140000
24.761248,-0.024400,-0.118584,0.845704,1.540000,0.700000,-0.420000
24.769335,-0.011712,0.142496,1.355664,0.280000,-0.700000,-1.400000
24.777422,-0.044408,-0.053192,0.740296,3.080000,6.020000,-0.980000
24.785510,-0.018056,0.069784,1.412760,0.280000,-6.160000,-1.260000
24.793597,-0.040016,0.010248,0.722728,1.820000,4.060000,0.420000
24.801684,-0.006344,0.046848,1.430328,2.380000,-0.980000,-4.060000
24.809771,-0.108824,-0.017080,0.689056,1.540000,1.820000,1.400000
24.817859,0.061488,0.091744,1.386896,0.980000,-2.240000,-2.520000
24.825946,-0.095648,-0.029280,0.855464,0.980000,1.540000,-1.260000
24.834033,0.022936,0.067344,1.202920,2.100000,0.840000,-2.240000
24.842121,-0.067832,-0.004392,0.942816,1.120000,0.000000,-1.260000
24.850208,-0.007320,0.014640,1.148752,1.120000,-1.540000,-1.540000
24.858295,-0.092720,0.094184,1.042856,0.140000,5.040000,-1.680000
24.866382,0.008784,-0.071248,1.019920,2.100000,-4.200000,-0.700000
24.874470,-0.091744,0.133224,1.152168,0.420000,4.900000,-0.980000
24.882557,0.035136,-0.078080,0.928176,1.680000,-2.940000,-1.260000
24.890644,-0.107360,0.120048,1.176080,-0.280000,6.440000,-0.840000
24.898732,-0.008296,-0.024888,0.928664,1.120000,-4.340000,-0.980000
24.906819,-0.022936,0.050264,1.165344,-0.980000,4.760000,-0.560000
24.914906,-0.097112,0.056120,0.960384,3.080000,-1.260000,-0.980000
24.922993,0.010248,-0.005368,1.164368,-1.680000,1.540000,-0.560000
24.931081,-0.092720,0.065880,0.894992,1.680000,-0.140000,-0.140000
24.939168,0.033672,-0.034648,1.298568,-0.560000,-0.140000,-1.400000
24.947255,-0.073688,0.100528,0.794464,1.960000,1.820000,0.420000
24.955343,-0.003416,-0.029768,1.283440,-1.120000,0.980000,-1.960000
24.963430,-0.062464,0.040504,0.833016,0.700000,1.400000,0.420000
24.971517,-0.034160,0.074664,1.305888,1.820000,0.560000,-2.660000
24.979604,-0.063440,-0.041968,0.879864,0.140000,-0.280000,0.140000
24.987692,0.008296,0.102480,1.181936,1.540000,1.540000,-1.260000
24.995779,-0.062952,-0.052704,1.006256,0.140000,0.980000,-0.700000
25.003866,-0.014640,0.138104,1.095072,0.420000,0.840000,-0.280000
25.011954,-0.039040,-0.081496,1.056032,-0.840000,3.220000,-0.700000
25.020041,0.022448,0.102480,1.067744,0.700000,-2.660000,-0.840000
25.028128,-0.105896,0.008784,1.099464,-0.980000,5.880000,-1.820000
25.036215,0.006344,0.024888,1.042856,-0.140000,-6.300000,0.980000
25.044303,-0.044408,0.058072,1.106784,-0.700000,8.960000,-1.400000
25.052390,-0.016104,-0.004880,1.067256,0.700000,-7.560000,-0.980000
25.060477,-0.077592,0.085888,1.033584,-2.100000,7.700000,-0.560000
25.068565,0.027816,-0.042944,1.037488,0.420000,-6.440000,-0.560000
25.076652,-0.067344,0.104920,1.155584,-1.260000,5.740000,-0.980000
25.084739,-0.031232,-0.019032,0.928176,-0.140000,-2.660000,-0.420000
25.092826,-0.003904,0.048800,1.235128,-1.680000,2.240000,-0.140000
25.100914,-0.052704,0.034160,0.880840,0.840000,1.120000,-0.280000
25.109001,-0.000488,0.016592,1.272704,-1.400000,0.980000,-1.260000
25.117088,-0.074176,0.054656,0.789096,0.140000,4.060000,-0.420000
25.125176,0.042456,-0.011224,1.349320,-0.840000,-1.820000,-2.520000
25.133263,-0.107848,0.066368,0.749080,-0.280000,4.480000,0.980000
25.141350,0.041480,0.015128,1.348344,-0.700000,-1.260000,-2.380000
25.149437,-0.079544,0.001464,0.763232,-0.700000,4.200000,1.400000
25.157525,-0.019032,0.104920,1.375672,1.260000,-0.420000,-2.240000
25.165612,-0.041480,-0.058560,0.754936,-0.560000,2.380000,0.700000
25.173699,0.017568,0.107848,1.263432,1.400000,0.140000,-2.660000
25.181787,-0.058072,-0.063440,0.888648,-0.420000,0.420000,0.140000
25.189874,0.020984,0.134200,1.219024,3.220000,1.120000,-0.700000
25.197961,-0.010248,-0.082960,0.902312,0.000000,12.320000,-1.540000
25.206048,-0.087352,0.137128,1.156072,4.200000,4.620000,-0.420000
25.214136,0.034648,-0.041480,1.032120,-0.700000,10.640000,-1.400000
25.222223,-0.069784,0.041968,0.961848,3.780000,5.880000,-0.980000
25.230310,-0.017080,0.073688,1.225856,-0.420000,12.740000,-2.240000
25.238398,-0.072712,-0.060024,0.817400,2.660000,2.240000,0.000000
25.246485,0.036600,0.108336,1.223904,1.400000,9.380000,-0.980000
25.254572,-0.050264,-0.042944,0.950624,4.060000,11.760000,-0.980000
25.262659,-0.022936,0.088328,1.115080,2.520000,13.300000,-0.420000
25.270747,-0.014152,-0.024888,0.984296,1.680000,12.740000,-0.700000
25.278834,-0.004392,0.038552,1.057984,3.640000,13.160000,0.000000
25.286921,-0.008296,0.075152,1.168760,1.680000,22.820000,-3.360000
25.295009,-0.011224,-0.086864,0.820816,2.520000,19.180000,0.140000
25.303096,-0.023912,0.166408,1.267824,1.960000,19.320000,-2.380000
25.311183,-0.030256,-0.106872,0.923296,2.800000,20.860001,-1.400000
25.319270,-0.056120,0.152744,1.124352,3.780000,17.219999,-1.120000
25.327358,0.019520,-0.075152,0.984784,0.420000,21.840000,-1.120000
25.335445,-0.020496,0.115656,1.054568,2.800000,15.680000,-0.840000
25.343532,-0.025376,-0.002928,1.118008,0.420000,24.639999,-3.360000
25.351620,-0.088816,0.008784,0.854488,0.560000,10.500000,0.700000
25.359707,0.056608,0.075640,1.274656,0.420000,16.520000,-2.520000
25.367794,-0.054656,-0.061488,0.813984,1.820000,9.520000,-0.980000
25.375881,-0.086376,0.134688,1.240008,1.120000,7.000000,-1.820000
25.383969,-0.076616,-0.054656,0.810568,-0.140000,-5.040000,-1.400000
25.392056,0.041968,0.047824,1.163880,0.140000,-16.240000,-1.260000
25.400143,-0.058560,0.031720,0.939400,1.820000,1.260000,-2.100000
25.408231,0.058560,-0.015616,1.113616,1.540000,-5.880000,-1.400000
25.416318,-0.046848,0.099064,0.987224,-1.400000,7.000000,-2.380000
25.424405,-0.041480,-0.079056,1.004304,1.680000,-3.780000,-1.540000
25.432492,0.010736,0.130296,1.121912,0.000000,5.740000,-0.840000
25.440580,-0.016592,-0.119072,0.886208,2.940000,2.940000,-1.820000
25.448667,-0.063928,0.202032,1.215120,-1.120000,1.540000,-1.540000
25.456754,0.014640,-0.138104,0.855952,1.820000,4.200000,-1.820000
25.464842,-0.014640,0.172752,1.176080,0.000000,0.000000,-0.980000
25.472929,-0.054656,-0.100040,0.949160,1.540000,7.280000,-2.940000
25.481016,-0.015128,0.101504,1.063840,0.280000,-2.380000,-0.700000
25.489103,-0.045384,-0.007320,0.989176,-1.120000,6.580000,-1.540000
25.497191,-0.024888,0.029768,1.034072,1.540000,-1.960000,0.000000
25.505278,0.007320,0.039528,1.075064,-0.420000,6.160000,-2.100000
25.513365,-0.069296,-0.008296,0.915000,0.980000,-3.640000,0.000000
25.521453,0.000488,0.083936,1.193648,-1.400000,5.320000,-1.820000
25.529540,-0.023424,-0.041968,0.811544,2.100000,0.000000,-0.980000
25.537627,-0.052216,0.092232,1.182424,1.960000,1.540000,-1.820000
25.545714,-0.053680,-0.022936,0.848632,-0.700000,0.280000,0.840000
25.553802,0.016104,0.051728,1.159488,0.840000,-0.980000,-1.120000
25.561889,-0.083448,0.012200,0.912560,-0.280000,3.780000,-0.840000
25.569976,0.033184,0.020008,1.106784,1.820000,-5.460000,-1.260000
25.578064,-0.057584,0.024888,0.927200,-1.260000,6.860000,-0.840000
25.586151,-0.056608,0.038064,1.055056,2.520000,-3.920000,-0.840000
25.594238,0.007320,0.038552,1.014552,-0.700000,3.920000,-1.680000
25.602325,-0.045384,-0.025376,0.888160,0.700000,-3.080000,0.980000
25.610413,-0.020496,0.076616,1.175104,-1.260000,2.800000,-1.260000
25.618500,-0.096624,-0.014152,0.874984,1.540000,1.400000,-0.280000
25.626587,0.060024,0.070760,1.045784,-0.700000,-2.660000,-1.680000
25.634675,-0.077592,-0.040504,0.978440,0.560000,3.220000,-0.980000
25.642762,-0.034160,0.101016,1.031632,0.420000,0.420000,-1.540000
25.650849,-0.017080,-0.017568,0.982344,-0.560000,1.400000,-0.700000
25.658936,-0.037576,0.044408,0.920368,0.840000,-0.700000,0.560000
25.667024,-0.012200,0.012688,1.197064,0.420000,1.260000,-2.240000
25.675111,-0.091744,0.044896,0.755912,1.960000,2.660000,0.140000
25.683198,0.061000,0.028304,1.158512,0.000000,-4.760000,-1.260000
25.691286,-0.104432,0.012688,0.881816,0.420000,7.280000,-1.400000
25.699373,-0.013176,0.034160,1.087264,1.260000,-2.800000,-1.960000
25.707460,-0.030744,0.021472,0.937448,-0.560000,4.900000,0.280000
25.715547,-0.041480,0.018056,0.982344,1.960000,-3.640000,-0.140000
25.723635,-0.008784,0.044896,1.096536,-0.560000,4.900000,-2.240000
25.731722,-0.129320,0.022936,0.819352,2.100000,-0.980000,0.280000
25.739809,0.079544,0.037576,1.118008,-1.260000,-4.060000,-1.820000
25.747897,-0.144448,-0.020496,0.852048,1.400000,-2.520000,-0.280000
25.755984,0.012688,0.070272,1.107272,0.700000,-11.900000,-0.980000
25.764071,-0.040992,0.003416,0.915976,0.140000,-3.640000,-0.140000
25.772158,-0.024888,0.049776,0.976000,2.380000,-9.520000,-1.260000
25.780246,-0.018544,0.014152,1.067256,-1.540000,-4.340000,-2.100000
25.788333,-0.139080,0.047336,0.818376,3.360000,-9.520000,-0.840000
25.796420,0.060024,0.019520,1.162904,-1.540000,-13.860000,-0.420000
25.804508,-0.079544,0.013176,0.756400,1.960000,-6.300000,-0.420000
25.812595,-0.017568,0.011712,1.080432,-0.560000,-11.060000,-1.120000
25.820682,-0.086376,0.077592,0.968680,-0.140000,-8.120000,0.980000
25.828769,0.027816,-0.008296,0.834480,1.120000,-11.620000,-1.120000
25.836857,-0.032208,0.062464,1.100440,-0.700000,-10.220000,-2.100000
25.844944,-0.101016,-0.042456,0.795928,0.280000,-6.440000,-0.560000
25.853031,0.049776,0.091256,1.072624,-0.560000,-13.160000,0.420000
25.861119,-0.056608,-0.005856,0.925248,-0.280000,-0.700000,-2.100000
25.869206,-0.013664,0.035136,0.840824,0.280000,-5.180000,0.140000
25.877293,-0.008296,0.042944,1.100928,-0.420000,-2.660000,-0.700000
25.885380,-0.025864,0.001464,0.857904,1.120000,3.780000,-1.400000
25.893468,-0.074664,0.082472,0.979416,0.840000,-0.280000,-2.240000
25.901555,0.042944,0.011224,0.962824,-2.100000,1.400000,-0.980000
25.909642,-0.068320,-0.007320,0.797392,1.400000,0.560000,-0.140000
25.917730,-0.009272,0.059048,1.122400,0.980000,0.000000,-2.100000
25.925817,-0.081496,-0.008296,0.826184,-0.140000,5.320000,-0.700000
25.933904,-0.030744,0.079544,0.913048,-0.280000,-2.520000,-1.120000
25.941992,0.051240,-0.040016,1.063840,-0.980000,1.540000,-1.120000
25.950079,-0.114680,0.046360,0.727120,1.960000,3.640000,-1.820000
25.958166,0.048800,0.018544,1.111664,0.700000,-3.780000,-1.260000
25.966253,-0.107848,0.022448,0.802760,0.700000,5.320000,-0.700000
25.974341,-0.023912,0.056120,1.029192,2.380000,-4.060000,-0.700000
25.982428,0.017080,0.003416,0.975512,-1.680000,3.920000,-1.820000
25.990515,-0.096136,0.040504,0.808616,2.100000,1.400000,-0.840000
25.998603,0.074664,-0.024888,1.026752,-0.280000,-3.220000,-1.400000
26.006690,-0.131272,0.073200,0.922808,1.120000,5.180000,-1.400000
26.014777,-0.031232,-0.019520,0.878888,1.540000,-2.660000,0.560000
26.022864,0.018056,0.093208,1.087752,0.420000,0.420000,-0.700000
26.030952,-0.092232,-0.021472,0.793976,1.540000,3.220000,-1.680000
26.039039,0.059048,0.053192,1.037488,0.560000,-2.380000,-1.260000
26.047126,-0.105408,0.017568,0.856928,0.980000,4.200000,-1.120000
26.055214,0.017080,0.017080,0.936960,0.980000,-2.940000,-0.700000
26.063301,-0.096624,0.054656,1.062376,0.420000,2.800000,-2.240000
26.071388,-0.010736,0.000488,0.804712,1.680000,-0.280000,0.980000
26.079475,0.056608,0.029280,1.045296,1.820000,-2.240000,-1.400000
26.087563,-0.096624,0.024400,0.903776,0.560000,5.320000,-1.960000
26.095650,-0.039528,0.018056,0.913536,1.540000,-1.960000,-0.420000
26.103737,-0.031232,0.065392,1.079456,0.000000,1.120000,-1.260000
26.111825,-0.015128,-0.023424,0.843752,1.260000,2.100000,-0.840000
26.119912,-0.026352,0.060512,0.978440,0.700000,-0.980000,-1.820000
26.127999,-0.035624,-0.005856,0.934520,0.420000,1.540000,-0.420000
26.136086,-0.050752,0.042456,0.934520,1.960000,-0.840000,-1.680000
26.144174,0.012200,0.046848,1.104832,-0.560000,1.680000,-1.680000
26.152261,-0.034648,-0.006832,0.741272,1.960000,2.100000,-1.120000
26.160348,-0.029280,0.051240,1.116544,0.000000,-2.800000,-0.840000
26.168436,-0.064904,-0.023424,0.866688,1.540000,4.620000,-0.140000
26.176523,0.003416,0.082472,1.007232,1.820000,-3.780000,-0.700000
26.184610,-0.033184,-0.011224,1.004304,-0.280000,3.640000,-1.680000
26.192697,-0.080032,0.063928,0.832528,1.820000,-0.420000,-1.120000
26.200785,0.028792,0.010736,1.134600,-1.260000,-0.280000,-1.540000
26.208872,-0.089792,0.009272,0.797880,3.080000,3.360000,-1.400000
26.216959,0.011224,0.052216,1.132648,-0.280000,-4.200000,-1.260000
26.225047,-0.040016,0.024400,0.887672,0.840000,4.060000,-0.980000
26.233134,-0.060512,0.010248,1.016504,1.960000,-2.520000,-0.980000
26.241221,0.053192,0.042456,1.000400,-1.120000,3.080000,-0.560000
26.249308,-0.112728,-0.006832,0.804712,3.220000,1.400000,-1.260000
26.257396,-0.019032,0.104920,1.173152,-1.400000,-0.140000,-1.680000
26.265483,-0.045384,-0.043920,0.772992,2.800000,3.220000,-1.120000
26.273570,0.018056,0.089304,1.125816,0.000000,-3.080000,-1.120000
26.281658,-0.061000,-0.024888,0.907192,0.700000,4.760000,-1.120000
26.289745,-0.022936,0.052704,0.995032,0.700000,-1.820000,-0.700000
26.297832,-0.007320,0.016592,1.083360,-0.840000,3.500000,-1.400000
26.305919,-0.043920,-0.006832,0.792512,2.940000,0.700000,-2.100000
26.314007,-0.040016,0.104432,1.163880,-1.120000,1.960000,-1.260000
26.322094,-0.043920,-0.081496,0.755424,1.120000,1.260000,-1.260000
26.330181,-0.026352,0.146888,1.212680,-0.700000,-1.540000,-0.840000
26.338269,-0.058072,-0.071248,0.813984,0.420000,4.200000,-0.560000
26.346356,0.020008,0.096136,1.116056,1.680000,-3.360000,-0.280000
26.354443,-0.014640,-0.011224,0.834968,-0.980000,5.180000,-2.800000
26.362530,-0.069784,0.001464,1.008696,1.400000,-3.500000,0.280000
26.370618,-0.037088,0.088816,1.125816,-0.140000,5.460000,-2.100000
26.378705,-0.003416,-0.040992,0.748104,0.980000,-0.700000,-0.700000
26.386792,-0.098088,0.104920,1.154608,0.000000,0.140000,-1.680000
26.394880,0.041968,-0.074176,0.804224,0.420000,1.820000,0.420000
26.402967,-0.032208,0.097600,1.118496,0.280000,-1.260000,-1.400000
26.411054,-0.062464,-0.002928,0.938912,0.560000,4.060000,-1.400000
26.419141,-0.031232,0.047336,0.968192,0.840000,-3.220000,0.280000
26.427229,0.010736,0.034160,1.038464,0.000000,4.060000,-2.240000
26.435316,-0.092720,-0.036600,0.805688,1.120000,-0.420000,0.700000
26.443403,-0.010736,0.122488,1.157048,0.000000,-1.540000,-1.680000
26.451491,-0.052216,-0.061976,0.844728,0.420000,3.080000,0.420000
26.459578,0.008296,0.101504,1.090680,0.000000,-3.360000,-2.520000
26.467665,-0.011712,-0.045872,0.900360,1.120000,3.500000,-0.140000
26.475752,-0.068808,0.054168,1.013088,1.540000,-2.240000,-1.260000
26.483840,0.007320,0.035136,1.105320,0.000000,2.800000,-1.680000
26.491927,-0.071736,0.023912,0.739808,1.260000,0.420000,0.280000
26.500014,0.017568,0.049776,1.225856,-0.560000,-1.680000,-1.540000
26.508102,-0.065880,-0.026352,0.797880,0.840000,8.540000,-1.400000
26.516189,-0.005368,0.062464,1.113128,0.280000,1.260000,-1.400000
26.524276,-0.006832,-0.010248,0.936472,-0.280000,9.940000,-0.980000
26.532363,-0.021960,0.050264,0.934520,2.660000,6.860000,-1.260000
26.540451,-0.040504,0.016104,1.174616,0.000000,10.360000,-0.700000
26.548538,-0.071736,0.038552,0.760304,2.660000,9.800000,-0.560000
26.556625,0.052704,0.022448,1.126304,-1.120000,3.780000,-2.100000
26.564713,-0.093208,0.015616,0.920856,1.960000,16.240000,-0.420000
26.572800,0.015128,0.018056,1.042368,1.680000,10.080000,-0.420000
26.580887,-0.042456,0.063928,1.007232,1.120000,15.960000,-0.980000
26.588974,-0.081984,-0.000488,0.841800,1.120000,7.840000,0.560000
26.597062,0.065880,0.074664,1.151680,-1.400000,11.900000,-0.980000
26.605149,-0.096136,-0.074664,0.805688,3.080000,12.740000,-1.400000
26.613236,0.016592,0.122488,1.153632,-1.540000,6.300000,-0.420000
26.621324,-0.090280,-0.027816,0.835456,1.400000,11.760000,-0.840000
26.629411,0.008784,0.061000,1.067256,1.120000,0.280000,-1.120000
26.637498,-0.042456,-0.001952,1.001376,1.260000,8.820000,-1.260000
26.645585,-0.049776,0.046848,0.874496,1.260000,6.160000,0.000000
26.653673,-0.038064,0.033184,1.113128,-0.980000,0.140000,-0.980000
26.661760,-0.071248,-0.006344,0.820816,1.400000,0.140000,-0.560000
26.669847,0.066368,0.030256,1.068720,0.000000,-4.480000,-0.700000
26.677935,-0.091744,0.030256,0.953552,0.840000,6.300000,-1.680000
26.686022,-0.051240,0.003416,0.916952,2.240000,-2.520000,0.140000
26.694109,0.021960,0.089792,1.092632,-0.280000,0.000000,-0.560000
26.702196,0.002928,-0.093208,0.824720,2.380000,3.080000,-0.700000
26.710284,-0.058072,0.135664,1.097512,1.960000,0.840000,-1.820000
26.718371,-0.027816,-0.059536,0.885720,0.700000,1.400000,-0.420000
26.726458,-0.068808,0.113704,0.985272,2.940000,-0.280000,-0.420000
26.734546,0.039528,-0.065392,1.077016,-0.140000,1.120000,-1.680000
26.742633,-0.092232,0.055144,0.854000,2.660000,5.320000,0.000000
26.750720,0.005368,0.015616,1.097024,1.260000,-4.760000,-0.840000
26.758807,-0.007320,0.027328,0.928176,0.840000,5.180000,-0.980000
26.766895,-0.077592,0.015128,0.964776,2.380000,-1.820000,-0.840000
26.774982,0.031232,0.019520,1.134112,-0.840000,1.540000,-0.560000
26.783069,-0.091256,0.009272,0.846680,2.660000,1.260000,-0.560000
26.791157,0.070760,0.056120,1.083360,0.420000,-2.520000,-1.260000
26.799244,-0.121024,-0.020496,0.972584,1.680000,5.040000,-0.980000
26.807331,0.009272,0.055632,1.010648,1.820000,-5.040000,0.140000
26.815418,-0.000976,0.014640,1.059936,0.420000,4.620000,-2.520000
26.823506,-0.061488,0.023424,0.882792,2.100000,-1.680000,-0.140000
26.831593,0.024888,0.011712,1.117520,-0.560000,0.000000,-1.820000
26.839680,-0.106872,0.015128,0.957944,2.380000,2.660000,0.140000
26.847768,0.016592,0.069296,1.017480,0.560000,-1.120000,-2.100000
26.855855,-0.038064,-0.023912,1.038464,0.280000,2.800000,-1.120000
26.863942,-0.056120,0.037088,0.883768,1.680000,0.140000,-0.280000
26.872030,0.005368,0.023912,1.141920,1.540000,-0.420000,-1.820000
26.880117,-0.075152,0.019032,0.849608,0.560000,5.460000,-0.700000
26.888204,0.029768,0.014640,1.152168,1.260000,-5.040000,-1.400000
26.896291,-0.040504,0.024400,0.954040,0.280000,7.280000,-1.820000
26.904379,-0.074664,0.025864,0.981368,2.800000,-3.920000,-0.560000
26.912466,0.042456,0.033184,1.087264,-0.280000,3.780000,-1.400000
26.920553,-0.042456,-0.020008,0.886696,1.680000,1.680000,-1.540000
26.928641,-0.008784,0.040016,1.136552,1.260000,-1.540000,-1.820000
26.936728,-0.078568,0.010736,0.886208,-0.420000,5.880000,-1.120000
26.944815,-0.005368,0.038064,1.055544,2.240000,-2.940000,-1.820000
26.952902,-0.012688,0.009760,1.027240,-1.260000,4.760000,-2.800000
26.960990,-0.077104,0.013176,0.878400,1.820000,-1.820000,0.560000
26.969077,0.020984,0.035136,1.191208,-0.560000,2.240000,-1.680000
26.977164,-0.086864,0.039528,0.846192,0.700000,2.380000,-1.400000
26.985252,0.036600,-0.018544,1.035048,-0.700000,-2.520000,-1.820000
26.993339,-0.057096,0.048800,1.034560,0.000000,3.360000,-0.700000
27.001426,-0.003416,-0.013664,0.916952,1.400000,-0.980000,-1.820000
27.009513,-0.046360,0.067344,1.199504,0.000000,0.140000,-0.420000
27.017601,-0.014640,-0.029280,0.735416,0.420000,2.100000,-0.560000
27.025688,0.006832,0.063440,1.228784,0.420000,-1.680000,-1.820000
27.033775,-0.108336,-0.023424,0.810080,1.820000,5.320000,-1.120000
27.041863,0.043920,0.071736,1.122400,0.420000,-5.740000,-0.420000
27.049950,-0.044408,-0.013664,0.975512,-0.140000,6.580000,-2.660000
27.058037,-0.021472,0.011712,0.917440,2.520000,-2.940000,-0.140000
27.066124,-0.019520,0.050752,1.144360,0.000000,1.960000,-1.400000
27.074212,-0.029280,-0.038552,0.840824,1.400000,1.960000,-0.140000
27.082299,-0.018056,0.110288,1.138504,0.280000,-0.560000,-2.800000
27.090386,-0.033672,-0.064904,0.893528,0.000000,2.380000,-0.280000
27.098474,0.008784,0.101504,1.098000,0.980000,-2.100000,-2.240000
27.106561,-0.006832,-0.069784,0.999912,-0.140000,3.220000,-1.680000
27.114648,-0.116632,0.100528,0.935008,2.800000,0.280000,-0.700000
27.122735,0.061000,-0.020496,1.110688,-1.960000,-0.560000,-0.980000
27.130823,-0.092232,0.044896,0.891576,2.380000,3.360000,-1.120000
27.138910,0.061976,-0.014152,1.100440,-0.560000,-3.220000,-1.120000
27.146997,-0.103944,0.075640,0.945744,1.680000,5.040000,-1.260000
27.155085,0.022936,-0.017080,1.000400,0.140000,-2.100000,-1.680000
27.163172,-0.020984,0.069784,1.026752,-2.100000,3.360000,-0.840000
27.171259,-0.061000,-0.067344,0.921832,2.380000,-2.240000,-0.140000
27.179346,-0.006344,0.129320,1.160464,-1.680000,0.420000,-0.980000
27.187434,-0.031232,-0.111264,0.814960,2.100000,1.960000,-0.840000
27.195521,-0.007320,0.155672,1.115568,-1.960000,-0.980000,-0.280000
27.203608,-0.039040,-0.099064,0.911096,0.980000,1.260000,-1.260000
27.211696,-0.033184,0.125416,1.085312,0.700000,-1.540000,-1.120000
27.219783,0.014152,-0.044408,0.920856,-1.120000,2.520000,-1.260000
27.227870,-0.065880,0.033184,0.930616,0.700000,-0.700000,0.140000
27.235957,-0.003416,0.059536,1.149240,-0.980000,-0.980000,-1.120000
27.244045,-0.031720,-0.024888,0.855464,0.000000,2.380000,0.000000
27.252132,-0.003904,0.064416,1.146800,-0.140000,-0.980000,-1.540000
27.260219,-0.024888,-0.025376,0.849120,-0.560000,3.220000,-1.540000
27.268307,-0.067344,0.059536,1.082384,1.820000,-1.540000,-0.560000
27.276394,0.043920,0.021960,1.018944,-2.100000,3.220000,-1.820000
27.284481,-0.040992,-0.014640,0.877912,1.820000,0.980000,-1.540000
27.292569,-0.055632,0.067344,1.167296,-1.540000,0.700000,-1.960000
27.300656,0.004880,-0.049288,0.837408,0.980000,1.680000,0.700000
27.308743,-0.044896,0.103944,1.123864,0.420000,0.420000,-2.240000
27.316830,-0.010248,-0.064904,0.902800,0.420000,1.820000,0.560000
27.324918,-0.030744,0.089792,1.031144,1.960000,-0.700000,-1.820000
27.333005,0.019520,-0.031232,1.034072,-1.820000,2.520000,-0.840000
27.341092,-0.104432,0.063440,0.957456,3.780000,-0.840000,-1.400000
27.349180,0.065880,0.006832,1.099464,-0.840000,0.420000,-0.700000
27.357267,-0.096624,0.011712,0.825208,3.080000,1.820000,-0.980000
27.365354,-0.009272,0.048800,1.195600,0.140000,0.700000,-0.700000
27.373441,-0.036600,-0.004880,0.812520,1.960000,1.400000,0.140000
27.381529,0.034160,0.022448,1.186816,1.680000,-2.660000,-2.380000
27.389616,-0.095648,0.028304,0.846192,-1.680000,6.440000,-1.120000
27.397703,-0.014640,0.001464,1.092144,3.500000,-4.480000,-1.260000
27.405791,-0.039528,0.073688,1.001376,-0.700000,1.400000,-1.260000
27.413878,0.006832,-0.046360,0.890600,2.660000,-4.620000,-0.420000
27.421965,-0.058560,0.088816,1.174616,-1.540000,2.240000,-0.840000
27.430052,-0.020984,-0.036600,0.833016,2.520000,-3.080000,-0.280000
27.438140,0.021960,0.075640,1.100928,-0.840000,-2.660000,-2.240000
27.446227,-0.090768,-0.019032,0.921344,0.000000,2.520000,-0.140000
27.454314,0.025376,0.052216,1.074088,1.260000,-3.220000,-2.800000
27.462402,-0.075640,0.010248,0.935984,-0.140000,0.700000,-0.280000
27.470489,-0.047824,0.033184,0.985272,0.980000,-8.260000,-0.560000
27.478576,0.043920,-0.002440,1.079456,-0.280000,-5.040000,-1.120000
27.486663,-0.102480,0.048312,0.819352,2.240000,-7.980000,-1.400000
27.494751,0.033672,0.011712,1.218536,-0.700000,-6.860000,-0.560000
27.502838,-0.108824,0.047824,0.819840,1.400000,-2.380000,-1.540000
27.510925,0.083448,-0.035136,1.089216,0.560000,-16.379999,-1.540000
27.519013,-0.160064,0.073200,0.940376,1.400000,-5.040000,0.280000
27.527100,0.086864,-0.026840,1.051152,0.980000,-12.740000,-0.980000
27.535187,-0.077104,0.085400,0.999912,0.140000,-1.680000,-1.960000
27.543274,-0.069784,-0.049288,0.894016,1.960000,-14.280000,-0.280000
27.551362,0.063928,0.089304,1.192672,-0.840000,-8.120000,-0.840000
27.559449,-0.093208,-0.059048,0.812520,3.080000,-5.180000,-1.960000
27.567536,-0.003904,0.108824,1.176568,-0.840000,-9.940000,-1.260000
27.575624,-0.124440,-0.049776,0.765184,1.400000,-11.200000,-0.140000
27.583711,0.072224,0.064904,1.148752,-1.260000,-18.900000,-0.420000
27.591798,-0.109312,-0.005368,0.941352,0.560000,-6.860000,-0.980000
27.599885,0.048312,0.038552,1.040904,1.260000,-13.580000,-0.280000
27.607973,-0.066856,0.018544,0.991616,-1.260000,-10.080000,-0.980000
27.616060,0.006832,0.005368,0.935984,2.520000,-13.440001,-0.840000
27.624147,-0.064416,0.074664,1.129232,-1.820000,-8.960000,-0.280000
27.632235,0.008296,-0.045384,0.816912,1.680000,-10.360000,-0.420000
27.640322,-0.039528,0.086864,1.162904,-1.960000,-6.440000,-0.840000
27.648409,-0.002440,-0.041968,0.815448,1.400000,-0.840000,-0.840000
27.656496,-0.031720,0.060024,1.162904,0.140000,-6.440000,-1.260000
27.664584,0.000000,0.013176,0.894504,0.000000,0.000000,-1.540000
27.672671,-0.015128,-0.022936,0.979904,2.660000,0.560000,-1.120000
27.680758,-0.056608,0.106384,1.121912,0.140000,8.260000,-1.120000
27.688846,-0.043920,-0.070760,0.790560,2.380000,0.980000,-0.560000
27.696933,0.012200,0.136152,1.182912,-1.260000,1.120000,-1.400000
27.705020,-0.044896,-0.112240,0.773968,1.680000,1.540000,-1.400000
27.713107,-0.024888,0.132248,1.181936,-0.140000,0.420000,-0.980000
27.721195,-0.074664,-0.023912,0.822280,0.560000,0.280000,-0.140000
27.729282,0.058560,0.042944,1.145336,1.120000,-3.780000,-1.680000
27.737369,-0.102480,0.003904,0.907192,-0.140000,5.460000,-1.960000
27.745457,0.024888,-0.002440,0.994056,1.680000,-3.500000,-0.700000
27.753544,-0.113216,0.067344,1.087752,0.280000,2.940000,-1.820000
27.761631,0.045872,-0.033672,0.817888,1.400000,-3.080000,-0.560000
27.769718,-0.064904,0.072712,1.207800,0.280000,3.360000,-0.980000
27.777806,-0.003904,-0.041968,0.769088,2.800000,-0.700000,-0.700000
27.785893,-0.017080,0.078568,1.197064,0.140000,-0.560000,-2.520000
27.793980,-0.113704,0.005368,0.799832,0.560000,4.900000,-0.700000
27.802068,0.084912,0.009272,1.147288,0.700000,-3.640000,-1.680000
27.810155,-0.108336,0.039528,0.855464,2.100000,4.060000,-1.120000
27.818242,-0.000488,-0.018544,1.084336,0.840000,-3.780000,0.140000
27.826329,-0.056120,0.068320,1.025288,0.840000,5.180000,-0.980000
27.834417,-0.016592,-0.033184,0.819840,1.680000,-0.840000,-1.120000
27.842504,-0.049288,0.101016,1.216584,0.280000,0.420000,-1.400000
27.850591,-0.008784,-0.086864,0.733952,2.240000,2.800000,-0.700000
27.858679,-0.000976,0.125904,1.192672,-0.560000,-1.540000,-1.400000
27.866766,-0.085888,-0.100040,0.829600,2.100000,4.620000,-0.700000
27.874853,0.031720,0.123464,1.134600,-0.420000,-3.640000,-0.140000
27.882940,-0.080032,-0.064904,0.816912,0.560000,6.440000,-1.400000
27.891028,-0.029280,0.080520,1.106296,2.240000,-5.180000,-0.140000
27.899115,0.018056,0.002440,0.922808,-0.560000,4.620000,-2.380000
27.907202,-0.051728,-0.009272,0.913536,2.660000,-2.240000,0.000000
27.915290,-0.044408,0.079056,1.160464,-0.420000,3.360000,-1.820000
27.923377,0.004880,-0.084424,0.783240,1.680000,-1.120000,0.560000
27.931464,-0.055144,0.118584,1.152168,0.840000,2.100000,-2.380000
27.939551,-0.043432,-0.076616,0.838384,1.400000,0.980000,0.000000
27.947639,-0.002928,0.120536,1.093608,1.540000,-1.120000,-2.100000
27.955726,-0.025376,-0.071736,0.928176,-0.140000,2.660000,-1.120000
27.963813,-0.052704,0.075152,1.014064,2.240000,-0.420000,-1.260000
27.971901,-0.035624,-0.002928,1.036024,0.560000,2.940000,-0.700000
27.979988,-0.023912,0.010248,0.821304,1.400000,-0.560000,0.000000
27.988075,-0.020008,0.049288,1.128744,0.560000,1.820000,-2.520000
27.996162,-0.051728,-0.012200,0.834480,0.560000,0.840000,-0.280000
28.004250,0.015128,0.042944,1.145336,1.260000,-3.780000,-1.540000
28.012337,-0.058072,-0.004392,0.833504,0.280000,5.880000,-0.420000
28.020424,-0.029280,0.019520,1.075064,1.960000,-3.500000,-0.980000
28.028512,-0.004392,0.012688,0.891088,-1.400000,5.460000,-0.280000
28.036599,-0.083936,0.016104,0.938424,0.980000,-3.220000,-0.140000
28.044686,0.028792,0.038064,1.130208,-0.560000,2.520000,-2.660000
28.052773,-0.050752,-0.006832,0.784216,0.700000,0.000000,0.140000
28.060861,0.025864,0.028304,1.124840,-0.420000,-0.420000,-1.960000
28.068948,-0.118096,-0.010736,0.879376,0.980000,4.060000,-0.140000
28.077035,0.029768,0.067344,1.026752,0.840000,-2.240000,-1.540000
28.085123,-0.067832,-0.061488,0.953552,2.380000,4.480000,-0.280000
28.093210,-0.022936,0.048312,1.031144,7.980000,-2.240000,-1.400000
28.101297,-0.022448,-0.027816,1.039928,6.720000,2.660000,-1.540000
28.109384,-0.078080,0.037088,0.831064,8.680000,-0.420000,0.420000
28.117472,-0.006344,-0.003416,1.236104,10.360000,-0.560000,-0.700000
28.125559,-0.018056,-0.023912,0.756888,16.379999,1.680000,0.280000
28.133646,-0.004392,0.067832,1.166320,14.980000,-2.660000,-1.820000
28.141734,-0.068320,-0.012200,0.827160,14.000000,3.780000,-0.280000
28.149821,-0.018544,0.030744,1.131184,15.680000,-2.240000,-2.100000
28.157908,-0.019520,-0.033672,0.895480,18.200001,1.260000,0.700000
28.165995,-0.083936,0.068808,1.024312,20.580000,-2.100000,-0.980000
28.174083,0.035136,-0.005368,1.004792,13.160000,2.100000,-0.420000
28.182170,-0.081008,-0.020008,0.860832,18.059999,1.400000,0.140000
28.190257,0.004392,0.074176,1.149240,16.379999,-1.400000,-1.820000
28.198345,-0.074176,-0.036600,0.785192,16.660000,4.340000,-0.980000
28.206432,-0.021472,0.083448,1.162904,15.400000,-4.060000,-0.840000
28.214519,0.010248,-0.057096,0.875960,14.000000,4.060000,-0.280000
28.222606,-0.066856,0.049776,1.057008,19.040001,-2.660000,-0.700000
28.230694,0.000000,0.020496,0.997472,12.600000,5.600000,-0.700000
28.238781,-0.050264,0.008784,0.825696,14.280000,-1.260000,-0.840000
28.246868,-0.020984,0.074664,1.121424,9.520000,1.680000,-2.100000
28.254956,-0.044408,-0.032208,0.816424,9.940000,0.280000,0.280000
28.263043,0.007320,0.094184,1.057984,4.200000,1.260000,-1.540000
28.271130,-0.065880,-0.022448,0.990152,1.260000,1.680000,-0.700000
28.279218,-0.023912,0.037088,0.881328,5.460000,-0.280000,-0.980000
28.287305,-0.068320,0.047336,1.139480,1.400000,1.680000,-1.400000
28.295392,0.000488,-0.014152,0.754448,-0.700000,2.800000,-1.260000
28.303479,-0.021472,0.032208,1.146800,-2.660000,-1.960000,-0.560000
28.311567,-0.080520,-0.003904,0.906704,-0.280000,4.200000,-0.280000
28.319654,0.014152,0.029280,1.085800,2.240000,-1.960000,-2.100000
28.327741,-0.076616,0.050264,0.939400,-0.140000,2.800000,-0.420000
28.335829,0.037576,-0.045384,0.921832,0.840000,-2.380000,-0.560000
28.343916,-0.088328,0.088328,1.138504,0.560000,3.220000,-2.100000
28.352003,-0.046848,-0.078080,0.855952,1.400000,0.700000,-0.280000
28.360090,-0.026352,0.120536,1.118008,0.700000,-2.100000,-0.700000
28.368178,-0.029768,-0.082472,0.837408,-0.560000,5.040000,-1.260000
28.376265,-0.057096,0.095160,1.143384,2.660000,-4.060000,-0.280000
28.384352,0.009272,-0.042944,0.941352,0.000000,3.640000,-1.120000
28.392440,-0.035136,0.061000,0.958432,2.240000,-3.080000,-0.560000
28.400527,-0.061976,0.006344,1.116544,0.560000,4.760000,-2.940000
28.408614,-0.051728,-0.011712,0.848144,1.400000,-0.420000,0.560000
28.416701,-0.023424,0.063440,1.133624,1.400000,0.980000,-2.660000
28.424789,-0.066856,-0.026840,0.895480,-0.560000,3.500000,-0.140000
28.432876,-0.019032,0.086376,1.055056,1.540000,-1.260000,-0.560000
28.440963,0.013664,-0.060512,1.061888,-0.560000,1.540000,-1.400000
28.449051,-0.081008,0.065880,0.878400,2.100000,2.240000,-1.960000
28.457138,-0.039528,-0.004392,1.147776,-0.140000,-0.700000,0.000000
28.465225,-0.048312,0.051728,0.846680,1.680000,3.360000,-0.420000
28.473312,0.034160,-0.008296,1.155584,0.560000,-2.940000,-1.820000
28.481400,-0.111264,0.043920,0.873520,-0.700000,6.440000,0.280000
28.489487,-0.020984,-0.016592,1.084336,1.260000,-4.060000,-1.120000
28.497574,-0.025864,0.061976,1.014064,-0.420000,2.660000,-1.260000
28.505662,-0.057584,-0.034648,0.825696,1.540000,1.960000,-0.980000
28.513749,-0.009760,0.075152,1.257576,-0.700000,-3.360000,0.420000
28.521836,-0.085400,-0.011224,0.823256,1.680000,5.320000,-2.100000
28.529923,0.025376,0.050752,1.128744,-1.120000,-3.360000,0.000000
28.538011,-0.094672,0.000000,0.875960,-0.700000,7.560000,-1.820000
28.546098,-0.006344,0.019520,1.058960,1.120000,-6.440000,-0.420000
28.554185,-0.027816,0.041968,1.039928,-1.400000,4.620000,-1.540000
28.562273,-0.041968,-0.027816,0.881328,2.660000,-0.560000,-0.560000
28.570360,-0.005368,0.073688,1.149728,-0.700000,0.560000,-1.680000
28.578447,-0.068320,-0.054656,0.813008,3.500000,3.220000,-0.140000
28.586534,-0.021472,0.103944,1.138016,-0.280000,-0.140000,-1.400000
28.594622,-0.100040,-0.019520,0.970632,0.840000,4.060000,-2.100000
28.602709,-0.015128,0.069296,0.950624,1.120000,-3.500000,-0.280000
28.610796,0.018056,-0.019032,1.079456,-1.680000,1.960000,-1.120000
28.618884,-0.107360,-0.014640,0.841800,3.360000,3.780000,-0.560000
28.626971,-0.006344,0.071248,1.196088,-1.260000,-3.780000,-0.560000
28.635058,-0.037576,0.009272,0.779824,1.680000,4.900000,-0.280000
28.643145,0.007320,0.011224,1.149240,-0.280000,-2.520000,-1.960000
28.651233,-0.096136,0.024888,0.941840,1.260000,4.200000,-1.400000
28.659320,-0.040504,0.004392,0.962336,1.960000,-2.800000,-0.420000
28.667407,-0.013176,0.069784,1.106296,-0.980000,1.820000,-0.140000
28.675495,-0.053680,-0.083448,0.799344,2.660000,2.520000,-0.840000
28.683582,0.000976,0.123464,1.228784,-1.260000,-4.340000,-0.420000
28.691669,-0.080032,-0.048800,0.837408,1.820000,6.300000,-1.960000
28.699756,0.030256,0.069296,1.144848,0.980000,-5.180000,-0.700000
28.707844,-0.089304,-0.005368,0.920368,0.700000,5.040000,-1.260000
28.715931,-0.030744,0.018056,1.016504,2.520000,-4.340000,0.700000
28.724018,-0.040992,0.093208,1.128256,0.000000,5.040000,-1.960000
28.732106,-0.018056,-0.109312,0.778360,2.380000,-2.800000,0.140000
28.740193,-0.029768,0.163480,1.236104,-1.120000,0.560000,-1.540000
28.748280,-0.076616,-0.105896,0.868640,1.820000,2.100000,-0.560000
28.756367,0.020984,0.106872,1.131184,0.280000,-1.680000,-0.980000
28.764455,-0.070272,-0.024400,0.971120,1.260000,1.120000,-0.560000
28.772542,-0.032208,0.066856,0.986248,1.680000,-2.380000,-0.420000
28.780629,0.002928,-0.006832,1.140456,0.280000,3.080000,-1.400000
28.788717,-0.072224,0.045872,0.812520,1.820000,-0.840000,0.560000
28.796804,0.020496,0.024888,1.169736,-0.700000,0.420000,-3.080000
28.804891,-0.128832,-0.009272,0.894504,-0.560000,3.080000,0.000000
28.812978,0.023912,0.068808,1.137040,0.140000,-1.540000,-1.540000
28.821066,-0.053680,-0.068808,0.946720,0.840000,1.540000,-0.140000
28.829153,-0.058560,0.121512,1.026752,1.540000,-0.560000,-0.980000
28.837240,-0.012200,-0.038552,1.108736,-0.280000,0.840000,-0.140000
28.845328,-0.031720,0.033184,0.875472,0.840000,1.540000,-0.840000
28.853415,-0.021472,0.041968,1.169248,0.700000,-2.240000,-1.400000
28.861502,-0.068320,0.012200,0.849608,0.420000,4.900000,0.140000
28.869589,0.009272,0.004392,1.190720,1.680000,-4.340000,-1.820000
28.877677,-0.074176,0.072224,0.926712,-1.680000,4.060000,-0.280000
28.885764,-0.002928,-0.042456,0.953552,1.820000,-1.260000,-0.700000
28.893851,-0.087840,0.110288,1.201456,-0.420000,1.540000,-0.560000
28.901939,-0.000488,-0.049776,0.829112,0.420000,1.820000,-0.980000
28.910026,-0.031232,0.049776,1.156560,0.980000,-3.500000,-0.420000
28.918113,-0.042456,0.039040,0.939888,-0.980000,5.740000,-0.140000
28.926201,-0.033184,-0.012688,1.027728,2.800000,-3.500000,-0.700000
28.934288,-0.027816,0.092232,1.102880,-1.680000,3.780000,-0.840000
28.942375,-0.045872,-0.058560,0.881816,2.520000,-1.960000,-0.980000
28.950462,-0.048312,0.118096,1.153632,-0.700000,1.680000,-0.560000
28.958550,0.001464,-0.073688,0.902312,1.960000,2.520000,-0.280000
28.966637,-0.073200,0.111264,1.141432,2.240000,-1.820000,-0.840000
28.974724,0.006832,-0.037576,0.979904,-0.700000,4.900000,-1.260000
28.982812,-0.076616,0.021472,0.939888,2.520000,-2.660000,0.000000
28.990899,0.016104,0.088816,1.230248,-0.420000,2.660000,-1.400000
28.998986,-0.093208,-0.050264,0.836920,1.680000,0.560000,-0.280000
29.007073,0.018056,0.104920,1.146800,-0.140000,0.000000,-1.400000
29.015161,-0.068808,-0.039040,0.944768,0.420000,3.360000,-0.700000
29.023248,-0.040504,0.069296,1.094584,2.100000,-3.500000,-0.980000
29.031335,-0.001464,-0.001464,1.030656,-1.540000,6.160000,-2.100000
29.039423,-0.089304,-0.011224,0.874496,2.100000,-2.520000,0.140000
29.047510,0.013176,0.118096,1.318088,-0.420000,2.380000,-1.260000
29.055597,-0.079056,-0.076128,0.822280,1.400000,1.120000,-0.560000
29.063684,0.049776,0.110288,1.142896,0.140000,4.480000,-1.820000
29.071772,-0.062464,-0.046848,0.996984,-0.560000,7.700000,-0.560000
29.079859,-0.016592,0.074176,1.006744,1.960000,10.080000,-1.540000
29.087946,-0.005368,-0.006344,1.173152,-0.980000,12.600000,-2.380000
29.096034,-0.100528,0.026840,0.849120,2.100000,13.020000,1.120000
29.104121,0.077592,0.030256,1.154608,0.140000,13.860000,-1.120000
29.112208,-0.085400,0.019520,0.958432,0.140000,20.580000,-1.120000
29.120295,-0.041968,0.029768,1.033096,1.120000,13.860000,-1.260000
29.128383,-0.044896,0.028792,1.156560,-0.560000,13.020000,-1.540000
29.136470,0.000000,0.005368,0.858880,1.820000,18.340000,-2.100000
29.144557,-0.067344,0.039528,1.150704,0.420000,13.720000,-1.120000
29.152645,-0.070272,0.029280,0.923784,-0.840000,17.500000,0.420000
29.160732,0.023424,-0.002928,1.077992,2.100000,13.160000,-1.540000
29.168819,-0.053192,0.073688,1.066768,-0.560000,17.920000,-2.240000
29.176906,-0.075152,-0.042456,0.892552,1.680000,16.660000,-1.400000
29.184994,-0.042456,0.059048,1.125328,-0.980000,7.000000,-0.420000
29.193081,-0.037576,0.015128,1.006256,0.980000,13.020000,-1.820000
29.201168,-0.042944,0.010248,1.054568,1.820000,-0.280000,-0.700000
29.209256,-0.083936,0.070760,1.021872,0.140000,7.980000,-1.680000
29.217343,-0.053192,-0.055144,0.919392,0.420000,-9.380000,-0.700000
29.225430,-0.033672,0.129320,1.205848,-0.700000,-11.200000,-1.120000
29.233517,0.004880,-0.061000,0.853024,1.820000,-0.560000,-1.820000
29.241605,-0.044896,0.070760,1.112640,3.640000,-0.840000,0.000000
29.249692,-0.010736,0.016104,1.019920,-0.280000,3.640000,-0.980000
29.257779,-0.029280,-0.035624,0.883280,1.260000,-3.640000,0.840000
29.265867,-0.026840,0.120048,1.198528,1.260000,4.060000,-2.520000
29.273954,-0.045872,-0.074664,0.932568,0.420000,3.640000,-0.980000
29.282041,-0.096624,0.125904,1.037488,2.520000,1.400000,-1.260000
29.290129,0.065392,-0.052216,1.118008,-3.080000,-1.680000,-0.840000
29.298216,-0.129808,0.060024,0.943304,4.060000,7.700000,-0.980000
29.306303,0.036600,0.002928,1.130696,0.000000,-3.360000,-0.840000
29.314390,-0.089792,0.053680,0.908656,0.000000,5.460000,0.000000
29.322478,-0.021472,-0.022448,1.091656,2.100000,-0.700000,-3.080000
29.330565,-0.033184,0.076616,1.147776,0.140000,1.960000,-0.700000
29.338652,-0.052216,-0.006344,0.850584,1.400000,2.800000,-1.820000
29.346740,0.042944,0.006832,1.207312,1.120000,-3.920000,-0.840000
29.354827,-0.170800,0.083936,0.972096,1.400000,8.820000,-1.540000
29.362914,0.061976,-0.053192,1.016016,1.960000,-5.600000,0.000000
29.371001,-0.069296,0.145912,1.151680,-0.280000,6.580000,-1.820000
29.379089,-0.035624,-0.113216,0.895480,1.960000,-2.520000,-2.100000
29.387176,-0.015616,0.159576,1.117032,0.280000,0.840000,-0.560000
29.395263,-0.027816,-0.104432,1.005768,-0.280000,1.960000,-2.660000
29.403351,-0.086864,0.110288,1.062864,2.380000,-0.560000,-0.280000
29.411438,0.006344,-0.015128,1.080920,-0.280000,1.400000,-2.100000
29.419525,-0.048800,0.013664,0.922320,1.680000,-0.700000,0.420000
29.427612,-0.039528,0.076616,1.180960,1.260000,2.380000,-4.200000
29.435700,-0.056608,-0.062464,0.893040,0.280000,0.420000,-0.420000
29.443787,-0.048800,0.115168,1.126304,2.660000,-1.820000,-1.540000
29.451874,0.015128,-0.057584,1.076040,0.700000,1.680000,-2.380000
29.459962,-0.097600,0.082960,0.885232,2.940000,1.960000,-0.280000
29.468049,0.027328,-0.007808,1.220976,-0.280000,-4.060000,-1.960000
29.476136,-0.095648,0.055144,0.851072,0.840000,4.620000,-0.980000
29.484223,-0.008784,-0.028304,1.175104,2.800000,-3.080000,-1.960000
29.492311,-0.041480,0.109312,0.981368,-1.540000,2.380000,0.000000
29.500398,-0.031720,-0.077104,0.945256,3.920000,-1.680000,-2.660000
29.508485,-0.061976,0.140544,1.170712,-1.120000,-0.140000,-0.560000
29.516573,-0.062464,-0.095160,0.881816,2.100000,2.660000,-1.540000
29.524660,0.016104,0.130296,1.149728,0.700000,-4.340000,-0.560000
29.532747,-0.076616,-0.044896,0.952088,0.700000,4.620000,-2.940000
29.540834,-0.039040,0.059048,1.004304,1.400000,-3.780000,0.140000
29.548922,-0.013664,0.024888,1.136552,0.280000,1.680000,-2.660000
29.557009,-0.073200,-0.001952,0.901336,2.380000,1.400000,-0.140000
29.565096,0.019032,0.059048,1.082872,0.420000,-1.960000,-2.100000
29.573184,-0.083448,-0.022448,1.007232,-0.140000,3.500000,-0.420000
29.581271,-0.038552,0.081496,0.977952,2.240000,-1.120000,-2.660000
29.589358,-0.030744,-0.031232,1.139480,-0.700000,-0.840000,-0.280000
29.597445,-0.032208,0.081984,0.875472,1.400000,-1.960000,-1.680000
29.605533,-0.032696,-0.028304,1.138504,-0.140000,-2.800000,-1.540000
29.613620,-0.103944,0.074176,0.922808,0.980000,-2.240000,-0.980000
29.621707,0.019520,-0.019032,1.082384,0.700000,-10.360000,-0.560000
29.629795,-0.078568,0.097600,1.033584,-0.980000,-0.420000,-1.680000
29.637882,-0.038552,-0.069296,0.859368,0.980000,-10.220000,-1.260000
29.645969,-0.109800,0.127856,1.174616,-1.260000,-10.360000,-1.120000
29.654056,0.038552,-0.083936,0.842288,0.420000,-12.180000,-0.560000
29.662144,-0.061488,0.118096,1.131184,1.680000,-9.380000,-1.120000
29.670231,-0.077592,-0.044896,0.922808,-0.700000,-9.800000,-0.700000
29.678318,-0.033672,0.089792,0.950624,1.120000,-19.040001,0.560000
29.686406,-0.039040,0.000976,1.151680,-1.260000,-15.260000,-1.680000
29.694493,-0.057584,0.033184,0.772016,1.820000,-15.820000,-1.400000
29.702580,-0.058560,0.037088,1.154120,-0.840000,-22.120001,-1.400000
29.710667,-0.012688,0.002440,0.887672,-0.140000,-16.799999,0.000000
29.718755,-0.050264,0.051240,1.094584,1.960000,-17.500000,-2.800000
29.726842,-0.012200,0.018056,0.988688,-1.400000,-15.400000,-0.560000
29.734929,-0.097600,0.024888,0.913048,1.960000,-19.460001,-1.120000
29.743017,-0.002928,0.068808,1.168760,-1.960000,-16.520000,-1.680000
29.751104,-0.061000,-0.039528,0.795928,2.240000,-14.280000,-1.540000
29.759191,-0.000976,0.074176,1.185840,-0.560000,-15.960000,-1.260000
29.767278,-0.071736,0.001952,0.879864,1.260000,-7.700000,-1.680000
29.775366,-0.011224,0.039528,1.059936,0.840000,-12.740000,-0.140000
29.783453,-0.012200,0.040992,1.091656,0.000000,-5.460000,-1.820000
29.791540,-0.038064,0.001464,0.840336,0.700000,1.260000,-0.280000
29.799628,-0.003416,0.068808,1.188280,-0.280000,2.520000,-1.680000
29.807715,-0.091256,0.001464,0.834480,-0.560000,8.680000,-0.700000
29.815802,-0.034648,0.036600,1.099952,1.260000,-2.240000,-1.120000
29.823889,-0.028792,0.007320,0.925248,-1.960000,7.140000,-1.260000
29.831977,-0.084424,0.057096,0.989176,0.840000,-0.420000,-1.680000
29.840064,-0.028792,0.022936,1.064816,-0.700000,2.800000,-2.520000
29.848151,-0.048312,0.015616,0.830576,0.420000,0.420000,0.140000
29.856239,-0.024888,0.027328,1.145824,0.560000,0.560000,-3.500000
29.864326,-0.121024,0.047336,0.931104,0.280000,2.940000,0.840000
29.872413,0.055632,0.008296,0.982344,2.940000,-2.800000,-1.960000
29.880500,-0.105408,0.057096,1.064328,-0.420000,5.320000,-0.560000
29.888588,-0.053680,0.005856,0.850584,1.540000,-0.980000,-2.240000
29.896675,-0.015128,0.053192,1.198528,0.280000,0.700000,-0.560000
29.904762,-0.079544,-0.017568,0.806664,2.660000,1.820000,-1.680000
29.912850,-0.011224,0.077592,1.166808,0.420000,-1.120000,-0.700000
29.920937,-0.115656,0.006344,0.839360,1.540000,3.780000,-0.280000
29.929024,0.078080,0.037576,1.131672,1.820000,-4.760000,-1.260000
29.937111,-0.142008,0.019032,0.886208,0.280000,7.280000,-1.680000
29.945199,-0.024888,0.040504,1.050176,2.100000,-3.780000,-1.260000
29.953286,-0.013176,0.038064,1.002840,-0.560000,4.900000,-2.100000
29.961373,-0.084424,-0.006832,0.865224,3.220000,-2.660000,-0.700000
29.969461,-0.028304,0.073200,1.188280,-0.840000,1.400000,-0.700000
29.977548,-0.065880,0.000488,0.772504,2.240000,3.780000,-0.700000
29.985635,-0.025376,0.071736,1.148752,-0.280000,-2.520000,-1.540000
29.993722,-0.061976,0.004880,0.823256,1.260000,4.480000,-1.680000
30.001810,-0.043432,0.020496,0.996008,0.140000,-1.680000,-0.560000
30.009897,-0.069296,0.067344,1.086776,-0.280000,4.760000,-0.840000
30.017984,-0.039528,-0.023912,0.784704,2.520000,-1.400000,-0.700000
30.026072,-0.007320,0.099064,1.057984,-1.400000,-0.140000,-1.820000
30.034159,-0.101504,-0.018056,0.831064,1.400000,3.360000,-1.680000
30.042246,0.019520,0.015616,0.962824,0.280000,-1.540000,-1.260000
30.050333,-0.051240,0.061488,0.957944,0.000000,2.800000,-1.820000
30.058421,-0.060024,-0.008784,0.762744,1.680000,0.560000,-0.840000
30.066508,-0.005368,0.086864,1.063352,0.000000,1.120000,-1.120000
30.074595,-0.067344,-0.053680,0.784216,1.120000,3.640000,-0.700000
30.082683,-0.015128,0.037088,0.949160,0.980000,-2.520000,-1.400000
30.090770,-0.099064,0.092232,1.015528,-0.840000,2.940000,-0.980000
30.098857,-0.003904,-0.054656,0.755424,1.540000,0.980000,-0.140000
30.106944,0.002440,0.069296,1.022848,0.560000,-0.980000,-0.840000
30.115032,-0.097600,0.037088,0.811544,-1.260000,3.640000,-0.420000
30.123119,-0.003904,0.012688,0.888160,1.820000,-2.800000,-0.420000
30.131206,-0.091256,0.091256,1.077016,-0.140000,2.240000,-1.960000
30.139294,-0.040992,-0.052216,0.755424,-0.560000,0.980000,-1.120000
30.147381,0.014152,0.066856,1.010648,1.120000,-2.100000,-0.420000
30.155468,-0.095160,0.075152,0.920368,0.140000,4.200000,-1.680000
30.163555,-0.021472,-0.015616,0.820328,1.540000,-1.120000,-0.140000
30.171643,-0.021472,0.041480,1.042856,0.280000,2.380000,-2.100000
30.179730,-0.101504,0.020496,0.862296,-0.280000,3.080000,-1.400000
30.187817,-0.021960,0.047824,1.010160,2.660000,-3.220000,0.000000
30.195905,0.015616,0.023424,0.982344,0.840000,1.820000,-2.100000
30.203992,-0.086376,0.005368,0.898896,1.820000,0.700000,-0.140000
30.212079,-0.026840,0.059048,1.150216,1.680000,-0.140000,-1.680000
30.220166,-0.073200,-0.004392,0.832528,0.840000,1.960000,0.840000
30.228254,-0.021472,0.067832,1.115080,1.820000,-2.520000,-1.960000
30.236341,-0.035136,-0.011224,0.936472,0.560000,3.360000,-0.980000
30.244428,-0.069296,0.061488,0.944768,2.380000,-0.980000,-1.120000
30.252516,-0.009760,0.027816,1.167784,0.700000,-0.280000,-1.820000
30.260603,-0.114680,0.034648,0.787144,1.260000,1.540000,-0.980000
30.268690,0.040992,0.053192,1.164368,0.280000,-2.800000,-1.680000
30.276777,-0.105896,-0.004392,0.877424,0.420000,4.900000,-0.280000
30.284865,0.042944,0.062464,1.046760,1.820000,-3.500000,-2.800000
30.292952,-0.111264,-0.023424,1.005768,0.000000,3.780000,-0.420000
30.301039,-0.048800,0.098576,0.951600,2.380000,-0.980000,-1.120000
30.309127,0.000488,-0.013176,1.077504,-1.680000,0.840000,-1.400000
30.317214,-0.116144,0.040016,0.824232,2.100000,1.120000,-0.560000
30.325301,0.057096,0.017080,1.115568,-1.120000,-1.960000,-0.280000
30.333388,-0.141520,0.041480,0.886696,0.280000,4.200000,-0.420000
30.341476,0.018056,0.030744,1.105808,2.100000,-3.920000,-1.400000
30.349563,-0.028304,0.035624,0.927688,-1.680000,4.200000,-1.680000
30.357650,-0.071248,0.000488,0.956968,3.220000,0.700000,-1.680000
30.365738,-0.026352,0.051728,1.082872,-1.540000,2.380000,-1.260000
30.373825,-0.052704,0.017080,0.886696,2.660000,4.480000,-0.420000
30.381912,-0.003904,0.061000,1.070184,0.280000,6.580000,-1.540000
30.389999,-0.031720,0.011712,0.942328,0.700000,10.780000,-1.680000
30.398087,-0.079544,0.009272,0.955992,2.520000,6.720000,-0.140000
30.406174,0.020008,0.061488,1.155096,-0.140000,9.100000,-1.820000
30.414261,-0.095648,-0.018544,0.721752,2.240000,15.540000,-0.560000
30.422349,-0.005368,0.105896,1.149728,-0.560000,9.800000,-0.420000
30.430436,-0.043432,-0.073200,0.861320,0.840000,12.880000,-0.560000
30.438523,-0.049776,0.111264,1.020896,0.980000,7.700000,-1.120000
30.446610,-0.039528,-0.007320,1.093120,-1.120000,13.860000,-1.960000
30.454698,-0.154696,0.052704,0.833504,1.540000,6.580000,-0.140000
30.462785,0.025376,0.060024,1.088728,-0.700000,0.140000,-1.120000
30.470872,-0.068808,-0.055144,0.785680,0.560000,2.940000,0.280000
30.478960,0.003416,0.093208,1.231712,0.980000,-1.120000,-1.540000
30.487047,-0.089792,-0.011224,0.896944,-1.820000,3.920000,-1.120000
30.495134,-0.015128,0.048312,1.131184,1.820000,-4.620000,-2.380000
30.503221,-0.040992,0.033672,0.974048,-2.100000,6.580000,-1.400000
30.511309,-0.077592,0.011712,1.068232,2.940000,-4.620000,-0.700000
30.519396,0.010248,0.081496,1.084336,-1.260000,3.640000,-1.400000
30.527483,-0.083936,-0.061000,0.933056,3.780000,-3.780000,0.560000
30.535571,-0.014152,0.136152,1.211704,-0.980000,6.020000,-1.680000
30.543658,-0.089304,-0.067832,0.826672,1.960000,-2.100000,-0.420000
30.551745,-0.022448,0.108824,1.300520,0.420000,0.840000,-1.400000
30.559832,-0.080032,-0.020984,0.833504,0.980000,0.840000,0.280000
30.567920,0.009272,0.051728,1.247816,1.820000,0.700000,-1.400000
30.576007,-0.125904,0.012200,0.888648,0.420000,0.140000,0.840000
30.584094,0.105896,0.034648,1.209264,1.540000,-1.960000,-2.100000
30.592182,-0.172264,0.032696,0.956968,0.000000,7.140000,-1.820000
30.600269,0.029768,0.024400,1.141432,2.100000,-5.040000,-1.400000
30.608356,-0.123952,0.038064,0.945256,0.000000,4.900000,0.000000
30.616443,0.048800,0.002440,1.212192,2.800000,-4.760000,-0.700000
30.624531,-0.153720,0.089792,0.983808,1.120000,9.100000,-0.840000
30.632618,0.073200,-0.074664,1.070184,1.960000,-8.680000,0.140000
30.640705,-0.156160,0.192272,1.162416,-0.700000,8.820000,-2.100000
30.648793,0.064904,-0.160064,0.882304,1.120000,-5.320000,-0.700000
30.656880,-0.160064,0.221552,1.299544,0.420000,7.000000,-0.980000
30.664967,0.049288,-0.144448,0.785192,0.700000,-6.020000,-1.120000
30.673054,-0.152256,0.193248,1.350296,1.680000,6.860000,-1.680000
30.681142,0.022448,-0.105896,0.787144,0.280000,-3.500000,0.560000
30.689229,-0.070760,0.165432,1.304424,0.280000,2.240000,-0.980000
30.697316,-0.020496,-0.122976,0.814960,0.000000,2.380000,-1.120000
30.705404,-0.082960,0.174704,1.281976,0.560000,0.700000,-0.560000
30.713491,0.003416,-0.099064,0.858880,1.120000,5.740000,-1.260000
30.721578,-0.033672,0.151768,1.282464,1.120000,2.940000,-0.840000
