Time [s],lsm6dsv16x_acc_x [g],lsm6dsv16x_acc_y [g],lsm6dsv16x_acc_z [g],lsm6dsv16x_gyro_x [dps],lsm6dsv16x_gyro_y [dps],lsm6dsv16x_gyro_z [dps]
39.997698,-0.032208,0.050264,1.115568,10.080000,0.420000,-2.380000
40.005785,-0.101016,-0.015128,0.901824,9.660000,2.520000,-0.140000
40.013872,-0.050752,0.039528,1.008208,10.920000,-0.420000,-1.120000
40.021960,0.002440,0.018056,0.997960,5.880000,1.820000,-1.540000
40.030047,-0.072224,-0.057096,0.835456,7.420000,1.260000,-1.120000
40.038134,-0.005368,0.052704,1.132160,5.880000,-1.400000,-0.560000
40.046222,-0.109800,0.006344,0.869616,2.100000,4.060000,-0.280000
40.054309,-0.037088,0.026840,0.964776,0.140000,-2.660000,-1.120000
40.062396,-0.062952,0.058560,1.056032,-7.280000,2.660000,-2.100000
40.070483,-0.019520,-0.109312,0.887672,-2.100000,0.840000,0.000000
40.078571,-0.017080,0.049288,1.102880,1.120000,-0.560000,-1.400000
40.086658,-0.079544,-0.020496,0.973072,0.000000,2.660000,-1.120000
40.094745,-0.060512,0.021472,0.884744,0.700000,-0.700000,-0.560000
40.102833,-0.019032,0.020984,1.191696,-0.980000,0.840000,-0.560000
40.110920,-0.035624,-0.070272,0.775432,2.380000,3.080000,-0.700000
40.119007,-0.073200,0.074176,1.178032,2.660000,-2.240000,-1.400000
40.127094,-0.044408,-0.007320,0.877912,-1.820000,3.920000,-1.120000
40.135182,-0.084912,0.005856,0.967704,2.520000,-1.680000,-0.700000
40.143269,0.013664,0.015616,1.114592,-1.540000,2.100000,-0.980000
40.151356,-0.089304,-0.047336,0.877424,3.500000,0.700000,-1.540000
40.159444,-0.049776,0.040016,1.110688,0.140000,-0.280000,-0.700000
40.167531,-0.009272,0.013664,0.941840,-0.140000,0.980000,-0.280000
40.175618,-0.059536,-0.050264,0.926712,2.940000,1.540000,-1.820000
40.183706,-0.078080,0.085400,1.159488,0.140000,-1.820000,-0.980000
40.191793,-0.043920,-0.084424,0.852536,1.540000,2.520000,-0.840000
40.199880,-0.021472,0.113216,1.133624,1.120000,-1.680000,-1.960000
40.207967,-0.013664,-0.127368,0.908168,0.000000,5.740000,-1.540000
40.216055,-0.156160,0.100040,1.025288,2.800000,-1.960000,0.280000
40.224142,0.041968,-0.033184,1.042368,-1.820000,1.260000,-1.260000
40.232229,-0.101504,0.011712,0.935008,1.960000,1.120000,-0.420000
40.240317,0.037088,-0.031720,1.031144,-0.140000,-0.140000,-2.240000
40.248404,-0.132248,0.026352,1.042856,0.140000,1.400000,0.280000
40.256491,-0.017080,-0.004392,0.865224,1.960000,-0.420000,-0.840000
40.264579,-0.034160,0.054168,1.150704,-0.420000,-1.120000,-0.700000
40.272666,-0.087352,-0.066368,0.836432,1.120000,1.820000,-1.540000
40.280753,-0.039040,0.083448,1.169248,-1.260000,-10.360000,0.560000
40.288840,-0.100528,-0.042944,0.896456,0.560000,-4.340000,-1.120000
40.296928,-0.008784,0.033184,0.964288,0.980000,-13.300000,-0.280000
40.305015,-0.036600,-0.031232,1.039928,-0.840000,-9.940000,-2.380000
40.313102,-0.092232,-0.001464,0.976488,1.260000,-10.500000,0.560000
40.321190,0.025376,0.047824,1.039928,0.000000,-10.500000,-2.940000
40.329277,-0.082960,-0.073688,0.967704,0.280000,-6.580000,0.140000
40.337364,-0.060024,0.070272,0.951600,1.680000,-12.600000,-0.700000
40.345452,-0.008296,-0.012688,1.198528,0.000000,-7.980000,-1.680000
40.353539,-0.080032,0.007808,0.770064,2.520000,-5.180000,-1.120000
40.361626,0.054168,-0.030744,1.189256,0.280000,-9.800000,-0.140000
40.369713,-0.128344,0.073688,0.950624,1.540000,1.540000,-2.100000
40.377801,-0.004392,-0.074664,0.961360,1.960000,-6.160000,-0.700000
40.385888,-0.089304,0.074664,1.126792,1.120000,0.840000,-1.260000
40.393975,-0.019032,-0.081496,0.874008,0.980000,-3.220000,0.420000
40.402063,-0.048800,0.115168,1.150216,2.380000,-3.360000,-1.960000
40.410150,-0.018544,-0.089792,0.838384,-0.140000,0.420000,-0.980000
40.418237,-0.086376,0.058560,1.103368,2.520000,-5.320000,-1.540000
40.426324,-0.044408,-0.029768,1.058472,-0.420000,-1.680000,-0.980000
40.434412,-0.062464,0.029280,0.899384,1.820000,-3.640000,-0.280000
40.442499,0.025864,-0.049288,1.075552,1.680000,-2.100000,-1.960000
40.450586,-0.135176,0.065392,0.965752,-0.280000,-0.420000,-0.140000
40.458674,0.021960,-0.043920,1.051640,1.820000,-6.580000,-1.120000
40.466761,-0.066856,0.096624,1.093120,-1.400000,1.120000,-1.960000
40.474848,-0.015128,-0.136152,0.819352,3.220000,-2.800000,-1.260000
40.482936,-0.082472,0.150304,1.237080,-0.140000,-1.960000,-1.540000
40.491023,-0.022936,-0.122488,0.851072,0.000000,0.000000,-1.540000
40.499110,-0.065880,0.091256,1.167784,2.380000,-3.080000,-1.820000
40.507197,-0.023424,-0.077592,0.958432,-1.540000,1.960000,-0.420000
40.515285,-0.104432,0.085400,1.046760,2.660000,-3.360000,-0.420000
40.523372,0.029280,-0.049288,1.100928,-2.380000,0.420000,-2.380000
40.531459,-0.094184,0.015616,0.915000,2.100000,-3.640000,-0.280000
40.539547,0.003416,-0.005368,1.153632,-0.700000,0.840000,-3.080000
40.547634,-0.122000,0.058560,0.975512,0.420000,-0.560000,0.140000
40.555721,0.056608,-0.074176,1.089216,3.080000,0.700000,-2.240000
40.563809,-0.108336,0.080520,1.050176,-0.700000,4.900000,-0.280000
40.571896,-0.056608,-0.047336,0.955016,1.960000,2.380000,-1.820000
40.579983,0.000488,0.050264,1.179984,-1.120000,-0.280000,-1.680000
40.588070,-0.083448,-0.057584,0.894992,2.660000,1.680000,-1.540000
40.596158,-0.026840,0.083936,1.235616,1.260000,0.560000,-1.820000
40.604245,-0.041480,-0.057096,0.855464,1.120000,4.900000,-1.260000
40.612332,-0.010736,0.011224,1.199016,1.540000,-2.520000,-2.520000
40.620420,-0.122976,0.042944,0.924760,0.000000,5.320000,0.000000
40.628507,0.021472,-0.023912,1.173640,2.800000,-4.620000,-2.660000
40.636594,-0.071736,0.045384,0.915000,-1.820000,7.840000,-0.700000
40.644682,-0.046848,-0.090768,1.111664,2.800000,-5.460000,-1.400000
40.652769,-0.081984,0.136152,1.075064,-0.700000,5.740000,-0.140000
40.660856,0.009272,-0.137128,0.927688,1.820000,-2.940000,-1.540000
40.668943,-0.068808,0.137616,1.191208,-0.420000,3.080000,-1.680000
40.677031,-0.060024,-0.146400,0.898896,1.540000,1.960000,-0.700000
40.685118,-0.038552,0.156160,1.199504,0.980000,-1.680000,0.280000
40.693205,-0.042456,-0.114192,0.847168,-0.840000,5.460000,-0.840000
40.701293,0.005368,0.080032,1.229272,0.700000,-4.760000,-1.680000
40.709380,-0.116632,-0.039528,0.954040,0.420000,6.440000,-2.520000
40.717467,-0.013176,0.036112,1.125328,1.120000,-6.860000,-0.560000
40.725554,-0.012200,-0.030744,0.983320,0.560000,9.380000,-1.820000
40.733642,-0.128832,-0.007320,1.010648,1.680000,-5.180000,-0.140000
40.741729,0.011712,0.032696,1.140456,-0.980000,5.040000,-0.840000
40.749816,-0.083936,0.014640,0.914512,1.960000,-2.660000,-0.700000
40.757904,0.042456,0.023912,1.139968,-0.700000,2.240000,-2.100000
40.765991,-0.099552,-0.057584,0.911584,1.540000,0.980000,-1.680000
40.774078,-0.024888,0.036600,1.147288,-0.840000,-0.700000,-0.840000
40.782166,-0.105408,-0.010736,0.962336,1.960000,4.200000,-0.840000
40.790253,0.020496,0.036112,1.076040,0.140000,-2.240000,-1.260000
40.798340,-0.038552,-0.041480,0.934032,-0.280000,3.500000,-1.960000
40.806427,-0.088328,0.030256,1.123376,1.820000,-3.500000,-0.560000
40.814515,-0.029280,0.015616,1.007720,-1.260000,2.100000,-1.400000
40.822602,-0.058072,0.012688,1.038464,2.380000,-5.880000,-0.280000
40.830689,-0.010248,0.008784,1.051640,-1.120000,2.800000,-2.520000
40.838777,-0.042944,-0.063928,0.919880,1.680000,-5.880000,0.420000
40.846864,-0.061488,0.086864,1.286856,0.420000,0.980000,-2.940000
40.854951,-0.027816,-0.058560,0.795440,1.120000,-2.940000,0.280000
40.863039,-0.049288,0.060024,1.199992,0.560000,-0.280000,-1.820000
40.871126,-0.027816,-0.054168,0.805200,0.560000,-0.560000,0.840000
40.879213,0.000488,0.034160,1.224880,0.700000,-5.180000,-3.360000
40.887300,-0.108336,-0.011224,0.871568,0.000000,0.280000,-1.120000
40.895388,-0.021960,0.044896,1.205360,0.560000,-6.300000,-1.540000
40.903475,-0.050264,-0.020008,0.866200,-0.420000,1.960000,0.280000
40.911562,-0.021960,0.002928,1.105808,2.520000,-6.020000,-1.260000
40.919650,-0.052704,0.014152,0.965752,-0.700000,1.540000,-1.260000
40.927737,-0.057584,-0.012200,1.018944,2.240000,-4.760000,-0.980000
40.935824,-0.028304,0.054656,1.117520,-1.680000,-2.100000,-1.680000
40.943911,-0.018056,-0.080520,0.842776,2.380000,-3.500000,-1.260000
40.951999,-0.054168,0.096624,1.248304,-0.980000,-2.800000,-1.120000
40.960086,-0.023912,-0.103456,0.795928,0.980000,-0.560000,0.000000
40.968173,-0.076616,0.127856,1.261968,0.700000,-4.340000,-1.820000
40.976261,0.008296,-0.098088,0.775920,0.420000,0.420000,-1.260000
40.984348,-0.080032,0.088328,1.187304,0.000000,-4.620000,-0.980000
40.992435,-0.033184,-0.062464,0.842288,-1.260000,1.260000,0.560000
41.000523,-0.039040,0.062952,1.199504,1.680000,-8.260000,-1.540000
41.008610,0.000488,-0.014152,0.901336,-1.960000,6.580000,-1.120000
41.016697,-0.065392,-0.007808,1.034560,1.960000,-3.920000,-1.120000
41.024784,0.002440,-0.004880,1.069696,-1.400000,4.200000,-0.560000
41.032872,-0.098576,0.001464,0.923296,3.080000,-4.480000,0.000000
41.040959,-0.013176,0.044896,1.115568,-0.560000,5.040000,-1.680000
41.049046,-0.085400,-0.046360,0.806664,0.980000,0.420000,0.980000
41.057134,0.055144,0.058560,1.192184,-0.140000,-1.540000,-1.960000
41.065221,-0.151768,-0.016592,0.898408,0.840000,2.100000,-0.980000
41.073308,0.062952,0.033672,1.093120,-0.280000,-3.220000,-1.260000
41.081396,-0.109800,-0.034648,0.979416,0.560000,5.460000,-0.700000
41.089483,-0.009760,0.024888,0.983808,1.120000,-1.260000,-1.120000
41.097570,-0.074664,0.011712,1.106784,-0.280000,3.360000,-0.840000
41.105657,-0.028304,-0.002440,0.805688,-0.280000,-0.140000,0.140000
41.113745,-0.021960,0.007320,1.235616,-0.420000,1.120000,-1.540000
41.121832,-0.046360,-0.028304,0.767624,1.820000,2.380000,-0.980000
41.129919,-0.064416,0.069296,1.238056,-0.280000,-1.960000,-1.120000
41.138007,-0.049776,-0.053680,0.767624,0.000000,4.900000,0.140000
41.146094,-0.019032,0.050264,1.198528,-0.280000,-3.920000,-0.980000
41.154181,-0.042944,-0.026840,0.905240,0.560000,5.320000,-1.120000
41.162269,-0.053192,0.029768,1.080920,2.660000,-4.060000,-0.420000
41.170356,-0.000488,-0.012200,0.996496,-1.400000,6.020000,-0.280000
41.178443,-0.110776,0.000000,0.922808,2.800000,-1.680000,0.140000
41.186530,0.038064,0.038064,1.180960,-1.680000,0.980000,-1.400000
41.194618,-0.076128,-0.058560,0.796904,2.240000,0.420000,-0.700000
41.202705,0.006344,0.054168,1.199016,-0.280000,0.140000,-1.820000
41.210792,-0.134688,-0.028304,0.862296,0.840000,3.500000,0.000000
41.218880,0.043920,0.039040,1.132648,1.820000,-2.520000,-1.960000
41.226967,-0.065880,-0.026840,0.895968,-0.700000,3.780000,-0.560000
41.235054,-0.063440,0.011712,1.055056,2.660000,-0.560000,-0.280000
41.243141,-0.019032,0.036112,1.050176,-1.540000,0.280000,-0.980000
41.251229,-0.059048,-0.058072,0.834480,3.780000,-5.320000,-1.400000
41.259316,-0.033672,0.061488,1.226344,-0.980000,-5.040000,-0.980000
41.267403,-0.091744,-0.060024,0.777872,2.940000,-4.340000,-0.280000
41.275491,0.001464,0.067832,1.205848,0.280000,-11.620000,-0.420000
41.283578,-0.035624,-0.027816,0.819840,0.700000,-3.920000,-1.540000
41.291665,-0.081496,0.002440,1.095560,1.960000,-7.840000,-0.840000
41.299752,-0.005368,0.040504,1.029192,-1.400000,-9.660000,-0.280000
41.307840,-0.038552,-0.065880,0.855952,2.240000,-8.540000,-0.700000
41.315927,-0.045872,0.096624,1.192184,-0.280000,-8.680000,-1.540000
41.324014,-0.050752,-0.095160,0.802760,2.100000,-4.620000,-0.700000
41.332102,-0.061976,0.125416,1.180960,0.560000,-14.000000,-0.560000
41.340189,0.014640,-0.122976,0.861808,-0.980000,-4.760000,-0.700000
41.348276,-0.129808,0.080520,1.101904,3.500000,-10.920000,0.840000
41.356364,0.041968,-0.025864,1.017968,-0.980000,-7.140000,-0.840000
41.364451,-0.021960,0.000000,0.894992,2.940000,-8.120000,0.700000
41.372538,0.024400,0.014640,1.125328,-0.840000,4.340000,-2.380000
41.380625,-0.116632,0.006832,0.942328,0.840000,5.180000,-0.980000
41.388713,-0.040504,0.000000,0.988200,1.260000,-2.380000,0.560000
41.396800,0.034160,0.005856,1.120448,0.420000,0.140000,0.280000
41.404887,-0.099552,0.007808,0.870592,3.500000,6.440000,-1.680000
41.412975,0.013176,0.009760,1.098976,-0.980000,-1.960000,-0.420000
41.421062,-0.113216,-0.012688,0.904752,2.100000,3.360000,-0.560000
41.429149,-0.007320,0.022936,1.135088,1.260000,-5.880000,-0.280000
41.437236,-0.001464,0.007320,0.944768,0.560000,6.300000,-2.380000
41.445324,-0.105896,-0.042456,0.964776,0.420000,-4.200000,0.560000
41.453411,-0.002928,0.100040,1.164368,0.420000,-0.420000,-1.680000
41.461498,-0.029768,-0.112728,0.855952,1.260000,2.800000,-0.840000
41.469586,-0.060512,0.103456,1.179496,2.100000,-1.960000,-1.260000
41.477673,-0.017080,-0.062464,0.866688,-0.700000,3.780000,-0.420000
41.485760,-0.053192,0.061000,1.131672,2.800000,-5.460000,-0.280000
41.493847,0.001464,-0.027816,1.034072,-0.700000,6.300000,-2.660000
41.501935,-0.074176,0.001952,0.866200,1.820000,-2.100000,0.420000
41.510022,-0.028792,0.034648,1.211216,0.140000,0.980000,-2.380000
41.518109,-0.056120,-0.047824,0.813008,0.140000,0.140000,0.420000
41.526197,-0.013664,0.050264,1.183400,2.940000,-0.280000,-2.800000
41.534284,-0.077104,-0.020496,0.958920,-1.400000,2.380000,0.000000
41.542371,-0.028304,0.017568,0.964288,2.940000,-2.100000,-0.280000
41.550459,-0.010248,0.011712,1.188768,-0.980000,1.960000,-1.400000
41.558546,-0.053680,0.000976,0.800320,3.080000,2.100000,-2.100000
41.566633,-0.021472,0.007808,1.202920,-0.700000,-1.260000,-1.680000
41.574720,-0.086376,0.005368,0.905240,1.120000,1.960000,0.560000
41.582808,-0.002440,-0.010248,1.069208,2.240000,0.280000,-1.820000
41.590895,-0.068808,0.042944,1.066768,-0.560000,1.120000,-0.700000
41.598982,-0.036112,-0.035136,0.862296,2.100000,0.000000,-0.700000
41.607070,-0.038552,0.044408,1.224880,-0.420000,-2.240000,0.000000
41.615157,-0.022448,-0.033184,0.865712,3.080000,4.620000,-1.540000
41.623244,-0.023424,0.007320,1.111176,1.680000,-3.500000,-0.980000
41.631331,-0.068808,-0.030744,1.055056,6.580000,4.340000,-0.560000
41.639419,-0.014640,-0.014152,1.055056,13.160000,-1.960000,-0.140000
41.647506,-0.040504,0.030256,1.080432,15.260000,5.040000,-1.820000
41.655593,-0.071248,-0.052704,0.899384,16.520000,-0.280000,0.420000
41.663681,-0.015128,0.046360,1.204872,20.160000,-0.980000,-0.560000
41.671768,-0.050752,-0.066856,0.881816,22.120001,2.940000,0.140000
41.679855,-0.029768,0.077104,1.175592,23.240000,-1.960000,-0.280000
41.687942,-0.022936,-0.066368,0.957456,24.080000,4.760000,-1.400000
41.696030,-0.058560,0.053680,0.963800,26.600000,-3.920000,0.140000
41.704117,-0.049776,-0.013664,1.129232,22.120001,2.380000,-1.540000
41.712204,-0.040504,-0.007808,0.868640,22.260000,-0.700000,1.540000
41.720292,-0.013176,0.028792,1.203408,25.620001,1.120000,-0.840000
41.728379,-0.035136,-0.002928,0.846192,21.280001,0.560000,1.400000
41.736466,-0.069784,0.089792,0.932080,14.700000,0.280000,-0.840000
41.744553,0.045872,0.006832,1.046760,5.040000,-1.260000,-1.540000
41.752641,-0.122488,-0.029768,0.948184,10.080000,2.380000,-0.280000
41.760728,-0.020008,0.058560,0.970632,7.000000,-0.980000,-0.700000
41.768815,0.015616,-0.004880,1.041392,-3.780000,-1.400000,-1.400000
41.776903,-0.087352,0.039528,0.953064,-3.920000,7.280000,-0.980000
41.784990,0.004392,-0.045384,1.080920,-1.960000,-5.320000,-1.540000
41.793077,-0.073200,0.040016,1.008208,-1.120000,6.160000,-0.420000
41.801165,-0.039040,-0.050264,0.933544,1.400000,-3.360000,-0.140000
41.809252,0.019032,0.070760,1.182912,0.700000,0.280000,-1.120000
41.817339,-0.094184,-0.024888,0.912560,2.660000,4.900000,-2.240000
41.825426,0.006832,-0.005856,1.128744,2.800000,-3.220000,-1.120000
41.833514,-0.075152,0.081984,1.003328,0.280000,5.740000,-1.400000
41.841601,-0.000976,-0.133712,0.892552,2.940000,-3.920000,-0.980000
41.849688,-0.042456,0.138104,1.193160,0.560000,3.360000,-1.960000
41.857776,-0.063928,-0.105408,0.892064,1.680000,-0.280000,-0.840000
41.865863,-0.068320,0.095648,1.081896,3.080000,1.680000,0.140000
41.873950,0.058560,-0.038552,1.059936,-0.560000,0.420000,-2.240000
41.882037,-0.089792,-0.001464,0.904752,3.360000,2.240000,-0.420000
41.890125,-0.030256,0.055632,1.158024,0.700000,-1.120000,-2.800000
41.898212,-0.023912,-0.062952,0.904752,0.840000,1.400000,0.000000
41.906299,-0.105896,0.097600,1.064816,3.640000,1.960000,-1.960000
41.914387,0.039040,-0.080032,1.091168,0.000000,-1.680000,-2.100000
41.922474,-0.139080,0.098088,0.901336,2.240000,5.460000,-0.980000
41.930561,0.094672,-0.098088,1.154608,0.560000,-6.300000,-0.280000
41.938648,-0.111264,0.106384,0.957944,1.820000,6.580000,0.840000
41.946736,0.027816,-0.097600,0.954528,3.220000,-2.100000,-1.820000
41.954823,-0.061976,0.089304,1.139480,0.140000,1.400000,-1.260000
41.962910,-0.092232,-0.006344,0.942816,0.980000,3.360000,-2.380000
41.970998,0.013176,-0.024888,1.077504,1.120000,-2.940000,0.840000
41.979085,-0.037576,0.074176,1.070672,0.420000,5.320000,-1.680000
41.987172,-0.045384,-0.081008,0.886696,2.380000,-1.820000,-0.280000
41.995260,-0.010248,0.111752,1.087752,-0.560000,0.420000,-0.980000
42.003347,-0.020008,-0.110288,0.993080,0.560000,2.380000,-1.400000
42.011434,-0.145912,0.131760,1.033584,3.640000,0.280000,-0.980000
42.019521,0.077104,-0.074664,1.099464,-1.120000,-0.420000,-1.820000
42.027609,-0.142008,0.045384,0.913536,2.380000,1.260000,0.000000
42.035696,0.075152,0.033672,1.114104,0.140000,0.560000,-2.940000
42.043783,-0.071736,-0.049288,0.944768,0.280000,2.100000,-0.980000
42.051871,-0.050752,0.038064,0.949648,1.960000,0.140000,-1.540000
42.059958,0.025376,0.005856,1.171200,-0.840000,-1.540000,-1.680000
42.068045,-0.134688,0.011224,0.897432,2.520000,6.160000,-0.980000
42.076132,0.022448,-0.015128,1.123864,0.980000,-3.220000,-1.400000
42.084220,-0.081984,0.063928,1.033584,0.280000,3.080000,-1.120000
42.092307,0.030744,-0.053192,0.900848,0.980000,0.280000,-0.700000
42.100394,-0.048312,0.070272,1.150216,1.680000,-0.420000,-2.380000
42.108482,-0.074176,-0.002928,0.919880,0.280000,5.740000,-2.380000
42.116569,-0.064416,-0.018056,1.025288,3.080000,-3.780000,0.000000
42.124656,-0.002928,0.054168,1.132648,-1.400000,3.920000,0.280000
42.132743,-0.040504,-0.034160,0.922320,2.240000,0.140000,-1.540000
42.140831,-0.019032,0.053192,1.036512,-0.420000,0.700000,-2.100000
42.148918,-0.046848,-0.062464,1.017968,1.260000,1.680000,-1.960000
42.157005,-0.074176,0.072712,0.988688,2.100000,-0.840000,0.140000
42.165093,0.011224,0.032208,1.140456,-1.540000,0.840000,-1.960000
42.173180,-0.053192,-0.088328,0.882304,2.940000,2.800000,-1.260000
42.181267,-0.071248,0.147376,1.156560,0.700000,-0.840000,-0.840000
42.189355,0.027328,-0.098576,0.982832,-0.560000,0.280000,-0.840000
42.197442,-0.061000,0.088816,0.850096,0.560000,1.540000,-1.540000
42.205529,-0.016592,-0.081008,1.240984,-0.280000,-4.060000,-2.660000
42.213616,-0.135664,0.121024,0.883280,0.560000,5.740000,0.280000
42.221704,0.078080,-0.096624,1.118496,2.240000,-3.920000,-1.260000
42.229791,-0.081008,0.089304,1.020896,-0.560000,4.340000,-0.420000
42.237878,-0.060024,-0.031232,0.933544,1.680000,-0.980000,-2.380000
42.245966,0.011224,0.050752,1.098488,-0.140000,-1.680000,-0.700000
42.254053,-0.085400,-0.009760,0.899384,0.840000,4.480000,-1.400000
42.262140,-0.018544,-0.037576,1.069208,1.400000,-4.340000,0.140000
42.270227,-0.061488,0.132248,1.088240,-1.260000,4.340000,-3.080000
42.278315,-0.025864,-0.113704,0.892064,0.140000,-1.680000,-0.560000
42.286402,-0.026840,0.093208,1.100440,2.800000,0.000000,-2.100000
42.294489,-0.011224,-0.064904,1.027728,-0.840000,-0.140000,-0.980000
42.302577,-0.101016,0.075640,0.927200,3.920000,1.260000,-0.700000
42.310664,0.057096,-0.038064,1.087264,0.000000,0.280000,-1.820000
42.318751,-0.159088,0.061000,0.950136,1.540000,2.240000,0.700000
42.326838,0.000976,-0.007320,1.018944,0.980000,0.420000,-1.400000
42.334926,-0.025376,0.080032,1.161928,-1.540000,-1.400000,-1.120000
42.343013,-0.044408,-0.083936,0.811056,2.520000,4.480000,-2.940000
42.351100,-0.006832,0.068320,1.120936,0.000000,-3.360000,0.140000
42.359188,-0.066856,-0.007320,1.013088,0.280000,5.040000,-1.960000
42.367275,-0.036600,0.026840,0.864248,1.400000,-3.080000,-0.140000
42.375362,-0.000488,0.025864,1.169248,-0.280000,1.120000,-3.080000
42.383450,-0.104920,-0.024400,0.892552,0.140000,2.240000,-1.120000
42.391537,-0.029280,0.044408,1.086288,1.120000,-1.120000,-0.840000
42.399624,0.004392,-0.007808,1.115080,0.140000,1.820000,-1.680000
42.407711,-0.077104,0.041480,0.790072,2.380000,3.500000,-2.520000
42.415799,0.032208,-0.021960,1.141920,-0.840000,-2.660000,-1.120000
42.423886,-0.083936,0.042456,0.913048,0.840000,4.760000,-1.680000
42.431973,-0.038552,-0.028304,0.983320,1.680000,-0.280000,-1.820000
42.440061,-0.072712,0.105896,1.153632,0.560000,-0.560000,-1.400000
42.448148,-0.061488,-0.070760,0.862784,0.980000,3.640000,-0.700000
42.456235,0.047336,0.069296,1.130696,2.380000,-3.780000,-1.120000
42.464322,-0.047824,-0.026352,0.971608,-2.100000,7.700000,-2.380000
42.472410,-0.034160,0.046848,0.976488,3.220000,-3.780000,-1.820000
42.480497,-0.053680,0.039528,1.089216,-0.280000,2.100000,-2.940000
42.488584,-0.064416,0.003904,0.922320,0.980000,-0.420000,0.000000
42.496672,0.012688,0.021472,1.074576,1.260000,0.000000,-2.100000
42.504759,-0.036112,0.000000,1.072624,1.400000,1.960000,-2.380000
42.512846,-0.081984,0.004880,0.844240,1.260000,-0.420000,-0.140000
42.520933,-0.007320,0.052216,1.215120,0.420000,-2.100000,-0.980000
42.529021,-0.100040,0.006344,0.853024,0.560000,6.160000,-1.400000
42.537108,0.029280,0.021960,1.123376,2.240000,-4.480000,-1.960000
42.545195,-0.035136,-0.018056,0.952088,-0.560000,6.300000,-1.540000
42.553283,-0.063928,0.010248,0.949648,1.680000,-4.200000,-1.400000
42.561370,-0.023912,0.037576,1.169736,-0.840000,2.520000,-1.680000
42.569457,-0.118096,0.021472,0.937448,2.240000,1.260000,-1.400000
42.577544,0.033672,0.035624,1.083848,-0.140000,-2.380000,-0.980000
42.585632,-0.041968,-0.020496,0.939888,1.120000,2.800000,-1.260000
42.593719,-0.008784,0.035136,0.999424,1.400000,-2.380000,-1.680000
42.601806,-0.046848,0.000000,1.158024,-0.420000,2.660000,-2.520000
42.609894,-0.066856,0.000000,0.798856,0.840000,0.000000,0.140000
42.617981,0.004880,0.066856,1.253184,-0.140000,-2.240000,-2.240000
42.626068,-0.094672,0.013664,0.818376,0.560000,4.480000,-0.840000
42.634156,0.002440,0.026352,1.185352,0.560000,-2.800000,-1.960000
42.642243,-0.016592,0.015128,0.862784,-0.420000,2.240000,0.420000
42.650330,-0.062952,-0.009272,1.026752,2.800000,-1.540000,-2.800000
42.658417,-0.058072,0.071248,1.045784,-2.380000,4.340000,-1.260000
42.666505,-0.068320,-0.074664,0.921344,1.960000,-0.140000,-1.260000
42.674592,-0.020496,0.153720,1.153632,-1.960000,0.700000,-1.820000
42.682679,-0.087352,-0.088816,0.907192,0.420000,1.260000,-1.400000
42.690767,0.044896,0.121512,1.063840,0.560000,-0.700000,-1.260000
42.698854,-0.088816,-0.092720,0.887672,-0.980000,3.920000,-1.120000
42.706941,0.004392,0.097600,1.062376,0.700000,-3.080000,-0.420000
42.715028,-0.064904,-0.014152,1.088240,-1.400000,4.340000,-2.660000
42.723116,-0.032208,0.065880,0.892064,0.280000,-1.400000,-1.400000
42.731203,-0.062952,-0.008296,1.158512,-0.420000,2.100000,-1.260000
42.739290,-0.004392,0.059048,0.768600,0.420000,0.840000,0.000000
42.747378,0.033184,-0.034160,1.155584,-0.700000,-1.260000,-2.520000
42.755465,-0.124928,0.061488,0.782264,-0.840000,5.460000,-0.420000
42.763552,0.000000,-0.002440,1.190232,-0.420000,-3.220000,-1.260000
42.771639,-0.085888,0.031232,0.867176,-1.540000,4.760000,-0.980000
42.779727,-0.075640,0.071248,1.068720,2.520000,-3.360000,-0.560000
42.787814,0.017080,0.002928,0.964776,-3.220000,3.920000,-1.260000
42.795901,-0.063440,-0.034160,0.813496,1.960000,0.000000,-0.560000
42.803989,-0.000976,0.091256,1.129232,-1.960000,2.380000,-1.400000
42.812076,-0.056120,-0.071248,0.792024,1.680000,2.800000,-1.680000
42.820163,-0.057096,0.102968,1.128256,-0.560000,-1.680000,-0.280000
42.828251,-0.037088,0.016104,0.903776,-1.400000,3.640000,0.280000
42.836338,-0.040504,0.018544,1.014064,1.540000,-2.800000,-0.420000
42.844425,-0.064416,0.092720,0.979904,-0.140000,3.080000,-1.120000
42.852512,0.015616,-0.053192,0.821792,0.420000,-2.660000,0.420000
42.860600,-0.050752,0.050264,1.059936,-0.700000,4.060000,-2.660000
42.868687,-0.057584,-0.025864,0.825696,-0.420000,1.260000,0.140000
42.876774,-0.011712,0.049288,1.148264,0.000000,-1.260000,-1.120000
42.884862,-0.095160,0.015128,0.855952,-1.120000,4.200000,-0.840000
42.892949,-0.048312,0.085888,1.002352,-0.560000,-2.660000,0.420000
42.901036,0.011224,0.016104,1.045784,-0.420000,2.940000,-1.540000
42.909123,-0.033672,-0.028792,0.743712,1.680000,-0.280000,-0.560000
42.917211,-0.038552,0.074664,1.108248,0.280000,0.840000,-1.820000
42.925298,-0.064416,-0.041480,0.863760,1.540000,2.100000,0.980000
42.933385,-0.014152,0.103456,1.069696,0.280000,-1.260000,-1.960000
42.941473,-0.050264,0.009272,0.934520,-0.140000,3.080000,0.140000
42.949560,-0.059048,0.026352,0.916464,1.540000,-0.560000,-1.120000
42.957647,0.008784,0.027816,1.057984,-0.560000,0.980000,-0.700000
42.965734,-0.050264,-0.021960,0.764696,2.660000,1.820000,-0.420000
42.973822,-0.008784,0.056120,1.124352,-0.700000,-0.980000,-0.980000
42.981909,-0.120536,0.008296,0.880840,1.820000,3.640000,-0.140000
42.989996,0.018544,0.102968,1.015528,1.540000,-1.960000,-1.260000
42.998084,-0.019520,-0.041480,0.881328,-1.400000,3.360000,-0.840000
43.006171,-0.090768,0.062464,0.902312,3.780000,0.700000,-1.820000
43.014258,0.020984,-0.000976,1.042368,-0.420000,0.280000,-0.980000
43.022345,-0.095160,-0.000976,0.749080,1.260000,3.220000,0.560000
43.030433,-0.022936,0.081008,1.176568,1.400000,-1.260000,-0.700000
43.038520,-0.044408,-0.026352,0.844728,-0.140000,4.200000,-1.260000
43.046607,-0.072712,0.110288,0.929640,2.100000,-3.360000,-0.140000
43.054695,0.068320,-0.023912,1.030168,-2.240000,1.540000,-1.260000
43.062782,-0.077104,0.012200,0.822768,3.220000,2.940000,-1.540000
43.070869,0.014152,0.034648,1.056032,1.540000,-1.120000,-1.960000
43.078957,-0.071736,0.032696,0.860832,0.280000,4.340000,0.140000
43.087044,-0.118096,0.042944,0.947208,2.800000,-1.680000,-0.420000
43.095131,0.042456,0.051240,1.075552,-1.260000,1.680000,-0.420000
43.103218,-0.051728,-0.020496,0.725656,1.540000,1.680000,-1.960000
43.111306,0.025376,0.051240,1.090680,-0.140000,-0.980000,-1.260000
43.119393,-0.100040,-0.013664,0.876448,0.420000,3.780000,0.280000
43.127480,-0.018056,0.071736,0.983320,2.380000,-3.500000,-0.840000
43.135568,-0.036600,0.062464,1.042368,-2.380000,4.060000,-1.260000
43.143655,-0.025864,-0.051240,0.717360,0.560000,1.120000,-0.980000
43.151742,-0.000976,0.081984,1.162416,0.280000,-2.240000,-0.840000
43.159829,-0.090768,-0.009272,0.806176,-0.280000,3.640000,-1.260000
43.167917,-0.008296,0.064904,1.022848,2.240000,-4.060000,-0.700000
43.176004,-0.050264,0.046848,1.017480,-0.700000,4.340000,-1.540000
43.184091,0.003416,-0.038552,0.813496,1.960000,-2.380000,-0.140000
43.192179,-0.006832,0.081008,1.088240,0.000000,0.280000,-1.680000
43.200266,-0.054168,0.003416,0.834480,0.000000,3.360000,-1.400000
43.208353,-0.090280,0.040504,0.988200,2.800000,-0.840000,0.000000
43.216440,-0.014152,0.086864,1.044320,-0.280000,1.120000,-0.700000
43.224528,0.028792,-0.094184,0.730536,1.540000,-0.280000,-0.140000
43.232615,-0.064904,0.131760,1.106296,0.560000,0.000000,-1.820000
43.240702,-0.057584,-0.033184,0.936960,-0.420000,2.380000,-0.980000
43.248790,-0.044408,0.066856,0.916464,2.100000,-2.800000,-1.400000
43.256877,-0.001464,0.029280,1.064328,-0.280000,1.400000,-1.820000
43.264964,-0.052216,-0.052704,0.797392,1.680000,1.540000,-0.560000
43.273051,-0.028304,0.141032,1.160952,0.980000,-0.840000,-0.700000
43.281139,0.001464,-0.053680,0.809592,-0.280000,2.380000,-0.140000
43.289226,-0.075152,0.103456,1.021872,3.220000,-1.820000,-1.540000
43.297313,0.022448,-0.023912,1.009184,-0.700000,1.120000,-2.240000
43.305401,-0.057584,0.023424,0.829112,2.100000,0.280000,-0.700000
43.313488,-0.052704,0.071736,1.129720,0.980000,0.700000,-1.540000
43.321575,-0.005368,-0.003904,0.894504,0.000000,1.960000,-0.140000
43.329662,-0.061488,0.064416,0.930128,2.800000,-0.700000,-2.660000
43.337750,0.013176,0.000000,1.017480,-1.960000,1.120000,-1.120000
43.345837,-0.092720,-0.005856,0.853024,2.520000,0.840000,-0.980000
43.353924,0.036600,0.100040,1.113616,-0.140000,-1.680000,-2.100000
43.362012,-0.091256,0.000976,0.860832,-0.280000,3.920000,-0.840000
43.370099,-0.035136,0.054656,1.038952,0.840000,-2.240000,-1.540000
43.378186,0.030744,0.013176,1.009672,-0.980000,2.940000,-1.400000
43.386274,-0.067344,-0.020008,0.782752,2.100000,0.280000,-1.960000
43.394361,-0.036600,0.107848,1.255624,0.140000,0.560000,-1.120000
43.402448,-0.041968,-0.013664,0.737368,0.560000,3.220000,-2.240000
43.410535,0.010248,0.061488,1.153144,0.420000,-2.240000,-1.400000
43.418623,-0.049776,0.001952,0.895968,0.420000,5.880000,-2.380000
43.426710,-0.030744,0.031232,0.959896,1.960000,-2.940000,-0.840000
43.434797,-0.069296,0.078568,1.156072,-0.280000,3.500000,-2.940000
43.442885,-0.000976,-0.025376,0.790560,1.400000,-1.680000,-0.840000
43.450972,-0.028304,0.098088,1.158024,0.560000,0.560000,-2.380000
43.459059,-0.037576,-0.050752,0.879864,1.260000,2.100000,-0.420000
43.467146,-0.028304,0.090280,1.093608,1.820000,-2.520000,-1.120000
43.475234,-0.047336,0.004880,0.993080,-0.420000,4.200000,-0.700000
43.483321,-0.020496,0.053680,0.926712,1.960000,-2.240000,-1.540000
43.491408,-0.017080,0.013176,1.130208,1.260000,2.520000,-2.240000
43.499496,-0.041968,-0.006832,0.777872,1.680000,-1.820000,0.560000
43.507583,-0.045872,0.086864,1.267336,0.700000,0.420000,-2.380000
43.515670,-0.041480,-0.003904,0.809104,2.520000,2.660000,0.140000
43.523757,0.021472,0.065880,1.128744,0.700000,-3.080000,-2.240000
43.531845,-0.081008,-0.011224,0.891576,0.420000,4.760000,0.140000
43.539932,0.006344,0.061976,1.126304,1.680000,-3.920000,-2.660000
43.548019,-0.062464,0.054168,1.011624,0.420000,4.060000,-0.840000
43.556107,-0.031232,0.018056,0.912560,0.980000,-1.960000,-1.820000
43.564194,0.005368,0.055144,1.148752,-2.100000,3.780000,-0.140000
43.572281,-0.034648,-0.046848,0.814472,3.080000,0.420000,-2.380000
43.580368,-0.064416,0.129808,1.290272,-0.140000,0.840000,-0.420000
43.588456,0.009272,-0.053192,0.720288,1.820000,1.960000,-1.120000
43.596543,-0.055144,0.119072,1.200968,-1.400000,0.140000,-0.840000
43.604630,-0.035624,-0.043920,0.828624,1.400000,1.540000,-1.820000
43.612718,0.017568,0.077592,1.176080,-0.140000,-2.380000,-1.960000
43.620805,-0.117608,0.029768,0.887184,-0.140000,5.180000,-1.120000
43.628892,0.047336,0.028304,1.089704,0.420000,-2.240000,-0.560000
43.636979,-0.088328,0.045384,0.955992,-1.120000,4.620000,-0.840000
43.645067,0.030744,0.005856,1.005768,0.700000,-3.500000,-0.980000
43.653154,-0.080032,0.059536,1.105808,-0.420000,4.480000,-0.980000
43.661241,0.009272,0.013176,0.840824,1.400000,-1.260000,-0.980000
43.669329,-0.059048,0.064904,1.222928,0.140000,2.660000,-1.820000
43.677416,-0.015616,-0.018544,0.752984,0.840000,-0.420000,0.000000
43.685503,-0.021960,0.095160,1.313208,0.000000,-0.140000,-1.680000
43.693590,-0.054168,-0.029768,0.710528,0.700000,3.920000,-0.840000
43.701678,0.013664,0.123464,1.297104,0.840000,-2.240000,-1.540000
43.709765,-0.060512,-0.085400,0.743712,1.820000,5.040000,-1.960000
43.717852,-0.026352,0.162504,1.267336,-0.140000,-3.780000,-0.980000
43.725940,-0.050752,-0.085400,0.847656,1.120000,5.740000,-0.840000
43.734027,-0.001952,0.160064,1.198528,1.680000,-4.060000,-0.560000
43.742114,-0.025376,-0.109800,0.838384,0.560000,4.760000,-1.120000
43.750202,-0.032208,0.157624,1.168272,1.820000,-4.620000,-0.980000
43.758289,-0.020984,-0.063928,0.921344,-0.980000,6.720000,-2.800000
43.766376,-0.052216,0.123464,1.062376,3.360000,-3.360000,0.000000
43.774463,-0.003416,-0.040992,1.005768,-0.560000,5.600000,-1.260000
43.782551,-0.054168,0.086864,0.966728,1.960000,-4.480000,0.140000
43.790638,-0.003904,-0.000976,1.139968,-0.840000,5.460000,-1.820000
43.798725,-0.017568,0.060512,0.855952,1.820000,-2.520000,-0.980000
43.806813,-0.029280,-0.002440,1.227320,0.840000,5.600000,-3.220000
43.814900,-0.047336,0.047336,0.764696,1.400000,-1.680000,0.980000
43.822987,-0.000488,0.050752,1.343952,0.840000,1.820000,-2.240000
43.831074,-0.053680,0.029768,0.684664,0.840000,2.800000,-0.700000
43.839162,-0.025376,0.044896,1.324432,0.280000,-0.140000,-1.960000
43.847249,-0.034160,0.018544,0.717360,0.560000,3.080000,-0.280000
43.855336,-0.031720,0.058560,1.340048,0.000000,-0.560000,-2.100000
43.863424,-0.019520,0.003416,0.772992,0.560000,4.620000,0.280000
43.871511,-0.027328,0.065392,1.267824,0.420000,-2.240000,-2.800000
43.879598,-0.040504,0.005368,0.786656,-0.140000,3.640000,0.280000
43.887685,-0.023912,0.074176,1.286856,0.280000,-1.960000,-2.380000
43.895773,-0.045384,0.002440,0.825208,-1.120000,4.900000,0.000000
43.903860,0.009760,0.040504,1.196088,1.680000,-3.500000,-1.540000
43.911947,-0.065392,0.027328,0.882792,-0.980000,6.160000,1.820000
43.920035,0.028304,0.055144,1.201456,0.840000,-5.460000,-1.960000
43.928122,-0.089304,0.032208,0.887672,-0.980000,7.140000,-0.420000
43.936209,0.044408,0.040992,1.159488,1.260000,-6.860000,-2.520000
43.944296,-0.109312,0.030744,0.968192,-0.560000,7.140000,0.560000
43.952384,0.049288,0.038064,1.117520,0.980000,-7.280000,-0.840000
43.960471,-0.074664,0.016104,0.981368,0.560000,7.560000,-1.260000
43.968558,-0.009272,0.050752,1.089216,1.820000,-4.200000,-1.400000
43.976646,-0.043432,0.016592,0.992104,-0.140000,6.020000,0.560000
43.984733,0.013176,0.048800,1.072624,1.820000,-5.040000,-0.700000
43.992820,-0.032208,0.018544,1.004792,-1.540000,5.320000,-1.400000
44.000907,-0.061488,0.063440,1.060424,2.660000,-2.940000,-1.120000
44.008995,0.019032,0.024888,1.017968,-1.820000,4.900000,-0.280000
44.017082,-0.050752,0.029768,1.063352,3.360000,-4.340000,-0.140000
44.025169,0.014152,0.058560,1.036512,-1.540000,5.600000,-1.960000
44.033257,-0.079056,0.018544,0.984296,2.100000,-2.660000,-1.820000
44.041344,0.033184,0.051728,1.130208,0.000000,4.760000,-1.540000
44.049431,-0.087352,0.003904,0.900360,2.800000,-4.620000,1.120000
44.057519,0.047336,0.073688,1.183888,0.140000,5.040000,-1.680000
44.065606,-0.095160,0.005856,0.827648,1.120000,-0.840000,-1.120000
44.073693,0.024400,0.051728,1.270752,0.280000,1.540000,-1.540000
44.081780,-0.047824,0.013664,0.777872,0.560000,-1.400000,0.420000
44.089868,0.032208,0.060512,1.296128,1.680000,1.820000,-2.940000
44.097955,-0.097112,0.011224,0.769576,0.840000,3.640000,-0.700000
44.106042,0.024888,0.051728,1.295640,2.100000,-2.520000,-1.540000
44.114130,-0.084424,0.023424,0.788608,0.420000,3.920000,0.700000
44.122217,0.054168,0.045384,1.253184,0.840000,-2.940000,-1.120000
44.130304,-0.111264,0.029768,0.860832,1.680000,6.160000,-1.260000
44.138391,0.029280,0.047336,1.167296,0.840000,-4.620000,-1.540000
44.146479,-0.074664,0.004880,0.903288,0.560000,4.900000,0.000000
44.154566,0.037088,0.059536,1.127280,2.100000,-2.660000,-2.100000
44.162653,-0.105408,0.035624,0.975512,0.140000,5.460000,-0.560000
44.170741,0.053680,0.046848,1.046760,1.680000,-4.620000,-1.820000
44.178828,-0.071248,0.011712,1.029192,-0.840000,4.480000,-0.840000
44.186915,0.006832,0.035136,0.977952,3.080000,-3.780000,-0.840000
44.195002,-0.056608,0.052704,1.118496,-1.680000,5.600000,-0.700000
44.203090,-0.001952,0.024400,0.886208,3.220000,-3.780000,-1.400000
44.211177,-0.044896,0.062952,1.217560,-1.540000,2.240000,-1.260000
44.219264,0.003904,0.006344,0.834480,1.820000,-2.520000,-0.980000
44.227352,-0.056120,0.078568,1.267824,-0.840000,5.040000,-2.520000
44.235439,-0.062952,-0.002440,0.737856,1.960000,-1.960000,-0.420000
44.243526,-0.017080,0.061488,1.272216,-0.280000,-0.980000,-0.140000
44.251613,-0.027816,0.020496,0.840336,0.140000,1.820000,0.840000
44.259701,0.035136,0.034648,1.209264,1.820000,-0.420000,-2.380000
44.267788,-0.127368,0.051240,0.869616,0.700000,4.060000,-0.420000
44.275875,0.090768,0.003904,1.137528,1.400000,-2.800000,-2.100000
44.283963,-0.118096,0.084424,0.983320,0.840000,6.580000,-0.560000
44.292050,0.055144,-0.035624,1.044320,2.660000,0.560000,-1.120000
44.300137,-0.096624,0.100040,1.029680,0.280000,8.540000,-0.420000
44.308224,0.020496,-0.035136,0.942816,1.120000,1.400000,-0.140000
44.316312,-0.014152,0.141032,1.171200,0.420000,6.860000,-0.840000
44.324399,-0.020008,-0.083448,0.837408,1.960000,9.380000,-1.820000
44.332486,-0.075640,0.159088,1.235128,-0.280000,7.000000,-1.400000
44.340574,-0.030744,-0.092720,0.783728,1.260000,8.540000,-0.420000
44.348661,0.019520,0.162992,1.239520,-0.420000,2.660000,-0.280000
44.356748,-0.065392,-0.098088,0.827648,2.520000,12.880000,-1.680000
44.364835,-0.001952,0.140056,1.213168,0.420000,1.680000,0.420000
44.372923,-0.061000,-0.034648,0.856928,0.280000,12.180000,-0.840000
44.381010,0.034160,0.069784,1.150704,1.260000,0.280000,-0.280000
44.389097,-0.063440,0.036600,0.944280,-0.420000,11.620000,-2.240000
44.397185,-0.040992,-0.002928,1.017968,1.680000,2.240000,0.980000
44.405272,0.001464,0.109312,1.101904,-0.280000,9.940000,-1.680000
44.413359,-0.043920,-0.083936,0.842288,1.540000,3.220000,0.000000
44.421447,-0.051728,0.170312,1.297104,-0.840000,4.760000,-1.680000
44.429534,0.007808,-0.122976,0.735904,2.100000,-0.420000,1.120000
44.437621,-0.063928,0.183000,1.279048,0.560000,3.920000,-0.280000
44.445708,0.004880,-0.098088,0.804712,2.380000,4.620000,-0.280000
44.453796,-0.013176,0.150792,1.097024,0.420000,0.140000,-1.960000
44.461883,-0.077592,-0.071248,1.000400,0.280000,2.800000,-1.120000
44.469970,-0.000976,0.122976,1.062864,1.540000,0.560000,0.140000
44.478058,0.004880,-0.057096,0.981368,0.000000,3.920000,-2.380000
44.486145,-0.106872,0.105896,1.033096,2.380000,-2.660000,0.420000
44.494232,0.045384,0.006344,1.077504,-1.260000,2.940000,-2.240000
44.502319,-0.069296,0.009760,0.894992,2.240000,-0.840000,1.400000
44.510407,-0.022448,0.117120,1.210728,-0.420000,0.700000,-2.520000
44.518494,0.028304,-0.078568,0.863272,0.420000,-1.400000,0.280000
44.526581,-0.062464,0.129808,1.147288,0.000000,2.520000,-2.520000
44.534669,0.000976,-0.085888,0.912560,0.560000,1.260000,0.140000
44.542756,-0.050752,0.162016,1.122400,1.820000,0.280000,-1.820000
44.550843,-0.006832,-0.081008,0.967216,-1.540000,0.000000,-0.980000
44.558930,-0.044408,0.113704,1.004792,2.520000,1.260000,-0.140000
44.567018,0.000000,-0.003904,1.177544,-0.980000,0.700000,-2.800000
44.575105,-0.044408,0.018056,0.822768,2.520000,1.400000,-0.700000
44.583192,-0.028792,0.074664,1.246840,-0.700000,-2.100000,-1.400000
44.591280,-0.022936,-0.020008,0.829112,0.980000,2.520000,0.140000
44.599367,0.001952,0.071248,1.159488,1.540000,-0.140000,-3.080000
44.607454,-0.072224,0.005856,0.925248,0.980000,1.400000,1.260000
44.615541,-0.011224,0.070272,1.140456,2.660000,-1.400000,-2.100000
44.623629,0.032208,-0.019520,0.938912,-1.120000,2.240000,-1.120000
44.631716,-0.128832,0.099552,1.052616,3.500000,2.380000,-2.100000
44.639803,0.056608,-0.033672,1.114592,-1.400000,-0.980000,-0.700000
44.647891,-0.058560,0.070760,0.862784,3.220000,2.800000,-0.420000
44.655978,-0.000976,0.015128,1.238544,0.420000,-1.820000,-1.680000
44.664065,-0.026352,0.040016,0.843752,2.660000,6.860000,-2.240000
44.672152,-0.015128,0.012688,1.144848,1.540000,-3.920000,-1.820000
44.680240,-0.077592,0.064416,0.947696,-0.280000,3.780000,1.960000
44.688327,0.052216,0.005856,1.090680,2.100000,-0.840000,-2.100000
44.696414,-0.052704,0.058072,1.014064,-0.420000,3.080000,-0.560000
44.704502,-0.042944,-0.006344,0.953064,3.220000,-1.820000,-1.680000
44.712589,0.046360,0.047824,1.171688,-1.400000,-0.280000,-1.120000
44.720676,-0.096136,0.026352,0.843264,2.940000,5.740000,-2.660000
44.728763,0.007320,0.025376,1.189256,-0.560000,-2.520000,-0.140000
44.736851,-0.075640,0.051728,0.895968,1.680000,4.620000,0.420000
44.744938,0.061000,0.001464,1.154120,-0.140000,-4.620000,-0.980000
44.753025,-0.062464,0.056120,0.894016,0.140000,7.560000,-0.980000
44.761113,-0.015128,-0.014640,1.128744,2.100000,-4.620000,-1.680000
44.769200,-0.016104,0.096624,0.986736,-1.820000,3.640000,0.420000
44.777287,0.000976,-0.031720,0.920368,0.280000,-0.840000,-2.520000
44.785375,-0.063928,0.132736,1.189256,-7.280000,2.100000,-0.140000
44.793462,-0.013664,-0.040016,0.845216,-3.920000,2.380000,-1.540000
44.801549,0.020008,0.039528,1.169736,-5.040000,-3.780000,0.560000
44.809636,-0.078080,0.093208,0.903288,-5.740000,6.300000,-2.520000
44.817724,0.055144,-0.001464,1.067744,-11.340000,-5.180000,-2.100000
44.825811,-0.085400,0.064904,1.026752,-10.640000,6.440000,-0.840000
44.833898,0.003416,-0.034648,1.016992,-5.320000,-4.060000,-0.560000
44.841986,-0.007320,0.106872,1.048712,-8.680000,3.920000,-1.400000
44.850073,-0.035136,-0.081008,0.907680,-7.280000,-0.840000,-1.820000
44.858160,-0.015128,0.142008,1.225368,-9.380000,-0.140000,-0.700000
44.866247,-0.019032,-0.086864,0.811056,-5.040000,3.780000,-1.820000
44.874335,0.003416,0.134688,1.246352,-9.520000,-3.640000,0.000000
44.882422,-0.054656,-0.026352,0.902800,-5.880000,5.600000,-2.660000
44.890509,0.043920,0.010736,1.168272,-2.800000,-6.020000,-0.700000
44.898597,-0.117120,0.074664,0.990152,0.280000,6.440000,-1.400000
44.906684,0.086376,-0.018544,1.086288,-0.420000,-4.760000,-2.100000
44.914771,-0.097600,0.083448,1.043344,0.420000,7.560000,-2.240000
44.922858,-0.029768,-0.047336,0.995520,5.740000,-6.160000,-0.420000
44.930946,0.040504,0.111752,1.074576,-0.980000,4.900000,-1.260000
44.939033,-0.078080,-0.045872,0.903288,3.080000,-1.400000,-1.820000
44.947120,0.003416,0.137128,1.220488,-0.840000,2.940000,-2.100000
44.955208,-0.034160,-0.064904,0.794952,2.520000,-0.280000,-1.820000
44.963295,-0.016104,0.119072,1.258552,-1.120000,-0.420000,-1.820000
44.971382,-0.047336,-0.043920,0.870592,1.540000,3.780000,-2.100000
44.979469,0.003416,0.095160,1.138504,-0.840000,-1.540000,-1.400000
44.987557,-0.078080,-0.023424,0.972584,0.700000,2.660000,-0.840000
44.995644,0.069784,0.084912,1.085312,0.280000,-3.500000,-1.120000
45.003731,-0.095648,0.005368,0.993080,0.280000,6.300000,-2.100000
45.011819,0.009272,0.053192,1.109712,1.820000,-4.060000,-1.400000
45.019906,-0.056120,0.031720,0.963312,-1.680000,5.320000,-0.560000
45.027993,0.017080,0.022936,1.123376,2.100000,-4.060000,-1.960000
45.036080,-0.061976,0.066368,0.971608,-1.820000,7.420000,-1.680000
45.044168,-0.011224,-0.002440,1.097024,2.660000,-6.300000,-0.980000
45.052255,-0.036600,0.061488,0.978440,-1.680000,6.440000,-1.820000
45.060342,-0.027816,0.015616,1.038464,1.540000,-5.600000,-0.840000
45.068430,-0.045872,0.062952,1.060424,-2.240000,7.700000,-1.680000
45.076517,-0.008784,0.016104,0.982832,0.980000,-6.720000,-0.140000
45.084604,-0.016104,0.028304,1.120936,-0.840000,5.320000,-1.680000
45.092691,-0.040992,0.066856,0.919880,1.120000,-3.220000,-0.840000
45.100779,0.009272,0.006832,1.165832,-0.420000,6.300000,-2.660000
45.108866,-0.116632,0.061000,0.871568,1.540000,-2.940000,0.000000
45.116953,0.070272,0.001464,1.189256,-1.120000,2.520000,-1.120000
45.125041,-0.102480,0.078080,0.882304,1.260000,-0.700000,-0.420000
45.133128,0.060024,0.000488,1.197064,-1.120000,2.520000,-2.660000
45.141215,-0.110288,0.055144,0.829600,1.400000,-1.120000,0.700000
45.149302,0.055144,0.025864,1.243912,-1.820000,1.540000,-2.660000
45.157390,-0.077592,0.033672,0.775920,2.100000,0.000000,-0.280000
45.165477,-0.014152,0.041968,1.295152,0.280000,1.120000,-2.100000
45.173564,-0.039040,0.026352,0.762256,0.560000,0.700000,1.120000
45.181652,-0.013664,0.065880,1.310768,0.700000,0.840000,-2.520000
45.189739,-0.032208,0.019032,0.783240,0.700000,1.120000,0.700000
45.197826,-0.001464,0.056120,1.251720,0.980000,-0.560000,-2.660000
45.205913,-0.078080,0.020008,0.816424,-0.700000,3.080000,0.840000
45.214001,0.067832,0.049776,1.207800,1.120000,-1.960000,-3.080000
45.222088,-0.126392,0.017568,0.877424,-0.840000,3.920000,0.700000
45.230175,0.055632,0.052216,1.174128,0.280000,-2.660000,-1.540000
45.238263,-0.074664,0.019520,0.863760,-0.420000,4.900000,0.140000
45.246350,0.018544,0.033184,1.178032,-0.420000,-4.480000,-2.100000
45.254437,-0.102480,0.057584,0.936960,-1.120000,4.620000,0.280000
45.262524,0.044896,0.036600,1.098976,-0.420000,-3.080000,-0.560000
45.270612,-0.103456,0.031720,1.008696,0.560000,4.620000,-0.420000
45.278699,0.054168,0.053680,1.056520,-0.420000,-4.760000,-0.980000
45.286786,-0.091744,0.030744,0.969168,-1.260000,5.460000,-0.140000
45.294874,0.032696,0.032208,1.092144,-0.140000,-3.500000,-0.420000
45.302961,-0.051728,0.050264,0.980880,0.420000,3.500000,-1.960000
45.311048,-0.002440,0.009760,1.017968,0.700000,-3.080000,-0.560000
45.319136,-0.068808,0.074664,1.107760,-1.400000,4.480000,-0.420000
45.327223,0.002440,-0.005856,0.930616,1.400000,-2.520000,-0.560000
45.335310,-0.024400,0.098576,1.117520,-1.540000,3.080000,-0.840000
45.343397,-0.046360,-0.038552,0.909144,1.120000,-0.700000,-1.120000
45.351485,-0.006832,0.109312,1.200968,-2.100000,2.240000,-0.140000
45.359572,-0.054656,-0.033184,0.776408,2.240000,1.120000,-0.560000
45.367659,0.010736,0.100040,1.281976,-0.560000,0.140000,-1.260000
45.375747,-0.087352,-0.029280,0.812520,1.540000,3.360000,-1.820000
45.383834,0.050264,0.111264,1.211704,-0.840000,-3.500000,-0.420000
45.391921,-0.082472,-0.020008,0.870104,1.540000,5.040000,-0.980000
45.400008,-0.004880,0.090768,1.202920,1.820000,-2.940000,-1.120000
45.408096,-0.081984,-0.012200,0.892064,0.840000,3.500000,0.840000
45.416183,0.049776,0.102968,1.151680,1.400000,-3.640000,-1.120000
45.424270,-0.063440,-0.040992,0.934032,-0.280000,6.580000,-1.120000
45.432358,-0.051240,0.113216,1.101416,2.660000,-4.200000,-0.980000
45.440445,0.032208,-0.028304,0.973072,-1.400000,4.760000,-1.400000
45.448532,-0.093208,0.105896,1.064328,3.920000,-3.360000,-0.840000
45.456619,0.019520,-0.004392,1.101904,-0.140000,4.480000,-1.820000
45.464707,-0.080520,0.050264,0.879376,3.220000,-2.660000,0.840000
45.472794,-0.007320,0.055144,1.220976,-0.280000,2.660000,-2.380000
45.480881,-0.051728,-0.010736,0.848632,1.680000,-0.700000,0.980000
45.488969,0.018544,0.111264,1.152656,0.840000,1.260000,-2.380000
45.497056,-0.072224,-0.031232,0.915976,0.700000,0.700000,0.140000
45.505143,-0.032696,0.092232,1.130696,0.560000,-1.120000,-3.080000
45.513230,-0.016592,-0.020984,0.995032,0.700000,0.420000,0.280000
45.521318,-0.013664,0.088328,1.060424,3.220000,-0.140000,-2.520000
45.529405,-0.062464,-0.010736,1.039440,-0.140000,1.820000,0.280000
45.537492,-0.054168,0.080520,0.997472,1.120000,-1.680000,0.700000
45.545580,0.036600,0.023912,1.120448,-0.420000,2.520000,-1.820000
45.553667,-0.090280,0.021472,0.870592,2.100000,0.420000,-1.540000
45.561754,-0.001464,0.083448,1.238056,-0.840000,-1.540000,-0.280000
45.569841,-0.019520,-0.032696,0.813984,1.400000,0.700000,-0.840000
45.577929,-0.052216,0.115168,1.303448,0.420000,-0.140000,-1.680000
45.586016,-0.042944,-0.046360,0.789096,1.820000,3.220000,-1.120000
45.594103,0.021960,0.104920,1.219512,0.140000,-5.180000,-0.840000
45.602191,-0.087840,-0.018544,0.893040,1.120000,3.920000,-1.120000
45.610278,0.045872,0.075640,1.153144,1.680000,-4.340000,-0.840000
45.618365,-0.096624,0.034648,0.928664,0.980000,5.320000,-1.820000
45.626452,-0.016104,0.020496,1.086776,1.400000,-4.340000,-0.280000
45.634540,-0.010248,0.092720,1.075064,-0.700000,4.340000,-1.820000
45.642627,-0.026840,-0.043432,0.919392,2.240000,-1.960000,-0.700000
45.650714,-0.067832,0.140544,1.248792,0.700000,2.800000,-2.380000
45.658802,-0.028792,-0.074664,0.766160,1.680000,-1.960000,0.700000
45.666889,-0.017080,0.166408,1.285392,0.140000,0.140000,-0.420000
45.674976,-0.028304,-0.088816,0.820816,2.520000,2.800000,-0.420000
45.683063,0.017568,0.156160,1.195112,0.700000,-0.700000,-2.520000
45.691151,-0.117120,-0.068808,0.898408,1.960000,3.080000,-0.840000
45.699238,0.051240,0.114680,1.141432,1.680000,-2.940000,-0.280000
45.707325,-0.073688,-0.012688,0.927200,1.400000,5.320000,-1.120000
45.715413,0.007320,0.063440,1.068720,1.540000,-3.080000,-0.980000
45.723500,-0.069296,0.044408,1.087264,0.140000,3.920000,-1.680000
45.731587,0.008784,0.031232,0.898896,1.960000,-2.520000,0.700000
45.739674,-0.048800,0.077104,1.249768,0.980000,3.920000,-3.220000
45.747762,-0.026840,-0.004392,0.726144,0.980000,0.700000,-0.560000
45.755849,-0.020008,0.087840,1.280512,0.840000,0.000000,-1.680000
45.763936,-0.055632,-0.009272,0.833992,1.120000,1.680000,-0.140000
45.772024,0.032208,0.078568,1.150216,1.260000,-0.280000,-2.520000
45.780111,-0.128344,0.030744,0.950624,1.120000,4.200000,-0.560000
45.788198,0.069784,0.039040,1.095560,0.980000,-2.380000,-1.400000
45.796285,-0.071248,0.071736,0.980880,0.840000,4.900000,-1.960000
45.804373,-0.020008,-0.004392,0.993080,1.260000,-2.100000,-2.100000
45.812460,-0.077104,0.096624,1.117520,-0.560000,3.640000,-0.700000
45.820547,0.011712,-0.018056,0.854976,0.420000,-0.280000,-0.420000
45.828635,-0.049776,0.084912,1.255136,1.260000,2.660000,-2.240000
45.836722,-0.046848,-0.016104,0.758840,0.840000,0.280000,-1.400000
45.844809,-0.010736,0.113704,1.255136,-0.980000,-0.140000,0.140000
45.852896,-0.068320,-0.025864,0.798368,0.280000,4.060000,-0.840000
45.860984,0.011224,0.100528,1.225856,0.700000,-3.500000,-0.980000
45.869071,-0.091744,0.008296,0.821304,-0.840000,5.740000,-1.820000
45.877158,0.053192,0.018544,1.202432,0.420000,-4.760000,-0.980000
45.885246,-0.119072,0.090768,0.868640,0.560000,7.560000,-2.100000
45.893333,0.056608,-0.036600,1.086288,1.820000,-6.440000,-0.420000
45.901420,-0.126392,0.128344,1.025288,0.000000,5.880000,-1.400000
45.909507,0.048800,-0.039528,0.957944,1.260000,-4.060000,-0.140000
45.917595,-0.078080,0.127368,1.148752,0.980000,4.620000,-2.380000
45.925682,-0.024400,-0.057096,0.862784,2.240000,-3.220000,-0.840000
45.933769,-0.024400,0.156648,1.203408,0.000000,2.100000,-2.100000
45.941857,-0.056120,-0.083936,0.826672,1.680000,1.540000,-0.280000
45.949944,-0.027816,0.158112,1.211704,0.000000,-1.400000,-1.820000
45.958031,-0.046360,-0.054168,0.791048,1.680000,2.660000,-0.420000
45.966118,0.042456,0.101016,1.214144,1.400000,-3.920000,-1.960000
45.974206,-0.109312,0.017568,0.914024,0.980000,6.020000,-2.800000
45.982293,-0.019032,0.048312,1.009672,1.540000,-7.140000,-1.120000
45.990380,-0.157624,0.013664,1.006744,1.120000,-9.100000,-0.840000
45.998468,0.005856,0.075640,0.983808,1.820000,-25.340000,-0.420000
46.006555,-0.033672,0.026840,1.015040,-0.700000,-12.740000,-0.700000
46.014642,-0.049776,0.051728,0.891576,1.960000,-14.280000,-0.280000
46.022729,0.019520,0.047824,1.188768,-0.140000,-14.700000,-1.540000
46.030817,-0.107848,0.051728,0.761280,1.820000,-12.880000,-1.400000
46.038904,0.022448,0.021960,1.166320,-0.840000,-19.320000,-0.140000
46.046991,-0.132248,0.052704,0.872544,1.680000,-9.940000,0.000000
46.055079,0.101016,0.041968,1.092632,-0.560000,-19.740000,-1.120000
46.063166,-0.126880,0.033184,0.895480,-0.140000,-8.260000,-1.120000
46.071253,0.001952,0.029768,1.049688,1.400000,-19.879999,0.420000
46.079340,-0.020008,0.068808,0.993568,-1.960000,-9.940000,-0.840000
46.087428,-0.049288,0.034648,0.902800,2.380000,-13.300000,-0.140000
46.095515,0.059048,0.027328,1.121424,-1.540000,-5.740000,-1.260000
46.103602,-0.071736,0.051728,0.856928,1.680000,5.740000,-0.700000
46.111690,0.026352,0.029280,1.054568,-0.980000,1.680000,-0.980000
46.119777,-0.062952,0.045872,1.008696,0.700000,6.720000,-1.120000
46.127864,-0.044896,0.042456,0.860832,0.420000,0.140000,-0.700000
46.135951,0.035136,0.083936,1.112640,-0.700000,6.440000,-1.680000
46.144039,-0.114192,-0.023424,0.759816,1.540000,0.280000,-0.980000
46.152126,0.018056,0.105408,1.255136,-0.840000,-3.780000,-0.700000
46.160213,-0.054656,-0.014152,0.757864,0.700000,5.180000,-0.980000
46.168301,0.032208,0.056120,1.089704,0.840000,-3.640000,-1.820000
46.176388,-0.126880,0.024888,0.961848,1.120000,3.500000,-0.140000
46.184475,0.020984,0.060512,0.975512,1.540000,-5.880000,-0.140000
46.192562,0.000976,0.043432,1.061888,0.140000,5.040000,-1.820000
46.200650,-0.080032,0.005856,0.739808,1.540000,0.000000,-1.120000
46.208737,0.020496,0.090768,1.263920,0.560000,-3.360000,-0.560000
46.216824,-0.109800,0.010248,0.762256,2.100000,5.740000,-1.960000
46.224912,0.046360,0.062464,1.123376,0.980000,-5.180000,-0.560000
46.232999,-0.090768,0.017568,0.871568,0.420000,5.180000,-0.420000
46.241086,-0.009760,0.056120,1.028704,2.940000,-6.300000,-0.280000
46.249173,0.013176,0.016104,1.026264,-0.280000,5.320000,-2.240000
46.257261,-0.090768,0.054168,0.784704,2.380000,-0.700000,-1.400000
46.265348,0.031720,0.029768,1.155584,0.560000,-0.700000,-1.260000
46.273435,-0.120048,0.045872,0.868152,1.680000,4.480000,-0.420000
46.281523,0.050264,0.016104,1.050176,1.820000,-3.220000,-1.680000
46.289610,-0.068808,0.070272,0.914024,0.000000,4.060000,-0.280000
46.297697,-0.050264,0.024400,0.924272,0.700000,-2.240000,-1.400000
46.305784,0.006832,0.078568,1.149240,-2.240000,0.980000,-1.820000
46.313872,-0.113704,0.013176,0.738344,0.000000,2.520000,-1.540000
46.321959,0.076128,0.050752,1.111176,-0.700000,-4.340000,-0.560000
46.330046,-0.141032,0.041968,0.879864,-1.260000,6.300000,-1.260000
46.338134,0.025376,0.036112,1.021872,-0.700000,-3.920000,-1.260000
46.346221,-0.051240,0.044408,0.950624,-3.080000,3.360000,-1.260000
46.354308,-0.030256,0.055144,0.855464,-3.080000,-0.980000,-1.680000
46.362395,-0.038064,0.038064,1.142896,-6.300000,-0.280000,-2.100000
46.370483,-0.088816,0.062464,0.778848,-4.760000,3.360000,-0.840000
46.378570,0.059048,0.010736,1.055056,-7.140000,-4.340000,-1.260000
46.386657,-0.099064,0.087352,0.928664,-8.820000,6.020000,-2.100000
46.394745,-0.002440,-0.016104,0.899384,-10.500000,-1.820000,-0.280000
46.402832,-0.043920,0.120536,1.141432,-12.040000,1.260000,-1.120000
46.410919,-0.084424,-0.034160,0.829112,-8.120000,1.540000,0.560000
46.419006,0.051728,0.074176,1.063840,-10.080000,-2.660000,-1.120000
46.427094,-0.101016,0.024400,0.863272,-8.120000,5.740000,-1.400000
46.435181,-0.008784,0.010736,1.005768,-9.100000,-3.220000,-0.560000
46.443268,-0.077592,0.102480,1.083848,-9.940000,3.080000,-0.840000
46.451356,0.007320,-0.032208,0.770064,-8.120000,-0.420000,-1.820000
46.459443,-0.031232,0.100528,1.161440,-10.220000,0.700000,-0.560000
46.467530,-0.070272,-0.036600,0.820328,-8.120000,3.080000,-0.280000
46.475617,0.027816,0.085400,1.159976,-10.640000,-3.360000,-1.540000
46.483705,-0.118584,-0.017568,0.885232,-3.780000,7.000000,-1.120000
46.491792,0.048312,0.030744,1.041880,1.680000,-5.740000,0.140000
46.499879,-0.060024,0.036112,0.986736,1.680000,4.480000,-1.120000
46.507967,-0.034648,0.039040,0.910120,5.180000,-3.360000,-1.400000
46.516054,-0.007320,0.043432,1.095560,0.980000,0.980000,-1.400000
46.524141,-0.081984,0.042456,0.792512,1.680000,3.080000,-0.420000
46.532228,0.056608,0.025864,1.101416,0.700000,-3.920000,-0.700000
46.540316,-0.100528,0.062952,0.943304,-0.280000,5.600000,-3.640000
46.548403,-0.016592,0.006832,0.879376,0.980000,-3.220000,-0.700000
46.556490,-0.006344,0.082960,1.097512,-1.400000,1.680000,-1.540000
46.564577,-0.083448,0.013176,0.916464,1.680000,2.940000,-1.120000
46.572665,0.037576,0.036112,1.026264,0.280000,-2.660000,-1.820000
46.580752,-0.077592,0.072224,0.902312,0.140000,4.620000,-0.840000
46.588839,0.000976,0.004392,0.986736,0.280000,-0.980000,-1.680000
46.596927,-0.068808,0.075152,1.125816,0.000000,2.940000,-1.680000
46.605014,-0.020496,-0.028792,0.797880,0.560000,-1.120000,-0.980000
46.613101,0.015128,0.101016,1.155584,-0.280000,-0.700000,-1.260000
46.621188,-0.111264,-0.014640,0.873032,2.380000,5.180000,-0.980000
46.629276,0.041968,0.117120,1.126304,1.120000,-2.800000,-0.980000
46.637363,-0.086376,-0.007808,0.847168,0.980000,3.780000,-0.980000
46.645450,0.003904,0.061000,1.054568,1.820000,-4.060000,-0.140000
46.653538,-0.026352,0.029280,1.070184,0.700000,3.920000,-2.520000
46.661625,-0.045384,0.027816,0.828624,1.400000,0.840000,-0.840000
46.669712,0.007320,0.084424,1.196088,0.000000,0.000000,-1.820000
46.677799,-0.082472,-0.031232,0.810568,1.680000,4.200000,-1.820000
46.685887,0.021960,0.121024,1.125328,0.840000,-1.820000,-0.420000
46.693974,-0.040016,-0.022936,0.854000,0.140000,5.180000,-1.120000
46.702061,-0.068808,0.097112,1.096048,2.520000,-3.360000,-0.280000
46.710149,0.012200,0.021472,0.976488,-0.840000,4.620000,-2.940000
46.718236,-0.045872,0.028792,0.870104,1.960000,-0.420000,-0.700000
46.726323,-0.034648,0.091256,1.157048,-1.400000,2.800000,-1.680000
46.734410,-0.048800,-0.050264,0.805200,1.960000,1.400000,0.280000
46.742498,-0.016104,0.115656,1.143384,0.420000,0.140000,-2.380000
46.750585,-0.044408,-0.008784,0.848144,0.280000,3.220000,-0.560000
46.758672,-0.016104,0.057096,1.111664,1.680000,-3.220000,-1.680000
46.766760,-0.046848,0.063928,0.970144,-0.140000,5.460000,-1.820000
46.774847,-0.026840,-0.022448,0.893528,2.240000,-3.360000,0.140000
46.782934,-0.031232,0.135176,1.181448,0.980000,3.780000,-1.400000
46.791021,-0.041480,-0.064416,0.804224,2.660000,-0.560000,-0.420000
46.799109,-0.018544,0.159088,1.179984,0.560000,0.140000,-1.120000
46.807196,-0.060512,-0.080520,0.788608,2.100000,2.660000,-0.560000
46.815283,0.019032,0.112240,1.145824,0.560000,-3.500000,-1.260000
46.823371,-0.075640,0.007320,0.896456,0.700000,5.460000,-1.260000
46.831458,-0.045872,0.036112,0.996008,1.820000,-4.480000,-0.560000
46.839545,-0.046848,0.092720,1.149728,1.680000,2.520000,-1.400000
46.847632,0.000488,-0.012200,0.723704,1.400000,0.280000,-1.540000
46.855720,-0.046848,0.106872,1.178032,0.560000,-1.540000,-1.400000
46.863807,-0.025376,-0.075152,0.810568,1.260000,3.220000,-1.820000
46.871894,-0.009760,0.137616,1.102392,2.660000,-4.060000,-1.260000
46.879982,-0.044896,-0.028304,0.993568,0.420000,3.360000,-2.520000
46.888069,-0.053680,0.075640,0.874496,2.660000,-1.960000,-0.140000
46.896156,-0.035624,0.072224,1.156560,0.140000,0.420000,-2.380000
46.904243,-0.043920,-0.030744,0.802760,2.240000,1.680000,0.840000
46.912331,0.015616,0.096624,1.063352,1.820000,-2.380000,-1.540000
46.920418,-0.024888,-0.031720,0.957944,0.560000,3.640000,-0.980000
46.928505,-0.119560,0.083448,1.005280,3.360000,-0.980000,-1.260000
46.936593,0.041968,0.040504,1.101904,-1.820000,1.260000,-1.260000
46.944680,-0.120536,0.026840,0.851560,2.800000,0.000000,-1.540000
46.952767,0.006344,0.091256,1.172664,-0.840000,0.140000,-1.540000
46.960854,-0.039040,-0.061976,0.791048,2.100000,2.380000,-0.420000
46.968942,0.008296,0.085888,1.109712,1.400000,-0.420000,-1.820000
46.977029,-0.126880,0.020008,0.950136,0.280000,4.060000,-1.120000
46.985116,-0.020008,0.068808,1.074576,1.680000,-1.260000,-2.520000
46.993204,-0.057584,0.048800,0.976000,0.140000,4.480000,-0.420000
47.001291,-0.046848,0.006832,0.918904,2.800000,-1.260000,-1.400000
47.009378,-0.012200,0.081008,1.136552,0.420000,0.980000,-0.840000
47.017465,-0.041480,-0.045872,0.776896,1.960000,1.260000,-0.840000
47.025553,0.030744,0.109800,1.161928,0.140000,-1.680000,-1.960000
47.033640,-0.138592,-0.046360,0.871568,2.100000,4.760000,-2.100000
47.041727,0.008784,0.133712,1.175104,1.960000,-6.020000,0.000000
47.049815,-0.042456,-0.036112,0.941352,2.380000,5.600000,-2.800000
47.057902,-0.087352,0.115168,0.980392,2.940000,-1.260000,-0.420000
47.065989,0.008296,-0.006832,1.048712,0.140000,2.520000,-2.240000
47.074076,-0.087352,0.025864,0.826672,2.380000,-0.280000,1.120000
47.082164,0.019032,0.050264,1.132160,-0.560000,-0.140000,-3.080000
47.090251,-0.078568,0.000000,0.890112,0.280000,1.680000,0.420000
47.098338,-0.016104,0.075152,1.095072,1.260000,-2.520000,-1.960000
47.106426,-0.028792,0.019520,0.943792,-2.240000,2.100000,-0.140000
47.114513,-0.079544,0.063928,0.986736,3.080000,-3.220000,-2.380000
47.122600,-0.045384,0.064416,1.104344,-1.680000,1.960000,-0.840000
47.130687,-0.052216,-0.013664,0.747616,1.680000,-0.140000,-0.560000
47.138775,-0.015128,0.077592,1.177544,-1.400000,0.000000,-2.100000
47.146862,-0.051728,-0.038064,0.788608,0.700000,2.100000,-1.540000
47.154949,-0.008296,0.065880,1.104344,-0.420000,-3.640000,-1.820000
47.163037,-0.095160,0.057096,1.023824,0.280000,5.180000,-0.700000
47.171124,-0.036112,-0.010248,0.887672,1.540000,-3.500000,-0.140000
47.179211,-0.056608,0.136640,1.158512,0.700000,1.260000,-0.280000
47.187298,-0.004392,-0.051728,0.696864,0.280000,0.420000,-0.980000
47.195386,-0.021960,0.094672,1.226832,-0.140000,-1.120000,-2.100000
47.203473,-0.076616,-0.065392,0.745176,1.960000,3.080000,-0.280000
47.211560,-0.005368,0.132248,1.215608,1.540000,-4.480000,-0.980000
47.219648,-0.083936,-0.038552,0.847168,-0.140000,5.740000,-1.540000
47.227735,-0.083448,0.148352,1.114592,2.100000,-2.520000,-0.700000
47.235822,0.048800,-0.046360,0.902312,-1.540000,3.780000,-0.980000
47.243909,-0.085400,0.079544,0.894992,3.220000,-2.100000,-0.840000
47.251997,0.040016,0.008784,1.131672,-1.120000,1.680000,-1.960000
47.260084,-0.136152,0.013176,0.763232,1.400000,2.100000,-0.420000
47.268171,0.017568,0.103456,1.214144,0.700000,-1.820000,-0.980000
47.276259,-0.066856,-0.001952,0.761280,-0.420000,4.900000,-0.980000
47.284346,-0.035624,0.060512,1.109224,1.960000,-3.920000,-1.540000
47.292433,-0.040016,0.031232,0.883768,-1.820000,4.760000,0.140000
47.300520,0.013664,-0.028304,0.968680,3.080000,-3.780000,-1.540000
47.308608,-0.091744,0.133712,1.113128,-0.280000,3.640000,-2.100000
47.316695,-0.032696,-0.038552,0.831552,1.820000,-0.840000,-0.700000
47.324782,-0.006832,0.114192,1.100440,-0.280000,0.000000,-1.960000
47.332870,-0.088328,-0.046848,0.828136,1.680000,3.920000,-0.700000
47.340957,0.028304,0.065880,1.066768,1.260000,-2.660000,-0.140000
47.349044,-0.107360,0.019032,0.934032,-0.280000,4.900000,-0.980000
47.357131,-0.016104,0.071736,0.995520,0.560000,-3.360000,-0.700000
47.365219,-0.057584,0.013176,1.057496,0.140000,2.380000,-2.660000
47.373306,-0.068808,0.060024,0.828136,1.680000,-0.700000,1.260000
47.381393,0.047336,-0.002928,1.085800,0.000000,-0.140000,-2.240000
47.389481,-0.105896,0.031232,0.860832,1.260000,4.200000,0.280000
47.397568,-0.020496,0.048312,1.109224,0.560000,-2.100000,-1.400000
47.405655,-0.047824,0.027816,0.935496,-1.400000,4.200000,0.000000
47.413742,-0.068320,0.073688,0.926224,2.660000,-2.240000,-1.960000
47.421830,0.017568,0.028792,1.086288,-2.380000,1.680000,-0.840000
47.429917,-0.076128,-0.019032,0.739320,2.520000,2.660000,-1.260000
47.438004,-0.013664,0.088328,1.196088,-0.560000,-0.420000,-0.700000
47.446092,-0.089304,-0.026840,0.841312,2.940000,3.640000,-0.140000
47.454179,-0.007808,0.096624,1.078480,1.260000,-2.940000,-0.980000
47.462266,-0.040992,0.016104,0.996984,-0.420000,3.640000,-0.700000
47.470353,-0.015128,0.000488,0.809104,2.100000,-1.540000,-0.840000
47.478441,-0.058072,0.100528,1.229760,0.420000,1.540000,-0.980000
47.486528,-0.039040,-0.071736,0.700768,2.100000,1.820000,-0.280000
47.494615,-0.086376,0.161528,1.264408,1.400000,-1.680000,-0.980000
47.502703,0.000000,-0.082960,0.772504,-0.140000,3.920000,-0.840000
47.510790,-0.060512,0.122000,1.082872,2.940000,-4.620000,0.420000
47.518877,0.024888,-0.037576,0.985760,-0.280000,4.060000,-0.280000
47.526964,-0.085888,0.071248,0.888648,4.060000,-1.960000,-0.560000
47.535052,-0.014640,0.021472,1.139480,-0.280000,2.380000,-2.520000
47.543139,-0.081008,0.054656,0.822768,0.840000,1.540000,0.700000
47.551226,0.006344,-0.008296,1.103856,2.520000,-0.560000,-1.260000
47.559314,-0.070272,0.076616,0.921832,-0.980000,3.640000,0.000000
47.567401,-0.068808,-0.040504,0.956968,2.660000,-2.240000,-0.560000
47.575488,-0.001464,0.146400,1.097024,-1.260000,0.980000,0.140000
47.583575,-0.056120,-0.090768,0.839360,2.660000,2.240000,-1.540000
47.591663,-0.001952,0.123952,1.096048,1.680000,-2.240000,-0.560000
47.599750,-0.081008,-0.034160,0.943792,-0.700000,3.360000,-0.700000
47.607837,-0.014640,0.092720,0.998448,2.100000,-1.680000,0.000000
47.615925,-0.050752,0.024888,1.077016,-0.140000,2.940000,-2.520000
47.624012,-0.045384,-0.012688,0.827160,2.100000,0.560000,0.140000
47.632099,-0.040016,0.079544,1.154608,0.840000,-0.140000,-2.380000
47.640186,-0.081496,0.021960,0.909144,-1.540000,2.520000,0.420000
47.648274,-0.000976,0.045384,1.040416,3.780000,-1.540000,-1.820000
47.656361,-0.028304,0.013664,1.065792,-0.700000,1.400000,0.140000
47.664448,-0.054656,0.016104,0.885232,2.800000,1.680000,-1.540000
47.672536,-0.012688,0.084424,1.109712,0.000000,0.000000,-1.120000
47.680623,-0.092720,-0.013664,0.864248,0.980000,3.640000,-1.120000
47.688710,-0.008296,0.055632,1.097024,1.540000,-3.080000,0.420000
47.696797,-0.060024,0.045872,1.065304,0.000000,2.800000,-1.260000
47.704885,-0.007320,0.019032,0.837408,1.820000,-0.980000,-0.140000
47.712972,-0.079544,0.067832,1.221464,-1.400000,1.960000,-1.960000
47.721059,-0.026840,-0.016592,0.852536,1.120000,-0.420000,0.280000
47.729147,-0.032696,0.085400,1.132160,0.560000,-0.700000,-1.960000
47.737234,-0.022936,-0.025864,0.941352,-0.560000,2.520000,-0.140000
47.745321,-0.118584,0.079544,0.992592,0.840000,0.280000,-0.280000
47.753408,0.071736,0.033672,1.170712,-2.520000,-0.980000,-1.260000
47.761496,-0.080032,0.000976,0.793000,2.660000,3.360000,-2.240000
47.769583,-0.028304,0.065880,1.215120,-0.700000,-3.500000,-0.700000
47.777670,-0.059536,0.024400,0.882304,-0.280000,5.740000,-1.260000
47.785758,-0.034160,0.011712,1.110200,1.960000,-2.940000,-1.120000
47.793845,-0.041480,0.073688,1.005280,-0.840000,3.220000,-0.840000
47.801932,-0.031720,-0.022936,0.962336,2.800000,-1.400000,-0.280000
47.810019,-0.018544,0.110776,1.097024,-1.820000,2.380000,-2.800000
47.818107,-0.114680,-0.068808,0.935008,2.100000,0.980000,-0.420000
47.826194,0.035624,0.136640,1.078968,-0.560000,-2.520000,-1.120000
47.834281,-0.057584,-0.070760,1.077504,1.540000,4.760000,-1.680000
47.842369,-0.080032,0.136640,0.962824,1.540000,-0.420000,-0.700000
47.850456,-0.010736,-0.038552,1.137528,0.140000,0.140000,-0.980000
47.858543,-0.058560,0.081008,0.848632,1.400000,0.840000,0.700000
47.866630,0.015616,-0.013176,1.254160,0.840000,-2.240000,-2.100000
47.874718,-0.076128,0.071248,0.822768,0.000000,6.300000,-0.840000
47.882805,-0.003416,-0.010736,1.201944,0.560000,-5.460000,-1.680000
47.890892,-0.055632,0.093208,0.960872,-0.560000,6.860000,-1.400000
47.898980,-0.046848,-0.046360,1.036024,2.800000,-4.060000,-1.820000
47.907067,-0.059048,0.122488,1.132160,-2.240000,5.320000,-0.140000
47.915154,-0.019520,-0.041968,0.891088,2.240000,-1.540000,-1.120000
47.923241,-0.024400,0.088816,1.215120,1.120000,0.980000,-1.540000
47.931329,-0.066856,-0.019520,0.864248,1.400000,3.360000,-1.960000
47.939416,-0.027816,0.103944,1.165344,-0.140000,-0.980000,-1.120000
47.947503,-0.035624,-0.048800,0.893040,-0.420000,5.040000,-1.260000
47.955591,-0.045872,0.078080,1.164856,2.800000,-4.900000,0.140000
47.963678,-0.027816,0.036112,0.979904,-0.420000,6.160000,-2.380000
47.971765,-0.035624,-0.012688,0.993080,1.960000,-3.080000,0.560000
47.979852,-0.060512,0.117120,1.174616,0.140000,4.200000,-3.640000
47.987940,-0.046360,-0.075152,0.857416,0.980000,-1.120000,0.700000
47.996027,-0.003416,0.134688,1.213656,1.120000,0.700000,-2.660000
48.004114,-0.068320,-0.067832,0.895480,-0.140000,3.920000,-0.280000
48.012201,-0.008784,0.132736,1.148752,1.260000,-0.700000,-3.220000
48.020289,-0.051240,-0.069784,0.913048,-1.400000,2.520000,-0.420000
48.028376,-0.081984,0.136152,1.110688,3.080000,-2.380000,-1.400000
48.036463,0.018056,-0.041480,1.028704,-2.100000,4.200000,-1.540000
48.044551,-0.084424,0.076128,0.949160,1.820000,-1.820000,-0.280000
48.052638,-0.018056,0.024888,1.184864,-2.520000,0.840000,-1.400000
48.060725,-0.038064,0.038064,0.846192,1.260000,2.100000,-1.540000
48.068812,-0.024400,0.020496,1.173152,-0.560000,-0.840000,-2.100000
48.076900,-0.095160,0.061000,0.912560,-0.280000,2.660000,0.140000
48.084987,0.064416,0.004880,1.130696,0.560000,-1.820000,-2.520000
48.093074,-0.127368,0.067344,0.960384,-1.540000,5.740000,-1.540000
48.101162,0.007808,-0.010736,1.088240,0.840000,-3.640000,-1.960000
48.109249,-0.061976,0.092720,1.037488,-0.840000,5.180000,-1.540000
48.117336,-0.039040,-0.036600,0.988688,2.940000,-2.660000,-1.120000
48.125423,-0.037576,0.113704,1.176080,-0.560000,4.900000,-0.840000
48.133511,0.007320,-0.080032,0.832040,2.380000,1.120000,-0.700000
48.141598,-0.079056,0.165920,1.296128,0.420000,9.940000,-1.400000
48.149685,0.050752,-0.098088,0.773968,1.680000,12.600000,-0.840000
48.157773,-0.026840,0.155672,1.283440,0.420000,16.799999,-1.820000
48.165860,-0.034648,-0.086376,0.854488,0.560000,26.460001,-0.840000
48.173947,-0.003416,0.146400,1.225856,1.820000,21.700001,-2.520000
48.182034,-0.061976,-0.063928,0.886208,-0.980000,31.080000,-1.400000
48.190122,-0.018056,0.135664,1.183400,3.220000,28.280001,-1.120000
48.198209,-0.025376,-0.056120,0.950136,-1.120000,37.799999,-1.680000
48.206296,-0.099064,0.103456,1.057984,3.080000,23.520000,-0.840000
48.214384,0.014640,-0.013664,1.008696,-2.520000,28.420000,-1.680000
48.222471,-0.074664,0.058560,0.997960,1.540000,25.340000,-0.420000
48.230558,-0.016104,0.035136,1.162416,-0.840000,31.639999,-1.680000
48.238645,-0.061976,0.029280,0.830088,0.980000,23.940001,-1.120000
48.246733,-0.041968,0.021472,1.241960,-0.700000,22.680000,-1.960000
48.254820,-0.114192,0.038552,0.757864,0.140000,19.040001,1.120000
48.262907,0.004392,0.029768,1.333216,0.700000,7.840000,-1.960000
48.270995,-0.047824,0.024400,0.687104,0.700000,10.640000,-0.420000
48.279082,-0.046360,0.044896,1.380064,-0.280000,3.640000,-2.660000
48.287169,-0.050264,0.027816,0.731512,0.420000,8.820000,0.140000
48.295256,-0.041480,0.046848,1.300032,2.100000,-0.280000,-2.940000
48.303344,-0.084424,0.012688,0.758352,0.700000,7.000000,0.980000
48.311431,0.007320,0.061488,1.226832,-0.560000,-4.900000,-2.940000
48.319518,-0.099552,-0.012688,0.862296,0.280000,1.120000,0.700000
48.327606,0.046360,0.086376,1.214632,1.400000,-3.360000,-3.640000
48.335693,-0.113704,-0.018056,0.881328,0.420000,7.560000,0.140000
48.343780,-0.004880,0.073200,1.195600,0.840000,-2.240000,-1.400000
48.351867,-0.083936,0.000488,0.933544,0.140000,4.340000,-0.280000
48.359955,-0.022936,0.061488,1.105808,1.540000,-0.420000,-0.980000
48.368042,-0.035624,-0.002440,0.959408,-1.120000,5.600000,-0.280000
48.376129,-0.058560,0.061488,1.050176,2.240000,-1.960000,-1.680000
48.384217,-0.042456,0.023912,1.057984,-1.820000,3.780000,-1.120000
48.392304,-0.071736,0.017080,0.965752,1.540000,0.280000,-0.280000
48.400391,0.019032,0.060512,1.160464,-1.400000,2.380000,-0.700000
48.408478,-0.076128,-0.021960,0.849120,2.240000,0.980000,-1.400000
48.416566,-0.059048,0.099064,1.258064,-1.260000,1.260000,-1.820000
48.424653,-0.020496,-0.045384,0.739320,0.700000,1.960000,-0.560000
48.432740,-0.059048,0.107848,1.345416,0.000000,0.420000,-0.980000
48.440828,-0.011224,-0.031720,0.754448,1.540000,3.920000,-1.540000
48.448915,-0.088816,0.100040,1.281488,-0.280000,-0.700000,-2.240000
48.457002,-0.030256,-0.052216,0.781776,0.420000,4.060000,0.000000
48.465089,-0.015616,0.122488,1.294176,0.840000,-1.260000,-1.820000
48.473177,-0.095160,-0.073688,0.786168,1.120000,5.600000,-0.420000
48.481264,-0.015616,0.141520,1.281488,1.960000,-5.040000,-0.280000
48.489351,-0.075152,-0.055632,0.793976,-0.420000,7.420000,-0.700000
48.497439,0.007808,0.106384,1.268312,3.780000,-4.200000,-1.540000
48.505526,-0.103456,-0.049288,0.832528,-0.560000,6.580000,0.000000
48.513613,0.032696,0.102480,1.226832,3.780000,-6.860000,-0.980000
48.521700,-0.107848,-0.039528,0.872544,0.280000,9.660000,-1.120000
48.529788,-0.003416,0.071248,1.192672,3.500000,-8.400000,0.000000
48.537875,-0.089792,0.017568,0.900360,0.280000,9.940000,-1.400000
48.545962,-0.016104,0.021472,1.120448,2.940000,-6.860000,0.000000
48.554050,-0.062952,0.074664,1.023336,-0.140000,9.240000,-2.660000
48.562137,-0.024400,-0.019520,0.960872,1.820000,-7.560000,-0.840000
48.570224,-0.077592,0.080032,1.186328,-0.280000,8.260000,-1.680000
48.578311,-0.048800,-0.022936,0.861808,1.820000,-4.200000,0.280000
48.586399,-0.034648,0.088328,1.235616,0.700000,4.200000,-2.520000
48.594486,-0.063440,-0.027328,0.778848,0.980000,-1.960000,0.840000
48.602573,-0.043920,0.092232,1.300032,0.980000,1.960000,-2.380000
48.610660,-0.049776,-0.038064,0.769088,1.960000,1.400000,-0.560000
48.618748,-0.020984,0.097112,1.299544,1.400000,-2.380000,-2.100000
48.626835,-0.092232,-0.032208,0.801784,0.000000,3.640000,-0.140000
48.634922,0.021960,0.076128,1.249768,1.400000,-2.100000,-2.520000
48.643010,-0.111264,-0.022936,0.880840,1.540000,5.600000,-1.120000
48.651097,-0.009760,0.087840,1.177056,1.960000,-4.620000,-1.960000
48.659184,-0.092720,-0.014640,0.939400,-0.140000,5.600000,-0.140000
48.667271,-0.005368,0.051240,1.073112,3.360000,-3.360000,-1.680000
48.675359,-0.101992,0.009272,1.084824,0.140000,4.060000,-0.700000
48.683446,0.000976,0.052216,0.928664,3.220000,-4.900000,-0.700000
48.691533,-0.060512,0.020984,1.193648,-1.400000,3.640000,-1.820000
48.699621,-0.060024,0.004880,0.847168,4.060000,-0.700000,-1.400000
48.707708,-0.064904,0.062952,1.237080,-0.980000,0.280000,-0.140000
48.715795,-0.006344,-0.017080,0.772016,2.380000,0.000000,0.140000
48.723882,-0.061000,0.084424,1.309304,-1.120000,-0.560000,-1.820000
48.731970,-0.075640,-0.013664,0.758352,1.820000,1.960000,-1.400000
48.740057,-0.033672,0.048800,1.214144,-0.140000,-3.640000,-0.840000
48.748144,-0.054168,0.005856,0.917440,-0.420000,3.360000,-0.840000
48.756232,-0.056608,0.036112,1.123864,1.960000,-1.120000,-1.820000
48.764319,-0.033672,0.043920,0.979904,-0.140000,2.380000,-0.840000
48.772406,-0.078080,-0.023424,0.997960,1.120000,-0.280000,-0.840000
48.780493,-0.045872,0.101992,1.148752,-0.560000,2.240000,-1.680000
48.788581,-0.035136,-0.077104,0.817888,2.940000,0.560000,-1.260000
48.796668,-0.079056,0.156160,1.260016,0.280000,-0.980000,-1.540000
48.804755,-0.044408,-0.104432,0.812032,1.960000,3.220000,-0.840000
48.812843,-0.043920,0.154696,1.237080,1.260000,-1.680000,-1.120000
48.820930,-0.045384,-0.125416,0.812032,0.560000,4.200000,-0.280000
48.829017,-0.074176,0.165920,1.281976,3.080000,-6.020000,0.140000
48.837104,-0.013664,-0.068808,0.827648,-0.420000,6.160000,-1.820000
48.845192,-0.060024,0.095648,1.142896,4.480000,-4.340000,-1.680000
48.853279,-0.047824,-0.025864,1.008696,-1.540000,5.180000,-1.260000
48.861366,-0.056120,0.057584,0.999424,3.920000,-4.900000,-0.280000
48.869454,-0.032696,0.023912,1.090192,-0.280000,5.460000,-2.520000
48.877541,-0.102968,-0.016104,0.907680,2.380000,-2.100000,0.280000
48.885628,-0.022448,0.089792,1.174616,0.280000,1.260000,-0.980000
48.893715,-0.046848,-0.031720,0.891576,1.400000,-0.420000,0.280000
48.901803,-0.001952,0.053680,1.111664,2.380000,1.260000,-3.080000
48.909890,-0.126880,0.031232,1.006744,-0.560000,2.380000,-0.700000
48.917977,-0.008296,0.025376,0.947696,1.820000,-1.540000,-0.700000
48.926065,-0.044896,0.044408,1.147288,-0.420000,1.680000,-1.260000
48.934152,-0.056608,-0.045872,0.827160,2.240000,0.420000,-1.400000
48.942239,-0.106384,0.117608,1.257576,-0.140000,0.840000,-1.120000
48.950326,-0.018056,-0.042456,0.739808,0.560000,3.080000,-0.980000
48.958414,-0.028304,0.061488,1.241960,1.120000,-3.360000,-1.260000
48.966501,-0.079544,-0.004392,0.880352,-0.560000,4.340000,-0.560000
48.974588,-0.042944,0.042456,1.122400,2.800000,-3.640000,-1.540000
48.982676,-0.040504,0.032696,0.941840,-2.240000,6.580000,-0.700000
48.990763,-0.067344,-0.017568,1.011136,2.520000,-4.760000,-0.700000
48.998850,-0.046848,0.094184,1.139480,-1.540000,3.360000,-1.540000
49.006937,-0.067832,-0.040504,0.857904,0.980000,-0.980000,0.140000
49.015025,0.022448,0.064416,1.156560,0.840000,0.980000,-1.540000
49.023112,-0.159576,0.003416,0.919880,0.560000,1.120000,-0.280000
49.031199,0.033672,0.060024,1.080920,1.260000,-2.940000,-1.400000
49.039287,-0.089304,-0.004392,1.005280,-1.960000,3.920000,-0.700000
49.047374,0.003904,-0.017080,0.958432,3.220000,-0.700000,-1.400000
49.055461,-0.151768,0.092720,1.210240,0.420000,1.400000,-0.980000
49.063548,0.046360,-0.045384,0.749568,0.280000,-0.420000,1.120000
49.071636,-0.088328,0.078568,1.274168,1.120000,0.560000,-2.240000
49.079723,-0.044408,-0.031232,0.819840,0.980000,3.360000,-0.420000
49.087810,-0.037088,0.091744,1.199992,1.400000,-4.200000,-1.540000
49.095898,-0.006832,-0.037088,0.883768,-0.840000,7.000000,-2.100000
49.103985,-0.168360,0.062464,1.090192,2.940000,-1.260000,-1.540000
49.112072,0.027816,0.025864,1.042368,-0.420000,2.380000,-0.280000
49.120159,-0.093208,-0.020984,0.906216,2.240000,-0.560000,0.000000
49.128247,-0.012688,0.075152,1.179496,-0.420000,1.400000,-1.680000
49.136334,-0.119072,0.001952,0.872544,0.560000,1.680000,-0.700000
49.144421,0.052704,0.015616,1.118008,1.680000,-3.080000,-1.260000
49.152509,-0.127856,0.038064,0.972096,-0.420000,4.900000,-0.420000
49.160596,-0.021960,0.012688,1.011136,2.940000,-3.080000,-0.560000
49.168683,-0.035624,0.063928,1.060912,-2.800000,2.940000,0.000000
49.176770,-0.056608,-0.066856,0.914024,2.800000,-0.980000,-0.140000
49.184858,-0.046848,0.140544,1.148752,-0.420000,0.560000,-2.100000
49.192945,-0.082960,-0.058560,0.872056,-0.140000,0.420000,-0.140000
49.201032,-0.020984,0.046360,1.061400,0.140000,-0.980000,-0.700000
49.209120,-0.056120,0.006344,1.098976,0.140000,1.820000,-1.260000
49.217207,-0.044408,0.020008,0.821792,2.380000,0.560000,-1.260000
49.225294,-0.042456,0.065392,1.159488,-1.680000,-0.980000,-0.560000
49.233381,-0.116632,-0.040992,0.871080,0.560000,3.920000,-0.140000
49.241469,-0.024400,0.124928,1.085800,1.680000,-7.840000,-1.260000
49.249556,-0.010736,-0.084424,0.889136,-1.820000,-0.980000,-0.420000
49.257643,-0.093208,0.087352,1.027240,2.940000,-6.300000,-1.120000
49.265731,-0.047336,-0.004392,1.098488,-1.960000,-7.980000,-1.400000
49.273818,-0.120048,0.037088,0.837408,3.360000,-14.560000,0.560000
49.281905,0.074176,0.014152,1.044808,-0.420000,-11.060000,-2.800000
49.289992,-0.132248,0.031720,0.930616,0.140000,-7.420000,-0.560000
49.298080,-0.110288,-0.007808,0.924272,1.120000,-16.100000,-0.280000
49.306167,0.000976,0.094672,1.179984,-1.680000,-21.840000,0.840000
49.314254,-0.015128,-0.055144,0.768600,3.080000,-10.500000,-1.960000
49.322342,-0.047336,0.053192,1.165832,0.140000,-17.360001,-0.980000
49.330429,-0.145424,0.020496,0.888648,0.000000,-14.980000,-0.980000
49.338516,-0.009760,0.039040,0.917440,0.140000,-27.719999,1.820000
49.346603,-0.024888,0.015616,1.169736,0.140000,-17.219999,-1.820000
49.354691,-0.059048,0.000488,0.828624,1.680000,-14.840000,-0.140000
49.362778,-0.015616,0.061000,1.086776,-0.420000,-21.700001,-1.120000
49.370865,-0.057096,-0.010736,0.976000,0.560000,-17.780001,-0.840000
49.378953,-0.084424,0.047824,0.948184,0.560000,-20.020000,-0.980000
49.387040,-0.024888,0.021472,1.114592,0.840000,-18.200001,-1.540000
49.395127,-0.096136,-0.005368,0.870104,0.280000,-18.059999,0.700000
49.403214,0.024888,0.048312,1.118496,0.140000,-22.960001,-0.980000
49.411302,-0.051728,0.013664,0.962824,-0.700000,-10.640000,-1.540000
49.419389,-0.016104,0.002928,0.931592,3.360000,-15.260000,-1.400000
49.427476,-0.109312,0.072712,1.146800,-1.540000,-13.300000,-0.980000
49.435564,-0.011712,-0.024400,0.827160,0.560000,-15.680000,-0.980000
49.443651,-0.027816,0.034648,1.097024,1.400000,-11.060000,-0.980000
49.451738,-0.046360,0.068808,1.021872,-1.680000,-5.180000,0.140000
49.459826,-0.026840,-0.060512,0.794464,1.400000,-6.720000,-1.120000
49.467913,-0.021472,0.109312,1.178520,-1.260000,-7.700000,-1.400000
49.476000,-0.070272,-0.060024,0.915488,1.400000,3.500000,-0.560000
49.484087,0.000000,0.095648,0.973560,0.700000,-0.140000,-1.120000
49.492175,-0.052216,-0.033672,1.151680,0.420000,4.060000,-1.680000
49.500262,-0.088816,0.061976,0.823256,1.540000,3.220000,-1.260000
49.508349,0.043432,0.004392,1.061400,0.840000,-0.700000,-1.540000
49.516437,-0.143960,0.014640,0.898408,0.000000,5.740000,-0.560000
49.524524,-0.009760,0.061488,1.087264,2.100000,-3.360000,-1.260000
49.532611,-0.043920,-0.001952,0.940864,-0.840000,4.760000,-1.540000
49.540698,-0.081984,0.014640,0.958920,1.400000,-1.680000,0.560000
49.548786,0.020008,0.041968,1.073112,-0.560000,-0.560000,-2.240000
49.556873,-0.065880,0.015616,0.865712,0.140000,2.800000,-0.420000
49.564960,-0.073200,-0.002440,1.016504,2.520000,-1.820000,-0.280000
49.573048,-0.032208,0.108336,1.125328,-1.260000,2.100000,-0.840000
49.581135,-0.017568,-0.059536,0.675880,0.700000,2.240000,-2.660000
49.589222,-0.065392,0.074176,1.208776,-0.700000,-2.660000,-0.840000
49.597309,-0.070272,-0.002440,0.869128,-0.280000,3.360000,-0.700000
49.605397,-0.001952,0.021960,0.941352,2.380000,-1.540000,-0.980000
49.613484,-0.062464,0.020496,1.110688,-0.420000,3.640000,-1.540000
49.621571,-0.088328,0.012688,0.893040,2.100000,-0.280000,0.560000
49.629659,0.043432,0.084912,1.012600,-0.700000,0.840000,-1.400000
49.637746,-0.077104,-0.047336,0.947208,0.700000,3.080000,-1.680000
49.645833,-0.104920,0.050264,0.984784,2.380000,-0.980000,-0.420000
49.653920,0.033184,0.082960,1.047248,-0.140000,-1.680000,-0.980000
49.662008,-0.083936,-0.065880,0.849608,1.400000,3.780000,-1.120000
49.670095,-0.039040,0.088328,1.124840,1.540000,-2.520000,-1.260000
49.678182,-0.018056,-0.024400,0.907192,0.560000,2.940000,-0.280000
49.686270,-0.062464,0.050264,0.941352,2.240000,-1.120000,0.000000
49.694357,-0.026840,0.000000,1.136552,-0.140000,1.540000,-2.240000
49.702444,-0.081496,0.064416,0.777384,0.840000,2.940000,-0.980000
49.710531,0.001464,-0.015616,1.101416,0.280000,-3.080000,-1.540000
49.718619,-0.054168,0.027816,0.965264,0.280000,5.180000,-1.260000
49.726706,-0.092720,0.042944,0.885720,1.820000,-1.260000,-1.960000
49.734793,0.007320,0.011224,1.107760,-0.700000,0.000000,0.000000
49.742881,-0.112240,0.008784,0.891576,0.980000,3.080000,0.000000
49.750968,0.037088,0.048800,1.047248,0.840000,-1.960000,-1.680000
49.759055,-0.089792,0.010248,0.920856,-0.700000,3.360000,-0.840000
49.767142,-0.016592,0.004880,1.013576,2.940000,-3.080000,-0.840000
49.775230,-0.036112,0.069784,1.042368,-0.840000,3.640000,-2.520000
49.783317,-0.077104,-0.031232,0.870592,1.960000,2.800000,-1.120000
49.791404,-0.031232,0.030256,1.106296,0.560000,-2.520000,0.140000
49.799492,-0.012200,0.080032,0.952088,-0.700000,2.940000,-1.260000
49.807579,-0.041968,-0.067832,0.847656,1.960000,-0.420000,-1.120000
49.815666,-0.089304,0.117608,1.156072,-0.140000,0.280000,-1.960000
49.823753,-0.029280,-0.059048,0.849608,1.120000,1.540000,0.000000
49.831841,-0.025376,0.101992,0.981856,1.820000,-1.260000,-1.540000
49.839928,-0.025864,-0.041968,1.117520,0.560000,1.120000,-1.120000
49.848015,-0.110288,0.068808,0.789096,0.840000,2.660000,-0.280000
49.856103,0.050264,0.039040,1.062864,-0.280000,-2.380000,-1.960000
49.864190,-0.076128,-0.041480,0.903776,-0.420000,4.200000,-0.980000
49.872277,-0.090280,0.068320,0.993568,2.100000,-2.800000,0.140000
49.880364,0.038064,-0.004392,1.029680,-0.140000,0.560000,-0.840000
49.888452,-0.094672,0.041480,0.889624,0.840000,3.220000,-0.280000
49.896539,-0.035624,-0.031720,1.042856,2.520000,-2.520000,-1.260000
49.904626,-0.058072,0.102968,1.027728,-1.260000,1.820000,0.280000
49.912714,0.003416,-0.073688,0.769088,3.080000,0.420000,-1.260000
49.920801,-0.032208,0.068320,1.191696,1.820000,-1.820000,-1.820000
49.928888,-0.075640,0.024400,0.889624,0.000000,4.200000,-1.260000
49.936975,-0.005368,-0.004880,0.873032,2.380000,-1.120000,-0.140000
49.945063,-0.076616,0.058560,1.142896,0.000000,1.680000,-1.680000
49.953150,-0.071248,-0.013664,0.882792,1.820000,2.100000,0.280000
49.961237,0.000976,0.076128,0.998936,0.840000,-1.960000,-0.280000
49.969325,0.016104,-0.036600,1.043832,0.560000,1.260000,-1.540000
49.977412,-0.138592,0.020984,0.892064,2.100000,2.240000,-0.560000
49.985499,0.049776,0.085400,1.010648,0.560000,-2.100000,-1.540000
49.993586,-0.049288,-0.046848,0.952088,0.280000,3.360000,-1.540000
50.001674,-0.103456,0.062464,0.944280,2.100000,-0.560000,-0.840000
50.009761,0.036112,0.000976,1.077016,-0.980000,-0.840000,-1.960000
50.017848,-0.052216,0.021472,0.866200,-0.280000,5.040000,-0.420000
50.025936,-0.088328,-0.015616,1.008696,3.080000,-3.780000,-0.980000
50.034023,0.003416,0.103944,1.103368,-1.400000,2.520000,-1.540000
50.042110,-0.077592,-0.065392,0.775432,1.400000,2.940000,-0.280000
50.050197,-0.000488,0.070272,1.124352,0.700000,-3.360000,0.000000
50.058285,-0.075640,0.019520,1.014552,0.420000,3.500000,-1.400000
50.066372,-0.040016,-0.001952,0.821304,1.820000,0.840000,-0.560000
50.074459,0.008784,0.038552,1.117520,-0.560000,-1.400000,-0.420000
50.082547,-0.075640,0.020496,0.920856,0.140000,3.220000,-2.240000
50.090634,-0.011712,-0.022448,0.924760,1.400000,-0.560000,-0.700000
50.098721,-0.053192,0.067832,1.079944,0.420000,0.280000,-1.680000
50.106808,-0.040504,-0.012200,0.915976,0.280000,3.780000,-0.420000
50.114896,-0.075640,0.023424,0.913048,2.520000,-0.420000,-1.400000
50.122983,-0.012200,0.017080,1.187304,-0.140000,-0.560000,-0.560000
50.131070,-0.075640,0.024888,0.789096,1.960000,2.380000,-0.280000
50.139158,0.008296,0.002928,1.068720,3.220000,-3.220000,-1.540000
50.147245,-0.058072,0.035136,1.035536,-1.120000,4.620000,-0.560000
50.155332,-0.058560,0.019520,0.866688,3.220000,0.560000,-1.120000
50.163419,0.035624,0.015616,0.999424,0.000000,-2.520000,-2.380000
50.171507,-0.122976,0.008296,1.092632,1.400000,2.240000,-0.420000
50.179594,-0.028304,0.033184,0.803736,1.400000,2.100000,-0.700000
50.187681,0.038064,0.022448,1.112640,0.840000,-2.380000,-0.700000
50.195769,-0.125904,-0.007320,0.897432,1.120000,3.500000,-1.400000
50.203856,0.001464,0.049288,1.005280,2.660000,-2.940000,-0.140000
50.211943,-0.007320,0.026352,0.967216,0.980000,3.500000,-3.500000
50.220030,-0.081984,-0.035624,0.991616,1.260000,2.240000,0.700000
50.228118,-0.106872,0.085400,0.937448,2.240000,-0.840000,-0.560000
50.236205,0.069296,0.002928,1.075064,-0.840000,-0.420000,-0.980000
50.244292,-0.113216,0.003416,0.836920,2.520000,3.500000,-1.400000
50.252380,-0.053680,0.015616,1.054080,1.820000,-3.640000,-0.280000
50.260467,0.006832,0.054656,0.989664,-2.100000,1.400000,-0.140000
50.268554,-0.073200,-0.057584,0.877424,2.940000,2.240000,-0.980000
50.276641,-0.038064,0.072224,1.028216,0.840000,-2.940000,0.000000
50.284729,-0.011224,0.027328,1.032120,0.560000,2.100000,-0.560000
50.292816,-0.027328,-0.015128,0.802760,0.560000,3.360000,-1.260000
50.300903,-0.085888,0.005856,1.051152,2.660000,-3.220000,-1.820000
50.308991,-0.002440,0.081008,1.046760,-1.820000,0.840000,-1.540000
50.317078,-0.020496,-0.079056,0.819840,1.120000,2.800000,-0.700000
50.325165,-0.113216,0.074176,1.007232,2.800000,0.420000,-1.400000
50.333252,0.011712,-0.002928,1.092144,-1.820000,-1.540000,0.700000
50.341340,-0.041480,0.019520,0.786168,3.360000,5.740000,-1.400000
50.349427,-0.028304,-0.013664,1.025776,1.680000,-3.640000,-0.560000
50.357514,-0.041480,0.076616,1.033096,1.680000,2.240000,-1.260000
50.365602,-0.053192,-0.041480,0.871080,0.840000,1.820000,-0.280000
50.373689,-0.021472,0.041968,0.983808,2.240000,-1.820000,-0.700000
50.381776,-0.030744,0.028792,1.069208,0.560000,1.680000,-1.960000
50.389863,-0.047336,-0.020984,0.833016,1.120000,1.680000,0.000000
50.397951,-0.093208,0.016592,0.965752,1.960000,-0.420000,-0.840000
50.406038,0.046360,0.040016,1.049688,-0.840000,-3.220000,-0.560000
50.414125,-0.086864,-0.024888,0.887184,2.100000,6.300000,-2.240000
50.422213,-0.066368,0.049776,0.957456,0.980000,-2.800000,-0.140000
50.430300,0.029768,0.020496,1.063352,0.000000,1.400000,-2.100000
50.438387,-0.098576,0.024888,0.876448,0.700000,2.520000,-0.700000
50.446474,-0.029768,-0.069296,0.918904,0.840000,-1.680000,0.000000
50.454562,-0.055632,0.139568,1.127280,0.980000,-0.560000,0.280000
50.462649,0.059048,-0.090280,0.830576,0.140000,2.240000,-1.680000
50.470736,-0.149816,0.048312,0.970144,2.800000,0.700000,-0.280000
50.478824,0.000000,0.037088,1.058472,-1.260000,-1.680000,-1.540000
50.486911,0.023912,-0.017568,0.990640,1.540000,3.920000,-0.980000
50.494998,-0.156648,0.034648,0.810568,2.660000,3.080000,-0.700000
50.503086,0.042456,0.003904,1.118496,0.000000,-4.200000,0.140000
50.511173,-0.074176,0.071736,0.931104,-0.140000,6.160000,-2.380000
50.519260,-0.043432,-0.095160,0.899384,1.260000,-1.960000,-0.560000
50.527347,-0.058072,0.133224,1.009184,0.980000,1.820000,-0.280000
50.535435,0.002440,-0.083448,1.006744,-1.120000,-0.980000,-0.700000
50.543522,-0.103456,0.038552,0.880352,1.680000,2.100000,-0.280000
50.551609,-0.043432,0.051728,1.013088,0.560000,-6.160000,-1.120000
50.559697,0.058072,-0.009760,0.939400,-1.400000,-0.140000,-0.280000
50.567784,-0.143960,-0.005856,0.875960,0.280000,0.980000,-0.980000
50.575871,-0.032208,0.050264,1.008208,1.960000,-11.060000,-1.120000
50.583958,0.036112,-0.002440,1.019920,-1.960000,-3.220000,-1.540000
50.592046,-0.070272,0.020984,0.917440,1.400000,-3.360000,-0.980000
50.600133,-0.064416,-0.017080,0.894504,0.980000,-3.640000,-0.700000
50.608220,0.001464,0.054168,1.081408,0.420000,-9.660000,0.560000
50.616308,-0.068320,-0.045384,0.929640,0.560000,-0.560000,-0.840000
50.624395,-0.036600,0.060512,0.939888,1.960000,-7.000000,-0.140000
50.632482,-0.000488,0.022936,0.974536,1.260000,-3.360000,-2.800000
50.640569,-0.064416,-0.014152,1.060912,-0.700000,-6.160000,0.140000
50.648657,-0.098576,0.068808,0.872056,2.520000,-1.960000,-1.820000
50.656744,0.032208,-0.048800,1.037976,0.280000,-8.680000,-0.980000
50.664831,-0.075152,0.075640,1.015528,-0.280000,-1.540000,-0.980000
50.672919,-0.053192,-0.036112,0.842288,1.120000,-4.200000,-0.420000
50.681006,0.008296,0.019520,1.067744,1.260000,-7.000000,-0.560000
50.689093,-0.053680,0.056608,1.035048,0.000000,1.540000,-1.960000
50.697180,0.019520,-0.034648,0.814960,0.980000,3.920000,-1.260000
50.705268,-0.094672,0.048800,1.028704,1.540000,2.660000,-1.540000
50.713355,-0.012688,0.051728,1.038952,-0.700000,-1.820000,-0.140000
50.721442,-0.009760,-0.069784,0.915976,0.980000,3.780000,-1.400000
50.729530,-0.090280,0.109312,0.960872,2.520000,0.700000,-0.980000
50.737617,0.052704,-0.036112,1.042856,0.000000,1.400000,-2.660000
50.745704,-0.122976,0.032696,0.915488,0.280000,3.080000,-0.140000
50.753791,-0.054656,-0.010248,0.947208,1.820000,-1.680000,-0.980000
50.761879,0.053680,0.051240,1.121424,-0.560000,0.420000,-1.120000
50.769966,-0.113704,-0.013176,0.856928,0.840000,5.600000,-3.080000
50.778053,-0.043432,-0.003416,0.969168,1.400000,-2.520000,0.560000
50.786141,-0.010248,0.079056,1.047736,-0.140000,1.540000,-0.840000
50.794228,-0.027816,-0.056120,0.980880,0.560000,1.820000,-1.820000
50.802315,-0.107848,0.076616,0.893040,0.000000,1.400000,-0.420000
50.810402,0.024888,-0.006344,1.027728,0.420000,-2.240000,-1.960000
50.818490,-0.032696,-0.000488,1.026264,-0.280000,4.200000,-0.840000
50.826577,-0.111752,-0.019520,0.943792,6.580000,1.680000,-0.700000
50.834664,0.056608,0.053192,1.073112,6.860000,-1.820000,-1.260000
50.842752,-0.085888,-0.044896,1.063840,10.360000,3.780000,-0.280000
50.850839,-0.052216,0.064904,0.832040,14.840000,1.260000,-0.980000
50.858926,0.022448,-0.055632,1.085800,13.440001,-1.960000,-1.260000
50.867013,-0.118584,0.092232,0.983320,12.180000,3.080000,0.140000
50.875101,-0.008784,-0.061000,0.902312,14.700000,-0.560000,-0.560000
50.883188,-0.041968,0.049288,1.166320,17.500000,-0.280000,-0.560000
50.891275,-0.085400,0.014640,0.901336,15.680000,3.920000,-0.700000
50.899363,0.011224,0.017080,0.910120,15.960000,-3.220000,1.260000
50.907450,-0.007320,0.039528,1.053592,14.280000,1.120000,-1.680000
50.915537,-0.066368,0.000000,1.027728,12.600000,0.700000,-1.820000
50.923624,-0.086864,0.105896,0.832528,7.000000,4.060000,-1.400000
50.931712,0.052216,-0.036600,0.975024,3.500000,-6.020000,-1.400000
50.939799,-0.070760,0.080520,1.047736,-1.120000,5.040000,-2.240000
50.947886,-0.083448,-0.009272,0.868640,-3.780000,1.820000,-1.540000
50.955974,-0.009760,0.040504,0.998448,-4.060000,-1.120000,0.000000
50.964061,-0.029768,-0.029768,1.159488,-0.840000,2.520000,-0.980000
50.972148,-0.084424,0.028792,0.888160,3.920000,1.120000,-0.420000
50.980235,0.015616,0.015128,0.970632,0.140000,1.820000,-1.960000
50.988323,-0.038552,0.003416,1.092144,-0.420000,-0.700000,-1.120000
50.996410,-0.104920,0.047824,0.906216,1.400000,6.300000,-0.560000
51.004497,0.003904,-0.021960,0.964776,2.800000,-4.480000,-0.420000
51.012585,-0.034160,0.064416,1.089704,0.140000,4.200000,-1.260000
51.020672,-0.055632,-0.027328,0.977464,0.560000,0.280000,0.140000
51.028759,-0.060512,0.086376,0.913048,3.360000,2.520000,-1.680000
51.036846,0.043920,-0.045872,1.134112,-0.980000,-2.800000,-0.840000
51.044934,-0.107848,0.066856,0.924760,3.220000,2.240000,-0.980000
51.053021,-0.006832,-0.008784,1.002840,1.400000,0.140000,-2.800000
51.061108,-0.016592,0.009272,1.093120,-0.280000,-0.420000,-0.700000
51.069196,-0.131272,0.062952,0.896456,1.820000,6.160000,-2.100000
51.077283,0.028304,-0.056608,1.021384,0.980000,-6.860000,0.000000
51.085370,-0.068320,0.113216,1.138992,1.540000,6.440000,-1.680000
51.093457,-0.026352,-0.064416,0.929152,0.560000,-1.260000,-0.700000
51.101545,-0.050752,0.104920,0.984784,2.380000,0.560000,-0.420000
51.109632,0.012688,-0.061000,1.129720,-0.560000,-0.700000,-2.240000
51.117719,-0.098088,0.056120,0.954528,3.220000,2.940000,-1.120000
51.125807,-0.024888,0.041480,0.944280,1.400000,0.700000,-2.100000
51.133894,0.005856,-0.054656,1.125328,-1.400000,-3.640000,1.120000
51.141981,-0.153232,0.110288,0.940864,2.520000,7.140000,-1.120000
51.150069,0.059536,-0.062952,1.015040,1.680000,-6.720000,-0.980000
51.158156,-0.055144,0.104432,1.039440,-0.840000,4.760000,-1.820000
51.166243,-0.078568,-0.077104,0.971120,0.000000,-1.820000,-0.980000
51.174330,0.006832,0.089792,1.079944,2.100000,-0.420000,-0.420000
51.182418,-0.020984,-0.011712,1.050664,-0.140000,2.660000,-2.800000
51.190505,-0.077104,0.005856,0.922320,0.840000,-0.700000,0.420000
51.198592,-0.046848,0.082960,1.088240,-0.700000,2.380000,-2.240000
51.206680,0.022936,-0.082472,1.056032,-0.840000,-1.540000,-1.120000
51.214767,-0.114680,0.115168,0.927688,2.100000,6.020000,-1.820000
51.222854,0.009760,-0.066856,1.104344,0.700000,-6.860000,-0.420000
51.230941,-0.062464,0.099064,1.083848,-0.280000,6.440000,-0.980000
51.239029,-0.002440,-0.048800,0.887672,2.940000,-0.420000,-1.960000
51.247116,-0.052704,0.061000,1.138016,0.420000,-2.100000,0.560000
51.255203,-0.040504,0.027816,1.066768,0.140000,2.240000,-0.560000
51.263291,0.015616,-0.050752,0.874984,3.220000,-1.680000,-0.840000
51.271378,-0.081496,0.141520,1.229760,0.560000,3.220000,-2.520000
51.279465,0.009760,-0.102480,0.954528,0.140000,-1.680000,-1.120000
51.287552,-0.094184,0.130784,0.935984,1.960000,2.800000,-0.840000
51.295640,0.023424,-0.077104,1.231712,0.140000,-2.100000,-2.240000
51.303727,-0.102480,0.076616,0.880840,0.280000,4.340000,0.700000
51.311814,-0.019520,-0.003904,1.163392,3.780000,-1.960000,-1.820000
51.319902,0.000000,0.006344,1.131184,0.840000,-0.140000,-0.560000
51.327989,-0.068808,0.009760,0.987712,9.100000,5.320000,-2.240000
51.336076,0.033184,-0.021472,1.226344,11.620000,-4.060000,-0.700000
51.344163,-0.105408,0.067344,0.990640,15.540000,5.740000,-1.400000
51.352251,-0.023912,0.001952,0.935008,12.600000,-0.840000,-1.960000
51.360338,-0.021960,0.056608,1.094096,5.880000,-2.940000,-0.280000
51.368425,-0.043920,-0.008296,1.090680,8.960000,6.160000,-1.960000
51.376513,-0.035136,-0.008784,0.944280,11.060000,-5.320000,-0.280000
51.384600,-0.026840,0.068320,1.202920,8.400000,5.600000,-2.240000
51.392687,-0.072712,-0.003416,0.916464,4.900000,-1.260000,-0.560000
51.400774,0.006344,0.032208,1.127280,5.460000,0.280000,-1.260000
51.408862,-0.062464,0.101504,1.103856,0.560000,4.060000,-2.240000
51.416949,-0.036600,-0.100528,0.889136,0.560000,-2.660000,-0.560000
51.425036,0.002440,0.164944,1.112640,-3.080000,2.520000,-0.700000
51.433124,-0.016592,-0.146400,1.043344,-0.560000,0.700000,-2.800000
51.441211,-0.105896,0.148840,0.996984,0.560000,0.700000,-0.420000
51.449298,-0.002440,-0.024888,1.290760,-2.380000,0.420000,-3.500000
51.457385,-0.069784,-0.003416,0.838872,-0.700000,1.960000,0.000000
51.465473,0.015616,0.041968,1.237568,0.840000,-0.280000,-1.960000
51.473560,-0.042944,-0.018056,0.953552,-1.260000,2.800000,0.000000
51.481647,-0.046360,0.065392,1.111664,2.100000,-1.120000,-1.260000
51.489735,-0.041968,0.041480,1.182912,-2.240000,5.040000,-1.820000
51.497822,-0.004392,-0.079544,0.831552,0.980000,-2.380000,-1.260000
51.505909,-0.043920,0.138592,1.310280,-0.140000,2.800000,-1.960000
51.513997,-0.030744,-0.086864,0.906704,-0.420000,-1.400000,-0.980000
51.522084,-0.074176,0.131272,1.214632,2.520000,2.940000,-1.260000
51.530171,0.033184,-0.061976,1.009672,-2.100000,-0.840000,-1.820000
51.538258,-0.057584,0.034648,0.987224,2.100000,0.140000,0.840000
51.546346,-0.036112,0.108824,1.305400,-0.700000,2.520000,-3.640000
51.554433,-0.043920,-0.113216,0.791048,1.120000,-0.980000,-0.700000
51.562520,-0.014640,0.156648,1.274656,-0.140000,0.140000,-2.380000
51.570608,-0.030256,-0.117120,0.927688,0.420000,1.960000,-0.840000
51.578695,-0.029768,0.157624,1.218048,1.400000,0.980000,-2.660000
51.586782,0.041480,-0.083448,1.028216,-1.540000,10.640000,-2.800000
51.594869,-0.075152,0.059048,1.005768,2.240000,13.020000,-0.700000
51.602957,-0.014152,0.049288,1.162416,-0.700000,19.740000,-1.820000
51.611044,0.002928,-0.083448,0.903776,0.560000,14.140000,-0.140000
51.619131,0.005368,0.169336,1.237568,0.140000,19.879999,-3.220000
51.627219,-0.042456,-0.099064,0.948184,-0.280000,24.360001,-2.800000
51.635306,-0.106384,0.128832,1.078968,1.400000,21.840000,-1.120000
51.643393,0.004880,-0.038064,1.108248,-2.100000,17.780001,-1.400000
51.651480,-0.066368,0.028792,0.860832,1.260000,16.660000,0.700000
51.659568,0.000488,0.024400,1.297104,-1.540000,19.320000,-3.080000
51.667655,-0.067344,0.004392,0.815936,0.000000,18.340000,0.000000
51.675742,-0.017568,0.041480,1.264896,0.280000,14.700000,-3.640000
51.683830,-0.088328,-0.035624,0.862296,-0.420000,11.900000,1.400000
51.691917,0.038064,0.094184,1.200480,1.680000,6.020000,-3.360000
51.700004,-0.146888,-0.052216,0.945256,-1.120000,4.060000,-0.280000
51.708091,0.031720,0.119072,1.161440,2.660000,-1.820000,-2.240000
51.716179,-0.065880,-0.084912,0.961848,-0.700000,-2.380000,-1.540000
51.724266,-0.050264,0.152744,1.129232,2.800000,-10.640000,-0.840000
51.732353,0.036600,-0.084912,1.067256,-1.260000,5.180000,-2.800000
51.740441,-0.086376,0.070760,0.959896,3.220000,-4.060000,-0.140000
51.748528,-0.025376,0.054168,1.244888,-0.700000,3.360000,-1.540000
51.756615,0.014152,-0.077592,0.828624,1.680000,-2.940000,-0.560000
51.764702,-0.069784,0.148352,1.269288,0.280000,6.300000,-1.960000
51.772790,-0.033184,-0.104920,0.830088,0.980000,-0.980000,0.840000
51.780877,0.003416,0.119560,1.231712,0.280000,1.820000,-1.820000
51.788964,-0.060024,-0.049288,0.950136,-1.540000,0.980000,-0.980000
51.797052,-0.022448,0.105896,1.138992,2.940000,1.680000,-1.680000
51.805139,-0.009760,-0.048800,1.034072,-2.100000,2.240000,-2.380000
51.813226,-0.104920,0.086376,0.956968,0.980000,-1.680000,-0.700000
51.821314,0.040016,-0.018056,1.238056,-0.840000,4.200000,-3.080000
51.829401,-0.082960,0.028792,0.833504,1.260000,0.140000,0.140000
51.837488,-0.002440,0.063928,1.212192,-0.700000,2.800000,-3.080000
51.845575,-0.064416,-0.047336,0.902800,0.840000,0.980000,0.140000
51.853663,-0.030744,0.100040,1.194136,2.800000,0.980000,-3.500000
51.861750,-0.039040,-0.035136,0.897920,0.000000,0.980000,1.400000
51.869837,0.025376,0.060512,1.198040,2.380000,0.000000,-3.360000
51.877925,-0.115168,-0.040504,0.931104,-0.840000,2.800000,0.280000
51.886012,0.002928,0.111752,1.172176,3.080000,-2.660000,-0.420000
51.894099,0.003904,-0.047824,0.943792,-0.280000,5.600000,-0.980000
51.902186,-0.077592,0.037088,1.050176,4.200000,-1.120000,-2.380000
51.910274,-0.061488,0.068320,1.175104,-1.120000,2.520000,-0.420000
51.918361,0.050752,-0.040992,0.832528,2.800000,-2.800000,-1.120000
51.926448,-0.077104,0.081984,1.288808,0.420000,3.920000,-2.240000
51.934536,-0.062464,-0.022448,0.837896,2.240000,0.000000,-0.840000
51.942623,-0.010248,0.093696,1.196088,0.000000,0.280000,-1.400000
51.950710,-0.091256,-0.049288,0.902800,0.980000,1.820000,0.560000
51.958797,0.040504,0.065392,1.182424,1.820000,-0.980000,-2.240000
51.966885,-0.124928,-0.018056,0.962824,1.540000,3.500000,-0.700000
51.974972,0.062464,0.015616,1.141920,5.880000,-1.820000,-1.540000
51.983059,-0.115168,-0.002928,1.051640,9.520000,4.340000,-0.980000
51.991147,0.018544,0.058072,1.031144,9.940000,-1.960000,-1.820000
51.999234,-0.036600,-0.017080,1.110688,9.520000,4.200000,-1.680000
52.007321,-0.073688,0.041480,0.904264,11.340000,-3.080000,0.420000
52.015408,-0.000976,0.018056,1.284904,10.360000,1.400000,-0.840000
52.023496,-0.018056,0.040016,0.745664,11.060000,1.960000,-1.120000
52.031583,-0.040504,-0.019520,1.302960,10.080000,-1.400000,-1.260000
52.039670,-0.100040,0.072224,0.825696,12.320000,3.080000,-0.280000
52.047758,0.052704,-0.011712,1.228296,8.960000,-2.100000,-2.380000
52.055845,-0.149328,0.098576,0.870592,9.660000,4.760000,-0.980000
52.063932,0.070272,-0.026352,1.099952,4.760000,-6.440000,-0.700000
52.072019,-0.056120,0.113216,0.964288,-2.660000,4.620000,-1.680000
52.080107,-0.072224,-0.077592,0.993080,-2.660000,-0.280000,-2.100000
52.088194,-0.026352,0.136152,1.254160,-0.280000,0.980000,-0.980000
52.096281,-0.047336,-0.127368,0.794464,3.500000,1.260000,-0.280000
52.104369,-0.041968,0.179584,1.260504,-0.700000,-1.400000,-0.980000
52.112456,-0.030256,-0.109800,0.882304,1.260000,2.520000,-1.260000
52.120543,-0.024400,0.137128,1.196576,1.540000,-1.960000,-1.540000
52.128630,-0.051240,-0.083448,0.851072,2.380000,4.200000,0.420000
52.136718,-0.007808,0.103944,1.260016,1.120000,-3.920000,-0.700000
52.144805,-0.064416,-0.020984,0.837896,-1.960000,5.880000,-1.400000
52.152892,-0.042456,0.050752,1.215120,3.360000,-5.180000,-1.820000
52.160980,-0.041480,0.033184,0.896456,-1.680000,7.000000,-1.400000
52.169067,-0.049776,-0.040504,1.042368,2.520000,-4.620000,0.140000
52.177154,-0.059536,0.131272,1.146312,-1.120000,4.760000,-1.260000
52.185242,0.020008,-0.091744,0.899384,1.680000,-3.640000,-0.280000
52.193329,-0.055632,0.140544,1.149240,-0.560000,3.500000,-1.260000
52.201416,-0.023912,-0.121024,0.888648,0.420000,0.980000,0.140000
52.209503,-0.028304,0.143960,1.166320,0.560000,-0.560000,-2.800000
52.217591,-0.078080,-0.078568,0.916952,0.980000,2.800000,-1.120000
52.225678,-0.013176,0.136152,1.118984,0.140000,-2.100000,-1.400000
52.233765,-0.014640,-0.097112,0.888160,0.140000,5.180000,-1.260000
52.241853,-0.111752,0.134200,1.058960,0.700000,-2.380000,-0.700000
52.249940,0.013176,-0.037088,1.122400,-0.420000,2.800000,-2.100000
52.258027,-0.097112,0.075640,0.820816,1.400000,-0.840000,-0.280000
52.266114,0.061488,-0.038552,1.190720,-0.140000,0.560000,-1.120000
52.274202,-0.148840,0.062464,0.827648,1.960000,5.180000,-0.420000
52.282289,0.039040,-0.016104,1.168272,0.560000,-3.080000,-1.260000
52.290376,-0.129320,0.079056,0.887184,0.840000,4.340000,-0.140000
52.298464,0.027816,-0.015616,1.091656,1.260000,-3.080000,-1.400000
52.306551,-0.067344,0.056120,0.914512,-0.840000,5.040000,-0.140000
52.314638,-0.034648,-0.061976,0.966240,3.640000,-4.200000,0.140000
52.322725,-0.047824,0.142496,1.144360,-0.560000,2.100000,0.140000
52.330813,0.011224,-0.101504,0.835456,3.080000,-0.420000,-1.260000
52.338900,-0.063928,0.172264,1.098976,-0.560000,1.680000,-2.800000
52.346987,-0.055144,-0.129320,0.883280,1.820000,0.980000,-0.560000
52.355075,-0.011224,0.131760,1.054568,1.260000,-1.120000,-1.260000
52.363162,-0.043432,-0.056120,0.971608,0.280000,2.660000,-1.960000
52.371249,-0.093696,0.088328,0.895968,1.820000,-1.120000,-0.560000
52.379336,-0.028792,0.029768,1.170712,-0.700000,0.980000,-1.120000
52.387424,-0.043920,-0.007808,0.752984,0.140000,2.380000,0.000000
52.395511,0.036112,0.047824,1.119472,1.260000,-1.680000,-1.820000
52.403598,-0.106872,-0.030256,0.789096,-0.560000,4.060000,-0.980000
52.411686,-0.018544,0.081984,1.094584,0.840000,-3.780000,-1.400000
52.419773,-0.055632,-0.035624,1.002352,-1.400000,6.020000,-1.680000
52.427860,-0.085400,0.076128,0.893040,3.220000,-1.120000,-0.420000
52.435947,0.045872,-0.010248,1.038952,-0.560000,0.280000,-1.120000
52.444035,-0.117608,0.069784,0.899384,0.840000,2.380000,0.000000
52.452122,0.086376,-0.046848,1.003816,0.840000,-0.840000,-2.520000
52.460209,-0.142496,0.073688,0.956480,0.700000,3.640000,-1.120000
52.468297,-0.000488,-0.024400,0.907192,1.400000,-2.520000,-1.260000
52.476384,-0.064904,0.110776,1.154120,-0.560000,1.820000,-1.260000
52.484471,-0.074664,-0.031232,0.793488,1.820000,3.640000,-1.960000
52.492558,0.033672,0.068320,0.992104,-0.980000,-2.380000,0.000000
52.500646,-0.101504,-0.042944,0.865224,-0.140000,5.600000,-1.120000
52.508733,0.007808,0.046848,0.967704,0.840000,-3.360000,-1.260000
52.516820,-0.071736,0.014640,1.057984,-0.140000,2.940000,-2.100000
52.524908,-0.020984,-0.008296,0.835944,0.000000,0.280000,0.560000
52.532995,-0.043920,0.095648,1.080432,-0.420000,-0.980000,-0.980000
52.541082,-0.043920,-0.019520,0.867664,-0.420000,3.220000,-0.700000
52.549170,-0.087840,0.087352,1.007720,1.260000,-0.980000,-1.820000
52.557257,0.022936,-0.006832,0.945256,-1.960000,1.400000,-0.560000
52.565344,-0.042944,-0.020008,0.809592,2.520000,1.820000,-0.700000
52.573431,-0.015128,0.040504,1.065304,-1.820000,0.280000,-2.520000
52.581519,-0.069784,-0.009760,0.877912,0.560000,3.360000,-0.420000
52.589606,-0.030744,0.057584,1.006744,0.980000,-2.240000,-1.960000
52.597693,-0.036112,0.053680,1.053104,-0.980000,2.940000,-0.560000
52.605781,-0.094184,0.000488,0.796416,2.520000,1.120000,-2.100000
52.613868,-0.056608,0.064416,1.173152,-0.700000,-0.420000,0.140000
52.621955,-0.028304,-0.030744,0.742248,2.240000,2.940000,-0.280000
52.630042,0.066856,0.052216,1.072624,-0.140000,-1.260000,-1.680000
52.638130,-0.127856,-0.012200,0.861320,0.140000,6.300000,-1.960000
52.646217,0.007808,0.019520,0.981368,3.220000,-5.600000,-0.700000
52.654304,-0.065392,0.061976,1.046272,0.980000,4.620000,-0.840000
52.662392,-0.047336,-0.017080,0.852048,1.960000,-0.280000,-0.840000
52.670479,-0.070272,0.087840,1.160952,-0.980000,0.980000,-1.540000
52.678566,-0.071248,-0.016104,0.773968,0.980000,2.520000,0.000000
52.686653,0.040992,0.059048,1.120936,-0.700000,-3.780000,-0.560000
52.694741,-0.040504,0.027328,0.852048,1.820000,6.020000,-1.960000
52.702828,-0.059536,-0.015128,0.890600,1.120000,-4.060000,-0.980000
52.710915,-0.049776,0.083936,1.123376,-0.140000,2.800000,-1.400000
52.719003,-0.002440,-0.077592,0.756888,1.820000,1.260000,-0.980000
52.727090,-0.095160,0.135176,1.179496,0.280000,-0.140000,-2.520000
52.735177,-0.067344,-0.069784,0.835944,0.140000,2.940000,-0.140000
52.743264,-0.010248,0.128344,1.009672,-0.140000,-2.380000,-0.420000
52.751352,-0.015616,-0.018544,0.990152,1.260000,1.540000,-1.120000
52.759439,-0.027328,0.007808,0.805200,2.660000,-1.260000,-1.680000
52.767526,-0.061488,0.068808,1.089216,0.140000,1.680000,-2.100000
52.775614,-0.031720,-0.098088,0.799832,0.140000,3.220000,-0.420000
52.783701,-0.046848,0.134200,1.112152,2.240000,-1.680000,-0.980000
52.791788,-0.040016,-0.057096,0.860832,-1.680000,2.660000,-0.840000
52.799875,-0.105896,0.107360,1.002840,2.520000,-3.780000,0.420000
52.807963,0.001952,0.030256,1.039928,-1.120000,1.540000,-1.400000
52.816050,-0.038552,0.007320,0.791048,1.960000,-0.140000,-0.980000
52.824137,-0.023424,0.024400,1.075064,1.120000,-1.820000,-1.820000
52.832225,-0.037576,0.023424,0.851560,0.000000,3.220000,-0.560000
52.840312,-0.057584,-0.032208,0.991616,2.660000,-2.380000,-1.820000
52.848399,-0.035624,0.110776,1.080432,-0.700000,3.220000,-1.120000
52.856486,-0.059048,-0.043920,0.808616,1.960000,-0.700000,-1.260000
52.864574,-0.004880,0.104920,1.149240,-0.420000,-1.680000,-1.820000
52.872661,-0.058560,-0.015128,0.801296,1.400000,4.060000,-1.260000
52.880748,-0.014152,0.009760,0.990152,0.140000,-3.080000,-0.840000
52.888836,-0.052704,0.048312,1.070672,0.420000,3.360000,-1.540000
52.896923,-0.028792,-0.042944,0.780800,0.840000,-2.380000,-0.280000
52.905010,-0.087352,0.131760,1.217560,0.420000,0.560000,-2.100000
52.913098,-0.047336,-0.059048,0.727608,-0.140000,4.060000,-0.140000
52.921185,-0.006832,0.104920,1.087752,0.280000,-5.040000,0.840000
52.929272,0.000976,-0.021472,0.910120,-0.420000,4.760000,-1.680000
52.937359,-0.061488,0.034160,0.835944,0.980000,-1.400000,-1.260000
52.945447,-0.074664,0.028792,1.134112,-1.260000,-1.120000,-1.540000
52.953534,-0.059536,0.025864,0.863760,-0.140000,2.800000,0.000000
52.961621,-0.000976,0.039528,1.052616,1.260000,-2.240000,-1.680000
52.969709,-0.038552,0.035136,0.970632,-0.560000,4.480000,-0.420000
52.977796,-0.015616,0.001952,0.801784,1.820000,-1.260000,-0.980000
52.985883,-0.031232,0.032208,1.137528,-1.680000,0.980000,-1.260000
52.993970,-0.114192,0.013664,0.874008,2.660000,3.500000,-0.700000
53.002058,0.041480,0.056120,1.051152,-0.140000,-3.360000,-1.820000
53.010145,-0.120048,0.038064,0.989664,0.840000,4.760000,-0.980000
53.018232,0.020984,-0.019520,0.845216,1.260000,-1.680000,-0.980000
53.026320,-0.024400,0.065880,1.180472,0.280000,2.100000,-1.680000
53.034407,-0.093696,-0.071248,0.764696,3.220000,2.520000,-1.120000
53.042494,-0.011712,0.157136,1.211216,-0.140000,-4.060000,0.140000
53.050581,-0.080032,-0.078568,0.846680,1.680000,5.880000,-1.540000
53.058669,-0.010736,0.125904,1.061400,1.120000,-2.380000,-0.700000
53.066756,-0.008784,-0.073200,0.959896,1.540000,5.460000,-1.820000
53.074843,-0.101016,0.094184,0.954040,3.080000,-2.380000,0.420000
53.082931,-0.007808,0.026352,1.134112,-0.840000,1.820000,-2.100000
53.091018,-0.100040,0.016104,0.843752,1.820000,1.120000,0.000000
53.099105,0.043920,0.041968,1.053592,0.980000,-0.840000,-2.520000
53.107192,-0.097600,0.000976,0.949160,1.260000,1.540000,1.260000
53.115280,-0.009760,0.065880,1.086288,2.240000,-1.120000,-2.520000
53.123367,-0.066368,0.034648,1.023336,-1.400000,3.080000,-0.840000
53.131454,-0.036600,0.003416,0.847656,3.080000,-0.140000,-1.400000
53.139542,-0.012688,0.053680,1.208776,-0.840000,0.420000,-0.700000
53.147629,-0.051728,-0.023912,0.822768,3.220000,2.660000,-2.240000
53.155716,-0.058072,0.090768,1.158024,-0.700000,-0.840000,-1.540000
53.163803,-0.083448,-0.011712,0.817888,0.000000,2.660000,0.140000
53.171891,0.020496,0.025864,1.130208,1.960000,-2.660000,-0.840000
53.179978,-0.099064,0.048800,0.985272,-0.700000,3.780000,-1.260000
53.188065,0.002928,0.016592,0.999912,2.100000,-3.780000,-1.260000
53.196153,-0.066368,0.093208,1.105320,-1.400000,3.920000,-1.960000
53.204240,0.011712,-0.107848,0.844240,2.240000,-1.260000,-0.280000
53.212327,-0.144448,0.157624,1.214632,2.520000,2.240000,-2.100000
53.220414,-0.013664,-0.075152,0.823744,1.540000,0.000000,0.560000
53.228502,-0.006832,0.102480,1.135088,2.380000,-1.260000,-1.260000
53.236589,-0.039040,-0.070272,1.009672,3.360000,3.500000,-1.260000
53.244676,-0.085400,0.110288,1.045296,7.700000,-2.660000,-1.540000
53.252764,0.028304,-0.017568,0.983808,4.760000,1.960000,-0.980000
53.260851,-0.082472,0.065880,0.919880,5.880000,0.420000,-0.840000
53.268938,-0.057096,0.003904,1.199016,3.640000,1.400000,-0.980000
53.277025,-0.069296,0.053680,0.832040,5.740000,1.680000,-0.420000
53.285113,0.029280,-0.015128,1.070184,4.060000,-2.800000,-1.820000
53.293200,-0.103456,0.109312,0.951112,-0.980000,6.020000,-0.840000
53.301287,-0.043920,-0.045872,1.116056,2.800000,-4.200000,-0.700000
53.309375,-0.008296,0.144448,1.036512,-0.140000,4.480000,-0.420000
53.317462,-0.021960,-0.118584,0.858392,2.240000,-2.520000,-0.840000
53.325549,-0.090768,0.175680,1.221464,-1.120000,4.620000,-2.380000
53.333637,-0.053680,-0.099552,0.862296,0.700000,0.560000,-1.260000
53.341724,0.011224,0.120536,1.091168,1.260000,-1.260000,-0.140000
53.349811,-0.077592,-0.067344,1.009672,1.120000,4.620000,-0.980000
53.357898,-0.036112,0.145424,1.075552,2.100000,-1.820000,-1.400000
53.365986,-0.042456,-0.055632,1.003816,-1.400000,3.920000,-1.120000
53.374073,-0.036112,0.062952,0.944768,1.540000,-3.920000,0.560000
53.382160,-0.054168,0.003416,1.222440,0.980000,5.320000,-3.220000
53.390248,-0.075152,0.065392,0.773968,1.680000,-0.980000,0.280000
53.398335,0.020984,-0.017080,1.202432,0.980000,0.140000,-0.700000
53.406422,-0.116632,0.072712,0.928176,-0.420000,1.680000,1.120000
53.414509,0.012200,-0.015616,1.118008,1.540000,-1.400000,-2.940000
53.422597,-0.059048,0.079056,0.930616,-1.400000,1.960000,0.140000
53.430684,-0.050752,-0.039040,1.048224,3.220000,-3.360000,-0.560000
53.438771,-0.051728,0.124928,1.159000,-1.260000,2.380000,-0.140000
53.446859,-0.038552,-0.070760,0.814472,1.120000,-0.280000,-0.980000
53.454946,-0.002440,0.087840,1.159000,-1.260000,-0.980000,-1.260000
53.463033,-0.099552,-0.024400,0.939888,1.260000,3.080000,-1.400000
53.471120,0.021472,0.073200,1.062864,1.960000,-4.060000,-0.980000
53.479208,-0.060024,0.003416,1.026264,-1.400000,4.480000,-2.380000
53.487295,-0.075640,0.002928,0.888648,2.380000,-2.520000,0.000000
53.495382,-0.021960,0.095160,1.246840,0.000000,1.680000,-2.240000
53.503470,-0.034648,-0.050752,0.785192,1.820000,1.260000,-0.420000
53.511557,-0.048800,0.068320,1.179984,2.100000,-0.980000,-1.820000
53.519644,-0.066368,0.030256,0.924272,-1.680000,2.940000,0.000000
53.527731,-0.008296,0.008784,1.027240,4.480000,0.000000,-2.240000
53.535819,-0.054656,0.060512,1.082872,-1.400000,1.680000,-0.980000
53.543906,-0.057584,-0.053680,0.880352,2.940000,0.280000,-0.700000
53.551993,-0.040504,0.132736,1.173152,0.280000,-1.120000,-1.680000
53.560081,-0.021960,-0.086376,0.884744,1.680000,3.220000,-0.420000
53.568168,-0.059048,0.103456,1.151680,2.520000,-2.520000,-1.400000
53.576255,-0.042944,-0.002928,1.020408,0.140000,2.800000,0.140000
53.584342,-0.045384,0.040016,0.895480,2.380000,0.420000,-0.980000
53.592430,-0.020008,0.038064,1.204384,-0.840000,0.560000,-2.240000
53.600517,-0.099064,0.007320,0.813984,1.400000,2.100000,-0.980000
53.608604,0.018544,0.073200,1.224880,-0.280000,-3.360000,-0.840000
53.616692,-0.102968,-0.023424,0.879376,0.420000,6.580000,-1.120000
53.624779,-0.015128,0.061000,1.198528,2.520000,-4.200000,-0.840000
53.632866,-0.044408,0.030256,0.885232,-1.260000,5.320000,-0.560000
53.640953,-0.042944,-0.015616,1.057008,2.660000,-4.340000,0.140000
53.649041,-0.050264,0.118584,1.124840,-1.960000,4.620000,-1.260000
53.657128,0.003904,-0.093208,0.883280,3.360000,-2.380000,-1.400000
53.665215,-0.066856,0.164944,1.138992,-1.540000,2.660000,-1.960000
53.673303,-0.072712,-0.104920,0.948672,1.260000,1.820000,-0.700000
53.681390,-0.037088,0.185440,1.114104,-0.140000,0.420000,-2.940000
53.689477,-0.037088,-0.130296,0.959896,-0.560000,1.540000,-0.280000
53.697565,-0.101992,0.161528,1.050176,0.840000,0.280000,0.280000
53.705652,0.009272,-0.070760,1.112152,-0.560000,1.680000,-0.700000
53.713739,-0.040504,0.077104,0.805688,2.520000,1.120000,-1.120000
53.721826,-0.054656,-0.000488,1.258064,-0.700000,-0.560000,-2.100000
53.729914,-0.064416,0.063928,0.842288,0.140000,4.620000,0.140000
53.738001,0.015616,0.000488,1.181936,0.700000,-1.120000,-2.240000
53.746088,-0.119072,0.046848,0.877912,-0.140000,5.460000,-0.280000
53.754176,-0.029768,0.033672,1.161928,1.260000,-5.320000,-1.120000
53.762263,0.020984,0.038552,0.956480,-1.400000,5.460000,-0.980000
53.770350,-0.098088,-0.021960,0.993080,3.080000,-1.120000,-2.240000
53.778437,-0.051240,0.112728,1.178520,-1.960000,1.960000,-0.140000
53.786525,-0.007320,-0.080520,0.799832,2.380000,0.000000,-1.260000
53.794612,-0.054656,0.129808,1.227808,-0.980000,0.980000,-0.700000
53.802699,-0.069784,-0.053680,0.833016,1.400000,3.220000,-2.100000
53.810787,-0.036112,0.113704,1.156072,-0.700000,-2.800000,-0.140000
53.818874,-0.027816,-0.041480,0.936472,0.420000,4.200000,-1.120000
53.826961,-0.083448,0.093208,1.084824,1.680000,-2.940000,-0.560000
53.835048,0.030256,0.007320,0.996008,-2.660000,2.520000,-2.380000
53.843136,-0.073688,0.005368,0.917440,1.540000,-1.540000,-0.140000
53.851223,-0.036600,0.095648,1.195112,-1.400000,1.960000,-3.080000
53.859310,-0.075152,-0.058072,0.826672,1.540000,1.540000,0.280000
53.867398,-0.011224,0.100528,1.159488,0.280000,-2.240000,-1.540000
53.875485,-0.052704,-0.018056,0.930128,0.280000,4.480000,0.000000
53.883572,-0.050752,0.089792,1.099952,1.680000,-1.120000,-2.100000
53.891659,0.023912,-0.042456,1.022360,-0.140000,2.240000,-1.400000
53.899747,-0.166408,0.108824,0.947208,1.820000,-0.700000,-1.260000
53.907834,0.078080,-0.033672,1.159000,-1.540000,-0.700000,-0.560000
53.915921,-0.162016,0.067832,0.849608,3.640000,1.960000,-0.840000
53.924009,0.059048,0.014152,1.206824,-0.280000,-2.940000,-0.140000
53.932096,-0.100040,0.046360,0.858392,1.680000,4.060000,-0.560000
53.940183,0.063440,-0.004392,1.170712,0.980000,-2.940000,-3.080000
53.948270,-0.150792,0.090768,0.906216,-0.140000,5.740000,-1.120000
53.956358,0.043920,-0.039040,1.077016,1.400000,-4.760000,-0.420000
53.964445,-0.082472,0.122976,1.046760,-1.260000,6.860000,-1.820000
53.972532,-0.032208,-0.056120,0.957456,2.100000,-3.080000,-2.240000
53.980620,-0.035136,0.123952,1.142896,-1.260000,3.080000,-1.540000
53.988707,-0.091256,-0.055632,0.874984,1.400000,-0.560000,-0.700000
53.996794,0.018056,0.145424,1.161928,-1.820000,2.940000,-1.680000
54.004882,-0.112240,-0.115656,0.867664,1.540000,0.700000,-1.260000
54.012969,0.031720,0.176168,1.147776,-1.540000,-0.140000,-1.400000
54.021056,-0.111264,-0.093208,0.909632,0.420000,5.040000,-1.400000
54.029143,0.006344,0.139568,1.138504,0.420000,-2.660000,-0.560000
54.037231,-0.106384,-0.035136,0.912072,0.700000,3.780000,-1.260000
54.045318,0.000976,0.097112,1.100928,0.560000,-5.740000,-0.840000
54.053405,-0.103456,-0.020496,0.938424,-0.700000,-4.760000,-1.400000
54.061493,-0.000976,0.079544,1.079944,1.260000,-16.379999,-0.700000
54.069580,-0.048312,0.027328,1.044320,-0.700000,-1.400000,-2.660000
54.077667,-0.058072,0.001952,0.922320,2.940000,-7.140000,0.140000
54.085754,-0.042944,0.108336,1.207800,-1.120000,-2.380000,-1.540000
54.093842,0.017568,-0.076128,0.722240,1.540000,-7.560000,-0.420000
54.101929,-0.111752,0.138592,1.342976,-0.280000,-1.820000,-1.820000
54.110016,-0.012200,-0.065880,0.704184,1.400000,-3.500000,0.560000
54.118104,-0.044896,0.132248,1.234152,-0.420000,-7.700000,-1.120000
54.126191,-0.053192,-0.056608,0.852536,0.140000,-3.640000,-0.140000
54.134278,0.035136,0.126392,1.179496,0.420000,-2.940000,-0.980000
54.142365,-0.026840,-0.059048,0.935496,-0.840000,10.360000,-0.980000
54.150453,-0.107848,0.110288,1.026752,1.820000,2.240000,-0.420000
54.158540,0.004392,0.008296,1.053104,-0.280000,3.080000,-0.840000
54.166627,-0.074664,0.023424,0.867664,1.680000,0.000000,-0.980000
54.174715,-0.038064,0.087352,1.217072,-1.120000,4.200000,-1.400000
54.182802,-0.057096,-0.032696,0.795440,0.980000,-0.980000,-0.700000
54.190889,0.004880,0.114192,1.199992,0.000000,-0.700000,-3.220000
54.198976,-0.137128,-0.062464,0.843752,0.420000,1.400000,0.700000
54.207064,0.078568,0.130784,1.184376,0.280000,-1.820000,-2.100000
54.215151,-0.159576,-0.074176,0.896456,1.120000,4.060000,-0.140000
54.223238,0.027328,0.136640,1.166808,1.260000,-4.900000,-0.700000
54.231326,-0.064904,-0.058560,0.886696,0.000000,4.760000,-0.980000
54.239413,-0.053192,0.108336,1.164856,2.660000,-2.940000,-2.240000
54.247500,-0.047824,-0.024400,0.926712,-1.680000,3.920000,-0.140000
54.255587,-0.025864,0.071248,1.080432,3.080000,-4.480000,-0.560000
54.263675,-0.017568,0.023912,1.083848,-1.260000,5.460000,-2.520000
54.271762,-0.100528,0.063928,0.927200,3.780000,-3.920000,-1.260000
54.279849,0.002928,0.011712,1.165832,-1.540000,2.240000,-1.680000
54.287937,-0.070760,0.042456,0.840824,2.100000,-1.820000,0.140000
54.296024,-0.018056,0.040504,1.265384,0.280000,2.660000,-2.800000
54.304111,-0.068320,0.021960,0.722728,2.100000,-1.260000,0.000000
54.312199,-0.032696,0.066856,1.328336,-0.840000,0.280000,-3.360000
54.320286,-0.043920,0.003904,0.746640,1.120000,4.200000,-0.560000
54.328373,-0.048800,0.043920,1.265872,2.240000,-2.800000,-2.100000
54.336460,-0.064904,0.050264,0.807640,-1.540000,3.780000,0.420000
54.344548,0.000000,-0.003416,1.234152,2.800000,-3.780000,-3.220000
54.352635,-0.077104,0.087352,0.897432,-0.560000,6.300000,-1.260000
54.360722,-0.044408,-0.019520,1.145824,2.940000,-5.600000,-2.240000
54.368810,-0.051728,0.085888,0.933056,-0.840000,6.860000,-0.420000
54.376897,-0.028792,-0.028304,1.113616,3.780000,-4.900000,-2.380000
54.384984,-0.057584,0.132248,0.976488,-0.980000,7.560000,-1.120000
54.393071,-0.053680,-0.093696,0.996008,2.660000,-6.020000,0.000000
54.401159,-0.032208,0.161528,1.105320,-0.420000,5.740000,-1.540000
54.409246,-0.067832,-0.061976,0.944280,1.540000,-3.920000,-1.260000
54.417333,-0.027816,0.147864,1.144360,0.000000,4.900000,-1.400000
54.425421,-0.081984,-0.088816,0.867176,1.400000,-2.660000,-0.700000
54.433508,-0.037088,0.173728,1.227808,-1.260000,2.520000,-2.100000
54.441595,-0.038064,-0.102968,0.809104,0.560000,-0.560000,-1.680000
54.449682,-0.043432,0.155184,1.257088,-0.420000,1.680000,-1.680000
54.457770,-0.073688,-0.085888,0.801784,2.660000,1.540000,-0.700000
54.465857,-0.027328,0.177144,1.238056,-1.540000,0.560000,-1.960000
54.473944,-0.036600,-0.110776,0.815936,1.540000,1.820000,-1.680000
54.482032,-0.053192,0.167384,1.249280,-0.840000,0.420000,-2.520000
54.490119,-0.095160,-0.094184,0.839848,1.260000,2.380000,-0.700000
54.498206,-0.006344,0.155184,1.185840,-0.280000,0.000000,-1.960000
