Time [s],lsm6dsv16x_acc_x [g],lsm6dsv16x_acc_y [g],lsm6dsv16x_acc_z [g],lsm6dsv16x_gyro_x [dps],lsm6dsv16x_gyro_y [dps],lsm6dsv16x_gyro_z [dps]
14.000913,0.081496,-0.049288,1.013576,-1.120000,-3.360000,-1.960000
14.009000,-0.203984,0.115168,1.344440,1.540000,1.540000,-2.660000
14.017087,0.039528,-0.031720,0.956480,-2.800000,-0.980000,2.800000
14.025175,-0.104920,0.083448,1.341024,1.260000,2.940000,-4.620000
14.033262,-0.093696,-0.010248,1.006256,-1.120000,-5.880000,2.660000
14.041349,0.012688,0.081984,1.277096,1.680000,3.360000,-4.480000
14.049436,-0.155672,0.004392,1.106784,-0.420000,-1.400000,0.840000
14.057524,-0.051728,0.049288,1.150704,-1.540000,6.300000,-3.220000
14.065611,-0.034648,-0.009272,1.196576,0.700000,-10.080000,0.980000
14.073698,-0.091256,0.097600,1.224392,1.400000,9.940000,-2.520000
14.081785,-0.010248,-0.030744,0.986736,-2.520000,-4.200000,0.280000
14.089873,-0.145424,0.092232,1.381040,1.960000,2.520000,-3.640000
14.097960,0.013176,-0.033184,0.983808,-2.240000,-0.140000,0.840000
14.106047,-0.099552,0.075152,1.330776,2.660000,2.100000,-4.900000
14.114134,-0.122000,0.016592,1.037000,-2.380000,-1.260000,3.920000
14.122222,0.026352,0.046848,1.287832,1.260000,2.100000,-4.480000
14.130309,-0.202520,0.058072,1.288808,0.700000,-7.420000,1.820000
14.138396,0.138104,-0.063440,1.104344,0.280000,12.040000,-5.040000
14.146483,-0.297680,0.173240,1.320528,-0.840000,-6.720000,1.120000
14.154571,0.098576,-0.152744,1.198528,2.380000,1.260000,-1.260000
14.162658,-0.204472,0.278648,1.327360,-2.660000,2.380000,-1.820000
14.170745,0.059048,-0.204960,1.241960,2.100000,0.140000,-3.780000
14.178833,-0.285480,0.175192,1.441064,1.820000,-0.420000,0.840000
14.186920,0.163480,0.029280,1.248304,-0.700000,-1.540000,-1.820000
14.195007,-0.166896,-0.074176,1.463512,2.100000,7.420000,-2.800000
14.203094,-0.258640,0.159088,1.389824,2.940000,-6.440000,2.380000
14.211182,0.121512,-0.015128,1.425936,-0.140000,4.340000,-1.540000
14.219269,-0.130784,-0.031232,1.366400,1.260000,1.680000,-0.980000
14.227356,-0.095648,0.148840,1.526464,2.380000,-5.600000,-0.700000
14.235443,-0.137616,0.000488,1.497672,-1.540000,6.160000,-0.840000
14.243531,-0.077104,-0.059536,1.454728,4.340000,0.980000,0.140000
14.251618,-0.056608,0.149328,1.463024,1.400000,-3.780000,-0.140000
14.259705,-0.040992,0.066368,1.498648,-1.960000,3.920000,-2.660000
14.267792,-0.130296,-0.108824,1.538176,2.100000,1.960000,-0.980000
14.275880,-0.164944,0.054168,1.532808,2.520000,-1.540000,1.680000
14.283967,-0.064904,0.145424,1.462536,-0.140000,-2.380000,0.280000
14.292054,0.034648,0.004392,1.442040,0.280000,4.200000,-1.540000
14.300141,-0.101016,-0.044896,1.482544,1.960000,3.500000,-1.960000
14.308229,-0.187392,0.099552,1.498160,-0.560000,-2.660000,-0.840000
14.316316,-0.077592,0.048800,1.499624,0.000000,0.560000,0.000000
14.324403,0.003416,-0.048800,1.424472,2.660000,3.640000,-0.980000
14.332490,-0.087352,0.098088,1.448384,-0.980000,2.240000,-2.520000
14.340578,-0.135176,0.077592,1.473272,-1.540000,-1.120000,-2.380000
14.348665,-0.104432,-0.086864,1.521584,1.400000,1.400000,1.120000
14.356752,-0.086864,0.076128,1.428864,1.820000,1.680000,0.700000
14.364840,-0.011712,0.138592,1.384944,-1.260000,-0.280000,-1.540000
14.372927,-0.047336,-0.058560,1.506944,0.420000,-0.420000,-2.800000
14.381014,-0.149328,-0.023424,1.545496,2.660000,3.780000,-1.260000
14.389101,-0.177144,0.136152,1.411784,0.980000,2.100000,0.000000
14.397189,0.038064,0.028792,1.441064,2.660000,-2.800000,-0.280000
14.405276,-0.074176,-0.037576,1.454728,1.120000,6.440000,-0.980000
14.413363,-0.183976,0.089304,1.461560,0.840000,-3.500000,-0.560000
14.421450,-0.081984,0.069784,1.497184,0.700000,-1.680000,-1.820000
14.429538,-0.044896,-0.073200,1.402512,0.700000,3.780000,-1.540000
14.437625,-0.078568,0.112240,1.418616,-0.700000,1.960000,-0.420000
14.445712,-0.060024,0.070760,1.506944,0.280000,-3.220000,-1.400000
14.453799,-0.127856,-0.091256,1.554768,2.380000,1.120000,-0.840000
14.461887,-0.136152,0.046360,1.423984,6.020000,0.700000,-0.560000
14.469974,-0.032208,0.139568,1.434720,3.500000,0.980000,-0.840000
14.478061,-0.015616,-0.071248,1.465464,8.820000,1.680000,-1.400000
14.486148,-0.155672,-0.072712,1.540616,13.720000,1.260000,-0.840000
14.494236,-0.140544,0.127368,1.455704,15.400000,-2.380000,-0.280000
14.502323,-0.018544,0.061000,1.499136,14.140000,2.240000,-2.380000
14.510410,-0.046848,-0.086864,1.415688,23.240000,0.000000,-0.980000
14.518497,-0.127368,0.015616,1.492304,25.059999,-0.700000,0.140000
14.526585,-0.162504,0.120536,1.451800,20.580000,2.240000,0.560000
14.534672,-0.036112,-0.030256,1.466928,22.120001,-4.060000,0.980000
14.542759,-0.021472,0.024888,1.412272,22.260000,2.800000,-1.120000
14.550847,-0.094184,0.133712,1.328824,18.900000,4.760000,-2.520000
14.558934,-0.087840,-0.084424,1.427400,20.160000,-3.080000,-0.280000
14.567021,-0.120048,-0.012200,1.457656,22.680000,0.140000,0.700000
14.575108,-0.089792,0.212280,1.272704,18.480000,0.980000,0.000000
14.583196,0.052216,-0.034648,1.268800,12.460000,2.240000,-2.940000
14.591283,-0.182024,-0.054168,1.380552,13.720000,0.840000,-0.140000
14.599370,-0.157624,0.142984,1.344440,10.920000,-2.100000,1.820000
14.607457,0.073688,-0.040016,1.192184,10.220000,1.120000,-0.980000
14.615545,-0.101504,0.126392,1.290272,5.320000,1.540000,-2.520000
14.623632,-0.078568,-0.072224,1.266360,6.440000,0.980000,-1.680000
14.631719,-0.083936,-0.008296,1.250256,12.880000,2.380000,-0.980000
14.639806,-0.092720,0.199104,1.110200,6.020000,-3.220000,0.280000
14.647894,0.044408,-0.245464,1.172176,10.640000,7.000000,-1.680000
14.655981,-0.278648,0.271816,1.215608,8.120000,-2.100000,0.980000
14.664068,0.188368,-0.144936,0.957456,7.700000,-2.240000,-1.680000
14.672155,-0.285968,0.104920,1.357616,11.620000,6.860000,-1.260000
14.680243,0.086376,0.002928,0.815448,6.860000,-3.920000,0.840000
14.688330,-0.139568,0.020008,1.285880,10.920000,3.220000,-1.400000
14.696417,-0.029280,0.007808,0.915000,8.400000,-3.640000,1.540000
14.704505,-0.039528,0.107360,1.070672,6.860000,6.440000,-4.620000
14.712592,-0.114192,-0.073688,0.909144,3.080000,-1.680000,2.520000
14.720679,-0.040504,0.186904,1.013088,-3.780000,1.820000,-2.100000
14.728766,0.032208,-0.155184,0.916952,0.980000,1.820000,0.140000
14.736854,-0.142008,0.179096,0.960872,-4.760000,1.820000,-1.820000
14.744941,-0.015616,-0.069296,0.992104,0.000000,0.420000,-1.820000
14.753028,-0.069296,0.028792,0.867176,0.140000,3.780000,0.140000
14.761115,-0.112240,0.060512,0.988688,1.540000,-0.840000,-0.840000
14.769203,0.059048,-0.042944,0.792512,0.980000,2.100000,-0.420000
14.777290,-0.131760,0.061000,0.899872,1.120000,1.400000,0.560000
14.785377,-0.026352,0.039040,0.883280,0.980000,-0.980000,-1.960000
14.793464,0.031720,-0.038064,0.751032,1.960000,4.620000,-0.140000
14.801552,-0.157136,0.057584,0.796416,0.700000,-0.980000,0.840000
14.809639,-0.006344,0.035136,0.860832,1.820000,-0.420000,-2.380000
14.817726,0.023912,0.003416,0.698816,0.000000,5.320000,-1.120000
14.825813,-0.084424,-0.017568,0.718824,1.680000,-1.820000,-0.140000
14.833901,-0.058560,0.057096,0.773968,0.280000,2.520000,-0.700000
14.841988,-0.027816,0.041480,0.762256,0.700000,0.560000,-0.560000
14.850075,-0.017568,-0.013176,0.757864,1.260000,1.820000,-0.560000
14.858162,-0.060024,-0.004392,0.662216,0.000000,0.700000,-0.280000
14.866250,-0.011712,0.062464,0.719312,0.700000,-0.840000,-1.400000
14.874337,-0.101992,0.036600,0.761280,-0.140000,4.900000,-1.820000
14.882424,-0.001952,-0.027328,0.686616,1.680000,-0.840000,-0.560000
14.890512,0.033672,-0.028792,0.689056,4.340000,0.140000,0.280000
14.898599,-0.082960,0.031232,0.698328,5.180000,3.500000,-0.140000
14.906686,-0.089792,0.043920,0.756888,8.820000,-2.520000,-1.680000
14.914773,0.003904,0.009272,0.732000,8.540000,0.980000,-2.240000
14.922861,-0.011224,-0.019520,0.628056,8.120000,2.240000,0.000000
14.930948,-0.022936,0.018056,0.657824,7.980000,-2.800000,0.980000
14.939035,-0.090768,0.056608,0.741760,6.580000,1.680000,-0.420000
14.947122,-0.057096,0.030744,0.740296,7.140000,0.140000,-2.520000
14.955210,0.027328,0.022936,0.659776,6.300000,1.960000,-1.540000
14.963297,-0.042944,0.032208,0.591456,1.680000,1.540000,-0.420000
14.971384,-0.025376,0.033672,0.653432,-6.860000,-0.140000,-2.100000
14.979471,-0.052704,-0.019520,0.711016,-9.520000,3.920000,-1.120000
14.987559,-0.099064,0.041480,0.744688,-3.360000,-2.240000,0.000000
14.995646,0.002440,0.030744,0.771040,2.100000,0.140000,-1.260000
15.003733,-0.041968,-0.013664,0.672464,1.540000,5.320000,-0.980000
15.011820,-0.020496,-0.028304,0.623176,1.680000,-2.940000,0.420000
15.019908,-0.033672,0.055144,0.724192,0.980000,0.140000,0.140000
15.027995,-0.100528,0.047824,0.712968,2.380000,0.280000,-2.660000
15.036082,-0.007808,0.011224,0.693936,1.820000,1.820000,-2.800000
15.044170,-0.032696,-0.012688,0.583160,1.400000,1.260000,0.000000
15.052257,0.025864,0.005368,0.611952,2.940000,-3.780000,0.140000
15.060344,-0.100528,0.019520,0.646112,1.120000,5.740000,-0.560000
15.068431,-0.075152,0.032208,0.623176,2.520000,-2.940000,-1.400000
15.076519,-0.026352,0.040504,0.710528,1.540000,1.260000,-1.820000
15.084606,-0.033672,0.008784,0.602192,0.280000,3.080000,-1.400000
15.092693,-0.045384,0.001464,0.628056,1.540000,-3.920000,-0.280000
15.100780,-0.000488,0.012688,0.599264,1.820000,0.980000,-0.700000
15.108868,-0.023424,0.002440,0.625128,2.520000,0.700000,-1.400000
15.116955,-0.058560,0.020496,0.632448,1.260000,2.660000,-1.260000
15.125042,-0.094184,0.022448,0.645624,1.960000,-0.700000,-0.420000
15.133129,-0.053680,0.039528,0.622200,0.140000,-2.660000,-0.980000
15.141217,-0.018056,0.019032,0.665632,0.840000,1.820000,-1.820000
15.149304,-0.024400,0.028792,0.630496,1.540000,0.980000,-1.820000
15.157391,-0.014640,-0.022448,0.673928,2.240000,-0.560000,-1.540000
15.165478,-0.039040,-0.023424,0.600728,0.280000,1.960000,-0.280000
15.173566,-0.090280,0.033672,0.711992,1.260000,-2.660000,0.280000
15.181653,-0.057584,0.085400,0.763720,0.700000,1.120000,-1.400000
15.189740,-0.086376,0.013664,0.752984,0.000000,1.400000,-2.380000
15.197828,0.021960,-0.037576,0.721752,1.260000,-1.540000,-0.840000
15.205915,-0.037576,0.006832,0.784216,0.280000,0.280000,0.280000
15.214002,-0.144448,0.079056,0.889136,-0.140000,-0.840000,-2.520000
15.222089,-0.035624,0.028792,0.827648,-0.700000,4.200000,-2.240000
15.230177,0.024400,-0.076128,0.821792,1.820000,-5.040000,0.000000
15.238264,-0.121024,0.098576,0.958432,-1.400000,2.100000,-1.820000
15.246351,-0.071248,0.005856,0.938424,1.400000,2.380000,-2.520000
15.254438,-0.040504,-0.041968,0.870592,1.400000,-0.560000,0.700000
15.262526,-0.154696,0.112728,0.999912,0.980000,-1.680000,0.560000
15.270613,0.029280,-0.032696,0.951112,1.120000,0.840000,-2.660000
15.278700,-0.059048,-0.004392,0.925736,1.680000,2.660000,-0.840000
15.286787,-0.150792,0.112728,0.967216,0.280000,0.840000,-0.840000
15.294875,0.059536,-0.087840,0.918416,3.500000,-3.220000,-0.700000
15.302962,-0.113216,0.081008,1.019920,-2.100000,3.640000,-0.980000
15.311049,-0.122000,0.027816,0.993568,4.340000,0.420000,-2.380000
15.319136,0.005368,-0.049288,0.913536,-2.240000,1.400000,0.000000
15.327224,-0.201544,0.158112,1.122400,1.960000,0.140000,0.980000
15.335311,0.127368,-0.159088,0.977952,0.840000,-1.540000,-2.800000
15.343398,-0.286456,0.203984,1.306376,3.220000,0.000000,0.140000
15.351486,0.174704,-0.130784,1.023824,-0.700000,3.640000,-4.200000
15.359573,-0.358680,0.153232,1.515240,2.100000,-1.680000,0.560000
15.367660,0.118584,-0.084912,1.312720,1.400000,5.880000,-1.680000
15.375747,-0.228384,0.086376,1.583560,0.140000,-2.100000,-0.840000
15.383835,-0.002440,0.062464,1.767536,1.260000,-1.820000,0.280000
15.391922,-0.170800,0.048312,1.967616,0.840000,3.080000,-3.220000
15.400009,-0.142008,0.050264,2.084248,3.220000,-0.420000,-1.820000
15.408096,-0.123952,0.029768,2.135000,0.840000,2.520000,-2.240000
15.416184,-0.153720,-0.003416,2.196000,0.420000,-1.680000,0.140000
15.424271,-0.118096,0.029768,2.270176,1.540000,0.420000,0.000000
15.432358,-0.186904,0.037088,2.297992,1.960000,-1.540000,-0.560000
15.440445,-0.140544,0.022936,2.296040,0.700000,3.920000,-1.960000
15.448533,-0.129320,0.002928,2.358504,-0.840000,3.080000,0.000000
15.456620,-0.146888,0.015128,2.356552,-1.260000,-0.560000,1.120000
15.464707,-0.189832,0.072712,2.406328,0.980000,-3.080000,-0.980000
15.472794,-0.235704,0.085400,2.304824,-1.540000,-0.700000,-1.260000
15.480882,-0.147864,0.058560,2.195512,-1.120000,1.680000,-1.820000
15.488969,-0.151280,0.026352,1.881728,1.680000,2.660000,-1.680000
15.497056,-0.075640,-0.009760,1.510848,1.680000,-0.280000,0.420000
15.505144,-0.094672,0.116632,1.237080,-4.200000,-0.280000,1.120000
15.513231,0.020496,-0.043432,0.941352,0.280000,2.660000,0.420000
15.521318,-0.057584,0.028304,0.877424,2.380000,6.720000,-1.540000
15.529405,-0.074176,0.029768,0.426512,1.960000,1.120000,0.280000
15.537493,0.001952,-0.008296,0.427976,1.120000,6.440000,-2.240000
15.545580,-0.078080,0.033184,0.288408,0.560000,0.280000,-0.140000
15.553667,0.025376,-0.004392,0.202032,-0.980000,1.260000,0.000000
15.561754,-0.060024,0.030256,0.217648,0.560000,6.020000,0.000000
15.569842,-0.017080,-0.004392,0.171776,2.520000,0.980000,-0.840000
15.577929,-0.005368,-0.012688,0.148352,-0.280000,2.100000,-0.280000
15.586016,-0.028792,0.024888,0.244976,1.820000,2.800000,-0.280000
15.594103,-0.022448,0.008784,0.275720,2.660000,-0.560000,-1.820000
15.602191,-0.036600,0.004880,0.314272,0.700000,-1.680000,-1.540000
15.610278,-0.066856,0.039040,0.449448,0.840000,0.840000,-0.280000
15.618365,-0.039040,0.003416,0.633424,1.680000,-4.060000,-1.540000
15.626452,-0.088816,0.036600,0.784704,-0.280000,3.500000,-1.260000
15.634540,-0.064416,0.017568,0.891576,2.660000,-7.980000,1.260000
15.642627,0.074176,-0.010736,1.114592,-1.120000,-4.620000,-1.260000
15.650714,-0.248880,0.164944,1.413736,-2.800000,7.280000,-6.160000
15.658802,-0.115168,-0.094672,1.391776,-1.680000,-11.200000,-0.560000
15.666889,-0.038552,-0.005368,1.861720,4.620000,-1.540000,-0.140000
15.674976,-0.075640,0.095648,1.866112,0.560000,3.920000,-3.220000
15.683063,-0.130296,0.059536,1.991528,-0.700000,2.940000,-7.700000
15.691151,-0.197640,0.022936,2.121336,0.280000,-4.900000,-3.780000
15.699238,-0.157136,0.061488,2.230648,3.920000,-3.220000,-2.100000
15.707325,-0.168360,0.029280,2.234552,3.360000,1.820000,-2.100000
15.715412,-0.132248,0.044408,2.243824,1.400000,1.680000,-3.920000
15.723500,-0.128344,0.027328,2.221864,-0.700000,1.540000,-4.340000
15.731587,-0.137616,0.064416,2.256512,0.000000,0.840000,-5.040000
15.739674,-0.208376,0.057584,2.350696,1.820000,0.280000,-4.620000
15.747761,-0.207888,0.030744,2.443416,10.920000,-2.380000,-2.520000
15.755849,-0.179096,0.061976,2.252608,21.000000,-4.620000,-2.240000
15.763936,-0.143472,0.075152,2.222840,10.920000,2.660000,-3.500000
15.772023,-0.199104,0.010736,2.244800,8.540000,2.660000,-0.420000
15.780110,-0.066856,0.041968,2.267248,24.080000,-4.620000,0.140000
15.788198,-0.103944,0.114192,2.106208,22.120001,2.100000,-1.820000
15.796285,-0.152744,0.072224,2.079856,8.260000,6.020000,-3.360000
15.804372,-0.152744,-0.005856,2.155008,10.780000,-0.840000,-1.820000
15.812460,-0.170312,0.010736,2.075464,14.420000,-1.400000,-1.680000
15.820547,-0.124928,0.074176,2.118408,14.560000,1.400000,-1.680000
15.828634,-0.158112,0.074664,2.077904,11.060000,5.740000,-1.120000
15.836721,-0.114680,0.057584,2.101816,12.880000,-1.680000,-0.840000
15.844809,-0.105408,0.019520,2.076440,8.400000,-0.560000,-0.980000
15.852896,-0.105408,-0.001952,2.104744,7.700000,2.660000,-1.820000
15.860983,-0.207400,0.020984,2.072048,9.940000,2.660000,-1.260000
15.869070,-0.203008,0.081496,1.997872,5.040000,0.140000,0.840000
15.877158,-0.123464,0.072712,2.127680,0.000000,3.500000,1.680000
15.885245,-0.089304,0.019032,2.075464,4.760000,2.240000,0.140000
15.893332,-0.063928,0.025864,2.056920,1.960000,1.400000,-1.960000
15.901419,-0.183976,0.051240,1.995432,0.000000,-0.980000,-1.960000
15.909507,-0.194224,0.038064,2.049600,-3.500000,1.120000,-0.980000
15.917594,-0.183976,0.047824,1.941752,0.840000,1.120000,0.420000
15.925681,-0.136640,0.056608,1.829024,-0.420000,2.660000,-0.420000
15.933768,-0.125904,0.070272,1.716784,-1.120000,3.220000,0.420000
15.941856,-0.076616,0.063928,1.630408,-0.560000,3.220000,0.000000
15.949943,-0.081008,0.057096,1.441552,0.420000,1.120000,-0.420000
15.958030,-0.037088,-0.040992,1.268312,-0.420000,2.940000,-0.560000
15.966118,-0.055632,-0.035624,1.161928,1.960000,1.260000,-0.560000
15.974205,-0.115656,0.150792,1.186328,-1.260000,3.500000,-1.400000
15.982292,-0.003904,-0.066368,0.826672,0.420000,7.280000,-2.240000
15.990379,-0.238144,0.062952,0.972584,1.820000,-5.600000,0.700000
15.998467,0.187392,0.018544,0.688080,-0.840000,7.420000,-2.800000
16.006554,-0.262056,0.012200,0.686616,0.560000,2.240000,1.820000
16.014641,0.006832,0.020496,0.601704,0.700000,-0.140000,-1.260000
16.022728,-0.073200,0.049776,0.583160,0.560000,3.360000,-1.120000
16.030816,0.026352,-0.011712,0.421632,0.140000,2.380000,-0.560000
16.038903,-0.068320,0.029768,0.515816,0.840000,0.280000,-0.280000
16.046990,-0.038064,0.001464,0.412848,1.400000,2.940000,-0.560000
16.055077,-0.020008,0.007320,0.360144,0.560000,1.540000,-1.120000
16.063165,-0.042456,0.018056,0.328424,0.700000,1.540000,-0.980000
16.071252,-0.011712,0.010736,0.276696,0.560000,1.260000,-1.260000
16.079339,-0.030744,0.015128,0.218136,0.560000,2.940000,-0.700000
16.087426,-0.006344,0.007320,0.182024,0.840000,1.400000,0.000000
16.095514,0.002440,-0.003904,0.161040,0.980000,2.940000,-0.560000
16.103601,-0.043432,0.009760,0.129320,0.420000,2.240000,-0.980000
16.111688,-0.012200,0.012688,0.142496,0.420000,0.280000,-0.420000
16.119776,0.009760,0.000488,0.081496,1.120000,2.800000,-1.400000
16.127863,-0.028304,-0.000976,0.101016,-0.140000,1.820000,-0.280000
16.135950,0.001464,0.015128,0.131760,1.540000,0.700000,-1.120000
16.144037,-0.012200,-0.000488,0.093696,0.840000,2.940000,-0.980000
16.152125,-0.003416,0.007320,0.105896,0.700000,1.680000,-1.260000
16.160212,-0.019032,-0.001464,0.081496,1.960000,0.980000,-0.840000
16.168299,-0.002440,0.009760,0.122000,0.420000,2.520000,-0.700000
16.176386,-0.014152,0.005856,0.080520,2.100000,0.840000,-1.540000
16.184474,-0.013664,0.004880,0.132248,0.420000,2.660000,-0.560000
16.192561,-0.013176,0.008784,0.076616,2.100000,-0.280000,-1.540000
16.200648,-0.007808,0.001952,0.115656,0.280000,3.360000,-0.700000
16.208735,-0.008296,0.011224,0.103456,1.260000,-0.280000,-1.680000
16.216823,-0.020008,0.002440,0.101016,0.280000,2.800000,-0.420000
16.224910,0.007320,0.006344,0.108336,0.980000,-1.260000,-1.540000
16.232997,-0.029768,0.011224,0.100040,0.000000,3.080000,-0.560000
16.241084,0.015128,-0.002440,0.112728,0.980000,-1.120000,-1.540000
16.249172,-0.044896,0.017080,0.121512,0.000000,2.380000,-0.840000
16.257259,0.008784,0.001464,0.135176,0.700000,-1.680000,-1.540000
16.265346,-0.016592,0.008784,0.115168,0.280000,2.380000,-1.120000
16.273433,-0.024888,0.002928,0.154696,0.980000,-1.680000,-1.540000
16.281521,0.007808,0.007808,0.104432,0.280000,1.260000,-0.700000
16.289608,-0.019032,0.003904,0.166408,1.120000,0.280000,-1.820000
16.297695,-0.029768,0.014640,0.119072,0.000000,-0.980000,-0.420000
16.305783,0.000000,0.018544,0.180560,1.260000,1.260000,-1.540000
16.313870,-0.011224,-0.020496,0.108336,0.280000,-0.840000,-1.400000
16.321957,-0.026840,0.034648,0.187392,0.560000,0.560000,-0.980000
16.330044,-0.014640,0.000488,0.178608,0.840000,-0.980000,-1.400000
16.338132,-0.003416,0.008784,0.167384,0.000000,1.120000,-0.700000
16.346219,-0.026840,0.017080,0.244976,1.260000,-0.420000,-1.540000
16.354306,-0.016104,-0.003416,0.203008,-0.560000,0.560000,-1.400000
16.362393,-0.019520,0.023912,0.244000,1.540000,0.560000,-0.980000
16.370481,-0.010248,0.000000,0.274744,1.120000,1.960000,-1.820000
16.378568,-0.033184,0.015128,0.293776,0.000000,-0.980000,-2.240000
16.386655,-0.031232,0.024888,0.287920,0.560000,0.420000,-1.260000
16.394742,-0.032208,0.017080,0.299632,0.560000,0.560000,-0.700000
16.402830,-0.000488,-0.009272,0.347944,0.700000,0.560000,-1.120000
16.410917,-0.033184,0.010736,0.371368,0.140000,0.700000,-1.960000
16.419004,-0.037088,0.015616,0.387472,0.420000,-1.820000,-1.960000
16.427091,-0.043920,0.026352,0.406504,-0.140000,-0.140000,-1.680000
16.435179,-0.047824,0.024888,0.380640,0.140000,-0.980000,-1.540000
16.443266,-0.036600,0.021472,0.403088,0.000000,0.140000,-0.980000
16.451353,-0.035624,0.018056,0.393328,0.280000,-0.840000,-1.260000
16.459441,-0.027328,0.009760,0.417240,0.280000,0.420000,-1.260000
16.467528,-0.040504,0.011224,0.410408,0.700000,0.560000,-1.260000
16.475615,-0.029768,0.012688,0.416264,0.840000,0.280000,-1.120000
16.483702,-0.031720,0.011712,0.416264,0.980000,0.000000,-1.260000
16.491790,-0.029768,0.017568,0.417728,0.980000,-0.420000,-1.260000
16.499877,-0.023424,0.011224,0.441152,1.400000,-0.140000,-2.240000
16.507964,-0.063440,0.000488,0.422608,0.840000,1.820000,-1.400000
16.516051,-0.027328,0.012688,0.417728,2.100000,-3.640000,-0.980000
16.524139,-0.011712,0.028304,0.455792,1.540000,-0.420000,-2.100000
16.532226,-0.064416,0.020984,0.418216,0.840000,2.940000,-2.100000
16.540313,-0.040504,0.020984,0.437736,2.100000,-3.360000,-1.820000
16.548400,-0.036600,0.024888,0.459208,0.840000,1.120000,-1.120000
16.556488,-0.062464,0.015128,0.409432,0.980000,-0.700000,-1.260000
16.564575,-0.032696,0.026352,0.456280,1.120000,-1.540000,-0.980000
16.572662,-0.049288,0.019520,0.422608,0.420000,1.680000,-1.120000
16.580749,-0.043432,0.022936,0.444080,0.700000,-1.680000,-0.560000
16.588837,-0.019032,0.011712,0.467016,0.420000,0.140000,-0.980000
16.596924,-0.051728,0.009760,0.457256,0.560000,0.560000,-1.400000
16.605011,-0.045384,0.012200,0.481656,0.840000,0.000000,-0.420000
16.613099,-0.034160,0.019520,0.483608,0.700000,-0.980000,0.000000
16.621186,-0.015128,0.026352,0.537776,0.840000,-0.420000,-1.960000
16.629273,-0.067344,0.027816,0.530944,0.280000,2.380000,-1.960000
16.637360,-0.050752,0.023912,0.561688,0.840000,-2.240000,-1.120000
16.645448,-0.062952,0.024888,0.658800,0.700000,-0.840000,-1.400000
16.653535,-0.066368,0.025376,0.690032,0.420000,0.420000,-1.960000
16.661622,-0.003416,-0.006344,0.707600,1.820000,0.560000,-1.260000
16.669709,-0.019520,-0.034648,0.725168,1.260000,-0.560000,0.840000
16.677797,-0.127368,0.078568,0.882304,1.260000,-4.200000,-0.700000
16.685884,-0.097600,0.102968,0.952088,1.120000,2.520000,-2.940000
16.693971,0.000488,-0.091256,0.844240,0.000000,-0.980000,-2.660000
16.702058,-0.130296,0.124440,1.000400,1.680000,-2.100000,-0.560000
16.710146,-0.089792,0.005856,0.987712,0.280000,2.940000,-3.220000
16.718233,0.000000,0.004392,0.898896,2.940000,-5.040000,-0.140000
16.726320,-0.208376,0.098088,1.107760,-3.360000,1.680000,-1.540000
16.734407,0.035624,-0.020984,0.924760,1.680000,-0.840000,-0.840000
16.742495,-0.142008,0.055144,1.065792,-0.840000,2.660000,-1.680000
16.750582,-0.098088,0.039528,1.010648,2.660000,-0.420000,-1.680000
16.758669,-0.025864,0.005368,0.940864,-2.100000,-2.380000,-0.700000
16.766757,-0.197640,0.104920,1.145336,-0.420000,3.080000,-1.680000
16.774844,0.110288,-0.068808,0.847168,1.820000,0.140000,-1.960000
16.782931,-0.310856,0.116632,1.182912,-0.280000,1.960000,0.000000
16.791018,0.054168,-0.000488,0.858392,0.980000,-3.220000,-0.560000
16.799106,-0.130784,0.034648,1.120936,1.400000,3.220000,0.000000
16.807193,-0.078568,0.089792,0.890600,-1.400000,3.780000,-3.220000
16.815280,-0.035624,-0.089792,0.924272,2.800000,-4.480000,-0.140000
16.823367,-0.190320,0.173240,1.056032,-0.840000,2.940000,0.000000
16.831455,-0.003416,-0.069784,0.936472,2.380000,-1.120000,-2.100000
16.839542,-0.084912,0.075152,0.956480,0.560000,4.200000,0.280000
16.847629,-0.172752,0.061000,0.955992,-1.120000,1.120000,-1.120000
16.855716,0.020984,0.014152,0.915976,1.120000,-4.900000,0.000000
16.863804,-0.119560,0.013176,0.985760,0.700000,5.040000,-0.700000
16.871891,-0.101504,0.126880,0.970632,-0.420000,-0.840000,-2.660000
16.879978,-0.020984,-0.107360,0.987712,1.540000,0.140000,-0.420000
16.888065,-0.157136,0.166408,1.057984,-1.820000,-0.420000,-1.680000
16.896153,-0.080520,-0.040992,1.059936,2.800000,3.220000,-1.680000
16.904240,-0.095648,0.091256,1.018944,-0.420000,-2.660000,0.840000
16.912327,-0.102480,0.017568,1.206336,3.500000,-0.560000,-1.820000
16.920415,-0.107848,0.053192,1.040416,-0.280000,0.980000,0.980000
16.928502,-0.041480,0.080520,1.211704,1.680000,0.840000,-3.080000
16.936589,-0.167872,-0.044896,1.216584,0.280000,1.960000,-0.140000
16.944676,-0.054656,0.139568,1.203896,2.940000,-2.800000,-1.540000
16.952764,-0.089792,0.050752,1.244400,-4.200000,2.100000,-1.820000
16.960851,-0.164456,-0.068808,1.310768,4.900000,1.820000,-0.980000
16.968938,-0.098576,0.284504,1.265872,-2.100000,-5.180000,-0.140000
16.977025,0.008784,-0.196176,1.168272,-1.540000,8.260000,-3.080000
16.985113,-0.258640,0.200080,1.389824,7.280000,-9.100000,0.280000
16.993200,0.003416,0.014152,1.166320,-5.040000,6.720000,-2.660000
17.001287,-0.166896,0.034160,1.262944,3.080000,-3.220000,-1.120000
17.009374,-0.010736,0.114192,1.306864,-0.280000,6.160000,-0.980000
17.017462,-0.233264,-0.068808,1.242448,1.400000,0.980000,-0.420000
17.025549,-0.070760,0.236680,1.288808,1.820000,-7.000000,1.400000
17.033636,0.022936,-0.098576,1.214632,-2.660000,9.940000,-4.900000
17.041724,-0.316712,0.101992,1.319552,3.920000,-6.580000,1.120000
17.049811,0.084424,0.122976,1.076528,-2.520000,6.720000,-1.260000
17.057898,-0.222040,-0.066856,1.272216,0.420000,0.280000,-1.680000
17.065985,-0.060024,0.121512,1.218536,1.260000,-4.760000,1.120000
17.074073,-0.066368,0.048800,1.132160,-0.140000,8.960000,-2.800000
17.082160,-0.145424,0.040992,1.149240,0.000000,-5.740000,0.840000
17.090247,-0.006344,0.021472,1.177056,0.140000,7.840000,-3.640000
17.098334,-0.254248,0.151768,1.063840,-1.540000,-6.720000,2.100000
17.106422,0.149328,-0.103456,1.174616,0.980000,9.240000,-5.460000
17.114509,-0.465552,0.214232,1.143384,-0.420000,-3.780000,3.780000
17.122596,0.340624,-0.101016,1.031144,0.560000,2.800000,-4.900000
17.130683,-0.542656,0.166896,1.288808,-0.840000,3.220000,2.520000
17.138771,0.292800,-0.032208,0.919880,2.940000,-3.500000,-2.520000
17.146858,-0.437736,0.112240,1.331752,-0.140000,0.980000,2.240000
17.154945,0.186904,-0.012200,0.923784,2.660000,4.340000,-1.540000
17.163033,-0.318664,0.139568,1.142896,-1.260000,-3.500000,0.280000
17.171120,0.118584,-0.058560,1.009184,1.540000,5.040000,-3.080000
17.179207,-0.262544,0.144936,0.952088,-1.540000,-2.100000,2.660000
17.187294,0.047824,-0.038552,1.016016,2.940000,2.940000,-2.940000
17.195382,-0.122488,0.085400,0.855464,-0.420000,2.660000,0.280000
17.203469,-0.167384,0.044408,0.953552,-0.280000,1.540000,-0.700000
17.211556,-0.009760,0.049288,0.800808,0.840000,-1.680000,-0.140000
17.219643,0.016104,0.002928,0.764208,0.980000,4.760000,-0.280000
17.227731,-0.168848,0.067344,0.689056,0.560000,2.240000,-0.280000
17.235818,-0.051240,0.067344,0.686616,-0.140000,-0.420000,-1.540000
17.243905,-0.053680,0.016104,0.644648,-0.560000,4.060000,-1.400000
17.251992,-0.027816,0.029768,0.517280,1.120000,0.980000,-0.840000
17.260080,-0.045872,0.035624,0.518256,1.260000,2.100000,-0.560000
17.268167,-0.092232,0.043920,0.478240,1.960000,2.660000,-0.560000
17.276254,-0.037576,0.029280,0.467016,1.400000,-0.420000,-1.400000
17.284342,-0.060024,0.040504,0.468480,-0.280000,3.780000,-1.400000
17.292429,-0.073688,0.030744,0.395280,0.000000,0.140000,-0.700000
17.300516,-0.017568,0.026352,0.454816,0.420000,-0.560000,-0.840000
17.308603,-0.045872,0.023912,0.427976,-0.420000,2.520000,-1.120000
17.316691,-0.037576,0.016592,0.435296,0.140000,0.560000,-1.120000
17.324778,-0.051240,0.027816,0.441640,-0.420000,2.660000,-0.980000
17.332865,-0.046360,0.027328,0.447984,-0.560000,0.280000,-0.840000
17.340952,-0.029768,0.028304,0.484096,-2.380000,0.840000,-1.260000
17.349040,-0.041968,0.029280,0.533384,-3.640000,1.820000,-1.400000
17.357127,-0.057584,0.052216,0.556320,-5.460000,1.960000,-1.960000
17.365214,-0.066856,0.058560,0.576816,-9.380000,0.140000,-1.260000
17.373301,-0.091256,0.052216,0.704184,-11.060000,-3.360000,-1.260000
17.381389,-0.006344,0.042456,0.753960,-12.320000,0.980000,-2.100000
17.389476,-0.051240,-0.029280,0.818376,-9.800000,-0.980000,-0.420000
17.397563,-0.170312,0.085888,1.007232,-10.360000,-2.940000,-0.140000
17.405651,-0.048800,0.061488,1.039440,-6.160000,-1.120000,-1.120000
17.413738,-0.064904,-0.027328,1.092144,-7.700000,-4.060000,-2.380000
17.421825,-0.173240,0.156648,1.275632,-6.440000,4.340000,-2.240000
17.429912,0.003416,-0.016592,1.122400,-9.520000,-2.520000,-2.100000
17.438000,-0.100528,0.041480,1.446432,-7.000000,5.180000,-3.080000
17.446087,-0.260592,0.224968,1.445456,-14.420000,-0.140000,-1.400000
17.454174,-0.107848,-0.107848,1.484496,-9.520000,-2.520000,0.140000
17.462261,-0.103456,0.081984,1.586000,-8.400000,-0.280000,0.700000
17.470349,-0.008784,0.144936,1.598688,-10.780000,2.660000,-2.660000
17.478436,-0.136152,0.095160,1.752896,-11.200000,4.480000,-3.360000
17.486523,-0.161528,0.018544,1.757776,-7.140000,2.940000,-1.680000
17.494610,-0.180072,-0.013176,1.789984,-1.820000,1.120000,0.000000
17.502698,-0.108824,0.025376,1.734352,-0.840000,3.080000,-0.280000
17.510785,-0.136152,0.079056,1.721664,-2.800000,4.760000,-1.400000
17.518872,-0.136152,0.096624,1.795352,0.000000,1.120000,-0.700000
17.526960,-0.156160,0.125416,1.759240,0.840000,1.960000,0.280000
17.535047,-0.098576,0.098088,1.818776,-0.420000,-0.420000,-0.420000
17.543134,-0.169824,0.071736,1.797304,-2.380000,4.480000,-0.980000
17.551221,-0.153720,0.020984,1.711416,0.980000,-0.840000,-0.700000
17.559309,-0.073688,0.023424,1.727032,1.540000,3.220000,-0.840000
17.567396,-0.111264,0.027816,1.663592,-1.260000,3.920000,-0.980000
17.575483,-0.072224,0.080032,1.772416,1.540000,-0.140000,-0.560000
17.583570,-0.149328,0.112728,1.749968,-1.540000,8.120000,-0.140000
17.591658,-0.089304,0.067832,1.820240,0.420000,-2.100000,-0.560000
17.599745,-0.147864,0.089304,1.904176,-2.800000,4.340000,-1.400000
17.607832,-0.154696,0.073200,1.892952,1.960000,-2.240000,-2.100000
17.615919,-0.150792,0.079544,1.986648,-2.240000,6.860000,-1.820000
17.624007,-0.166896,0.064904,1.986160,0.560000,-3.920000,-0.420000
17.632094,-0.082472,0.058072,2.042280,-3.640000,4.760000,-1.680000
17.640181,-0.148352,0.058560,2.085712,2.520000,-3.640000,-1.260000
17.648269,-0.094672,0.062464,2.113528,0.000000,2.380000,-1.120000
17.656356,-0.149328,0.062464,2.140368,3.920000,-3.640000,0.420000
17.664443,-0.120048,0.077104,2.237968,0.140000,4.060000,-0.280000
17.672530,-0.208864,0.064416,2.339472,1.260000,2.100000,-1.680000
17.680618,-0.212280,0.066856,2.353136,2.660000,-2.100000,-2.380000
17.688705,-0.165920,0.097112,2.387784,0.560000,0.420000,-2.100000
17.696792,-0.104432,0.095648,2.344840,2.800000,-0.140000,-1.260000
17.704879,-0.140544,0.067344,2.325320,2.240000,1.260000,-0.140000
17.712967,-0.188368,0.045872,2.317512,3.080000,-2.660000,0.700000
17.721054,-0.153232,0.045872,2.339472,0.700000,-0.560000,0.560000
17.729141,-0.127856,0.088816,2.309704,2.800000,0.840000,0.140000
17.737228,-0.153720,0.136152,2.388760,2.380000,-0.280000,-0.700000
17.745316,-0.198128,0.105896,2.392176,0.000000,2.380000,-1.120000
17.753403,-0.127856,0.033184,2.285304,2.660000,0.000000,-1.680000
17.761490,-0.090280,0.033184,2.170624,2.660000,2.940000,-1.960000
17.769578,-0.135664,0.032696,2.174528,0.560000,-2.940000,0.000000
17.777665,-0.186416,0.075152,2.246752,-0.280000,-2.100000,2.240000
17.785752,-0.223992,0.134200,2.251144,5.180000,-4.340000,0.560000
17.793839,-0.168848,0.116144,2.104744,-1.260000,2.940000,-1.960000
17.801927,-0.127856,0.093208,2.018856,-0.420000,-0.420000,-2.660000
17.810014,-0.108824,0.043432,1.845128,0.000000,3.500000,0.000000
17.818101,-0.047824,0.074176,1.767536,3.500000,3.080000,-0.280000
17.826188,-0.146888,0.028792,1.565992,-0.560000,3.780000,-0.560000
17.834276,-0.093696,0.070760,1.545984,0.560000,-4.340000,0.560000
17.842363,-0.096136,0.157624,1.445456,0.560000,4.200000,1.120000
17.850450,-0.071248,-0.009272,1.243912,0.140000,3.220000,0.420000
17.858537,-0.024888,-0.018544,1.256600,1.960000,1.960000,-0.280000
17.866625,-0.184952,0.182512,1.273192,-0.140000,1.400000,-1.680000
17.874712,0.000000,-0.035136,1.023824,2.380000,-1.400000,0.420000
17.882799,-0.081008,0.026352,1.271240,6.440000,5.740000,-1.540000
17.890887,-0.115656,0.104920,1.001376,9.660000,-1.540000,0.280000
17.898974,-0.022936,-0.012688,1.097024,9.520000,3.360000,-1.400000
17.907061,-0.161528,0.081984,1.041880,11.620000,-2.380000,1.960000
17.915148,0.089304,0.041968,1.011624,12.040000,4.060000,-3.920000
17.923236,-0.288896,0.002928,1.069696,15.680000,-2.660000,1.260000
17.931323,0.140544,0.081984,0.935496,19.460001,2.940000,-2.380000
17.939410,-0.244976,0.015616,1.062376,15.260000,-3.080000,0.980000
17.947497,0.060024,0.116144,0.989664,14.560000,6.720000,-2.240000
17.955585,-0.160064,-0.024888,1.007720,14.000000,-6.720000,0.000000
17.963672,0.003416,0.083448,1.065304,19.879999,8.260000,-2.520000
17.971759,-0.142496,0.013176,0.838872,15.120000,-2.940000,0.280000
17.979846,-0.033672,0.060512,1.189256,19.040001,1.680000,-1.820000
17.987934,-0.085400,0.013176,0.889624,18.760000,3.500000,-0.140000
17.996021,-0.114192,0.057096,1.113616,28.280001,-4.200000,-0.840000
18.004108,0.040504,0.070272,0.829600,16.940001,2.520000,-0.840000
18.012196,-0.244488,0.050264,1.217072,22.260000,1.120000,-1.960000
18.020283,0.088816,0.004880,0.752008,19.180000,-2.800000,0.980000
18.028370,-0.244000,0.085888,1.220488,25.200001,0.700000,0.000000
18.036457,0.144448,-0.006344,0.663192,19.600000,0.000000,0.280000
18.044545,-0.263032,0.120536,1.124840,21.139999,4.060000,-3.500000
18.052632,0.071248,-0.012200,0.621224,17.639999,-0.280000,-0.280000
18.060719,-0.144448,0.065392,0.955992,14.000000,-2.100000,-0.280000
18.068806,-0.040992,0.141520,0.682712,8.540000,2.800000,-2.380000
18.076894,-0.000488,-0.001952,0.691008,1.820000,1.960000,-2.520000
18.084981,-0.041968,0.027816,0.640744,-6.160000,-1.400000,0.140000
18.093068,-0.097112,0.095648,0.747616,-2.380000,2.800000,-1.260000
18.101155,-0.065392,0.020496,0.650504,-2.800000,0.420000,-0.560000
18.109243,0.028304,-0.013664,0.575840,-0.840000,3.080000,-2.380000
18.117330,-0.060512,-0.001952,0.508008,0.000000,1.960000,-0.560000
18.125417,-0.022936,0.033672,0.472872,2.660000,0.700000,-0.140000
18.133504,-0.042456,0.036600,0.484584,1.680000,2.800000,-0.280000
18.141592,-0.030256,0.034160,0.429928,2.240000,2.940000,-0.700000
18.149679,-0.031720,0.021472,0.401624,2.240000,1.680000,-0.700000
18.157766,-0.031720,0.021960,0.409920,1.400000,0.420000,-0.700000
18.165854,-0.026352,0.032696,0.384544,2.240000,1.120000,-1.120000
18.173941,-0.032696,0.019520,0.390400,1.260000,1.680000,-1.120000
18.182028,-0.045872,0.032696,0.393816,1.540000,0.840000,-0.700000
18.190115,-0.012688,0.020008,0.396256,2.100000,0.280000,-0.980000
18.198203,-0.045384,0.037088,0.403088,1.120000,2.660000,-1.400000
18.206290,-0.046848,0.022936,0.376248,1.120000,0.700000,-1.120000
18.214377,-0.035136,0.032208,0.412848,1.260000,0.280000,-0.980000
18.222464,-0.047336,0.025864,0.400160,0.000000,1.960000,-0.700000
18.230552,-0.042456,0.018544,0.400648,2.380000,-0.280000,-0.280000
18.238639,-0.017568,0.031720,0.429440,3.360000,-0.840000,-0.840000
18.246726,-0.029768,0.012200,0.453352,4.340000,1.960000,-1.540000
18.254813,-0.056608,0.020008,0.462136,7.980000,0.280000,-0.980000
18.262901,-0.032208,0.032208,0.465064,7.980000,-0.140000,-0.280000
18.270988,-0.016104,0.020008,0.494832,10.920000,0.000000,-1.120000
18.279075,-0.043432,0.028304,0.455304,11.200000,2.100000,-1.260000
18.287163,-0.039528,0.042456,0.471896,11.900000,0.000000,-1.120000
18.295250,-0.039040,0.033184,0.497272,10.220000,1.960000,-0.980000
18.303337,-0.032208,0.010736,0.513864,11.760000,0.280000,-0.700000
18.311424,-0.041480,0.014152,0.544120,13.580000,0.280000,-0.420000
18.319512,-0.023912,0.008784,0.556320,14.280000,0.140000,-0.560000
18.327599,-0.021472,0.025864,0.543144,12.880000,0.700000,-0.840000
18.335686,-0.053680,0.025864,0.542168,12.320000,0.700000,-0.420000
18.343773,-0.065392,0.054168,0.630984,13.860000,-2.100000,-0.140000
18.351861,-0.062952,0.075640,0.634400,12.740000,2.240000,-1.540000
18.359948,-0.100528,0.043920,0.658800,13.020000,-0.280000,-1.540000
18.368035,-0.015128,0.016104,0.624640,11.620000,-2.100000,-0.840000
18.376122,0.005368,0.016592,0.624152,11.200000,0.420000,-0.420000
18.384210,-0.043432,0.050264,0.561200,7.560000,0.840000,0.000000
18.392297,-0.104920,0.053192,0.727120,6.860000,-3.080000,-0.560000
18.400384,-0.115656,0.064416,0.727120,6.720000,0.700000,-1.680000
18.408472,0.002928,0.058072,0.648064,3.360000,-0.560000,-1.820000
18.416559,0.000488,0.030744,0.712480,3.220000,-1.260000,-0.980000
18.424646,-0.089792,0.013176,0.699304,0.840000,0.980000,-0.840000
18.432733,-0.097112,0.074176,0.773968,-1.260000,-0.140000,-1.120000
18.440821,-0.046848,0.086376,0.799832,-2.520000,0.140000,-0.700000
18.448908,0.008784,-0.017080,0.779824,-0.840000,-0.700000,-1.680000
18.456995,-0.081984,0.042944,0.831552,-0.560000,1.680000,-1.680000
18.465082,-0.120536,0.097600,0.829600,-0.560000,-0.700000,-1.400000
18.473170,-0.006832,0.007808,0.853024,0.280000,-2.100000,-1.680000
18.481257,-0.040016,0.011224,0.814472,0.140000,5.460000,-0.980000
18.489344,-0.139080,0.103944,0.871568,-0.140000,-1.820000,-1.960000
18.497431,-0.004880,0.017568,0.857416,0.700000,0.840000,-2.240000
18.505519,-0.045872,-0.001952,0.756400,0.560000,0.560000,0.560000
18.513606,-0.115656,0.129320,0.928664,0.700000,0.140000,-1.120000
18.521693,-0.049288,0.012688,0.816424,0.280000,3.220000,-2.100000
18.529780,-0.015128,-0.016592,0.836432,0.700000,-2.380000,0.280000
18.537868,-0.164944,0.141032,0.950624,-0.140000,1.820000,-2.100000
18.545955,-0.006832,-0.015616,0.851072,1.400000,0.560000,-0.980000
18.554042,-0.084912,0.036600,0.933544,0.140000,-2.380000,0.280000
18.562130,-0.165432,0.143472,0.975024,0.420000,4.900000,-1.260000
18.570217,0.042456,-0.097600,0.871080,3.360000,-4.620000,-0.560000
18.578304,-0.132736,0.187880,0.979416,-1.680000,0.000000,0.280000
18.586391,-0.031232,-0.043920,0.975512,2.940000,0.700000,-1.540000
18.594479,-0.071736,0.096136,0.960384,-0.560000,-0.980000,-1.120000
18.602566,-0.120048,0.058560,1.048712,0.980000,3.920000,-2.100000
18.610653,0.006832,-0.036112,0.802760,-0.980000,-1.120000,0.000000
18.618740,-0.187880,0.199104,1.215608,1.820000,0.280000,-1.120000
18.626828,0.054656,-0.120536,0.809592,-0.560000,2.940000,-2.520000
18.634915,-0.227896,0.193736,1.065304,-1.120000,-2.240000,1.260000
18.643002,0.054168,-0.049288,0.964288,0.000000,0.700000,-1.960000
18.651089,-0.120048,0.107360,0.978928,2.100000,2.380000,0.140000
18.659177,-0.119072,0.026840,1.047736,-1.260000,1.680000,-2.660000
18.667264,0.013176,0.018544,0.877424,1.960000,-4.480000,1.540000
18.675351,-0.187392,0.147376,1.186328,0.420000,3.920000,-2.100000
18.683439,0.071248,-0.053192,0.797392,0.560000,1.260000,-1.120000
18.691526,-0.218136,0.127856,1.185840,0.840000,1.260000,-0.840000
18.699613,-0.013664,0.004880,0.862784,1.680000,4.060000,-1.960000
18.707700,-0.092720,0.058560,1.035536,2.380000,-4.060000,1.540000
18.715788,-0.067344,0.087840,1.023824,-0.420000,5.600000,-2.660000
18.723875,-0.064904,-0.034160,0.904752,1.260000,-0.560000,0.280000
18.731962,-0.124440,0.177144,1.073600,0.560000,-0.700000,-1.540000
18.740049,-0.003904,-0.096136,0.899384,0.280000,3.220000,-0.140000
18.748137,-0.175192,0.186416,1.052616,1.120000,-2.380000,0.140000
18.756224,0.042944,-0.034160,0.965264,2.520000,4.340000,-2.100000
18.764311,-0.145424,0.057096,0.942328,-2.100000,-0.140000,0.000000
18.772398,-0.106872,0.114680,1.029680,1.820000,0.000000,-0.980000
18.780486,0.016592,-0.046360,0.918416,0.000000,0.420000,-0.140000
18.788573,-0.153720,0.162016,0.969168,-0.280000,1.540000,-1.120000
18.796660,-0.062464,-0.039528,0.972584,-0.140000,-0.420000,-0.840000
18.804747,-0.089792,0.102968,0.927200,-0.980000,-5.320000,0.140000
18.812835,-0.082960,0.065880,1.030656,0.420000,0.840000,-1.820000
18.820922,-0.029280,-0.027328,0.875960,0.000000,-2.520000,0.000000
18.829009,-0.155184,0.147376,1.042856,0.000000,-3.500000,-0.560000
18.837097,0.014152,-0.024888,0.861808,-0.420000,0.980000,-0.980000
18.845184,-0.086376,0.079056,1.000888,1.120000,-5.180000,-0.280000
18.853271,-0.129808,0.077592,1.002840,-0.420000,3.640000,-3.780000
18.861358,-0.020008,-0.005856,0.778360,0.000000,-6.580000,0.840000
18.869446,-0.123952,0.126880,1.106784,1.260000,-5.320000,-0.700000
18.877533,0.001464,-0.009760,0.892064,-0.980000,4.620000,-1.540000
18.885620,-0.158112,0.067344,0.929152,1.260000,-8.680000,0.840000
18.893707,-0.059536,0.106384,0.997960,0.000000,1.680000,-2.240000
18.901795,-0.000976,-0.049776,0.818864,1.540000,-6.720000,0.840000
18.909882,-0.157136,0.130784,1.022848,0.140000,-3.080000,-1.120000
18.917969,-0.021960,0.031720,0.831552,-0.140000,3.080000,-2.240000
18.926056,-0.095648,0.009272,0.877424,1.820000,-8.960000,0.840000
18.934144,-0.102480,0.128832,0.951112,-0.840000,0.420000,-2.240000
18.942231,0.015128,-0.004880,0.833992,2.240000,-3.500000,-1.540000
18.950318,-0.101504,0.018544,0.872056,0.280000,-6.020000,0.280000
18.958406,-0.049776,0.139080,0.982344,0.700000,3.920000,-1.540000
18.966493,-0.056608,-0.033672,0.824720,0.700000,4.900000,-1.400000
18.974580,-0.122488,0.063440,0.887184,-0.560000,-4.620000,0.980000
18.982667,-0.065880,0.126880,0.933056,1.540000,1.820000,-1.400000
18.990755,0.005856,-0.034160,0.831552,2.100000,0.000000,-2.240000
18.998842,-0.108336,0.091744,0.898896,-2.100000,5.880000,-1.680000
19.006929,-0.092232,0.073688,0.874008,0.140000,-1.400000,-1.260000
19.015016,0.028792,-0.028304,0.865712,2.380000,1.960000,-0.980000
19.023104,-0.162992,0.120048,0.871568,-1.120000,3.220000,-1.540000
19.031191,-0.060512,0.037576,0.945744,2.100000,-1.680000,-2.100000
19.039278,-0.062952,-0.000976,0.817888,-0.280000,2.660000,0.280000
19.047365,-0.125416,0.138592,0.954528,1.680000,-2.660000,-0.560000
19.055453,-0.016592,0.012688,0.858392,1.120000,3.780000,-2.520000
19.063540,-0.028304,0.019520,0.805688,1.260000,-1.960000,-0.140000
19.071627,-0.139568,0.138592,0.962824,0.980000,0.000000,-1.120000
19.079715,0.005856,-0.017080,0.817400,1.960000,1.260000,-1.820000
19.087802,-0.049288,0.033672,0.887672,0.560000,0.420000,-0.560000
19.095889,-0.205448,0.135176,0.924272,-0.140000,4.480000,-1.120000
19.103976,0.067344,-0.042944,0.854000,2.380000,-1.400000,-0.980000
19.112064,-0.141032,0.083936,0.878400,-0.420000,0.700000,0.840000
19.120151,-0.136640,0.101992,0.918904,1.400000,2.100000,-1.960000
19.128238,0.068808,-0.035136,0.851560,1.680000,-2.380000,-0.980000
19.136325,-0.162992,0.103456,0.845216,-2.100000,2.800000,0.420000
19.144413,-0.063440,0.088816,0.917928,2.240000,-0.140000,-1.400000
19.152500,0.043920,-0.039528,0.835944,-0.140000,1.120000,-0.140000
19.160587,-0.181536,0.118096,0.871568,-0.140000,-1.960000,-0.280000
19.168675,-0.029280,0.052704,0.966240,1.400000,3.080000,-1.820000
19.176762,-0.052216,-0.009272,0.784216,-0.280000,1.120000,0.280000
19.184849,-0.135664,0.121024,0.938912,0.280000,-2.380000,0.420000
19.192936,-0.036600,0.052216,0.921344,-0.280000,6.160000,-2.100000
19.201024,0.001464,0.000976,0.811544,1.540000,-2.240000,-1.400000
19.209111,-0.134688,0.095160,0.927200,-2.100000,3.920000,-1.260000
19.217198,-0.036112,0.043920,0.880840,1.820000,-3.500000,-1.820000
19.225285,-0.029768,0.028792,0.878888,1.540000,4.480000,0.140000
19.233373,-0.158112,0.057096,0.894504,0.140000,0.840000,-0.840000
19.241460,-0.009272,0.083448,0.956968,1.680000,-1.260000,-1.960000
19.249547,-0.075152,-0.020984,0.820816,1.400000,3.220000,0.420000
19.257634,-0.107360,0.103944,0.926712,2.520000,-5.600000,0.000000
19.265722,-0.031720,0.091256,0.928664,0.840000,5.600000,-1.120000
19.273809,-0.039528,-0.047824,0.856440,1.400000,-0.700000,-0.420000
19.281896,-0.095648,0.158600,1.026264,0.280000,0.840000,-1.400000
19.289984,-0.049776,-0.027328,0.944768,3.360000,2.940000,-1.260000
19.298071,-0.080032,0.069296,0.975024,2.520000,-6.020000,-0.280000
19.306158,-0.071248,0.137616,1.072136,3.780000,6.160000,-2.240000
19.314245,-0.041968,-0.098088,0.908168,2.380000,-2.520000,-1.260000
19.322333,-0.175192,0.263520,1.199992,3.360000,0.000000,-0.280000
19.330420,0.058560,-0.158600,0.894016,2.660000,1.680000,-1.400000
19.338507,-0.224968,0.265960,1.251720,3.640000,-4.200000,1.680000
19.346594,0.103456,-0.115168,0.980392,1.960000,3.500000,-3.780000
19.354682,-0.242536,0.225456,1.267824,3.500000,-4.060000,0.840000
19.362769,0.089304,-0.064416,1.075064,-0.840000,8.400000,-4.760000
19.370856,-0.327448,0.121512,1.318576,3.920000,-9.240000,3.640000
19.378943,0.220088,0.035136,1.098488,2.380000,9.240000,-3.360000
19.387031,-0.392352,0.135664,1.396168,2.380000,-8.540000,0.000000
19.395118,0.175680,-0.041480,1.147288,2.800000,6.580000,-0.420000
19.403205,-0.273768,0.181536,1.364448,1.820000,-0.420000,-1.540000
19.411293,0.018056,-0.066368,1.260504,4.340000,-2.800000,1.260000
19.419380,-0.126880,0.187880,1.316136,3.640000,5.740000,-2.100000
19.427467,-0.091744,0.070760,1.280024,-0.560000,-3.360000,-1.260000
19.435554,-0.040016,-0.058072,1.349808,6.160000,-0.280000,-1.120000
19.443642,-0.158600,0.266448,1.286856,1.680000,3.360000,-0.140000
19.451729,0.031720,-0.085400,1.240496,3.080000,2.660000,-3.220000
19.459816,-0.251808,0.130296,1.386896,2.940000,1.120000,1.820000
19.467903,0.060512,0.125416,1.157536,-1.680000,0.420000,-0.140000
19.475991,-0.037088,-0.056120,1.345904,2.800000,1.540000,-3.640000
19.484078,-0.283040,0.265472,1.276608,-2.800000,0.700000,0.560000
19.492165,0.156160,-0.127856,1.172176,-0.140000,-1.540000,-2.660000
19.500252,-0.261568,0.176656,1.442040,1.120000,1.680000,0.420000
19.508340,-0.018544,0.121512,1.111664,-4.060000,-2.100000,-0.700000
19.516427,-0.027328,-0.111752,1.355176,2.520000,6.160000,-2.800000
19.524514,-0.261568,0.307928,1.278072,-0.420000,-5.040000,0.840000
19.532602,0.159576,-0.139080,1.146800,-1.120000,2.660000,-2.240000
19.540689,-0.315248,0.167872,1.392264,1.400000,3.920000,-0.280000
19.548776,0.075640,0.095160,1.122400,-1.540000,-4.060000,-1.260000
19.556863,-0.112728,-0.060512,1.314672,0.000000,7.980000,-3.220000
19.564951,-0.140056,0.206424,1.231224,2.380000,-5.740000,1.540000
19.573038,0.083936,-0.012200,1.208288,-0.980000,2.800000,-3.220000
19.581125,-0.295240,0.087840,1.342000,1.960000,0.000000,0.140000
19.589212,0.080520,0.085888,1.229272,1.820000,1.540000,-2.100000
19.597300,-0.199104,0.063928,1.255136,-0.700000,0.000000,-0.700000
19.605387,-0.080032,0.051240,1.337120,1.400000,-3.920000,2.100000
19.613474,-0.009272,0.102480,1.281488,3.640000,4.620000,-2.800000
19.621561,-0.172264,0.107848,1.301008,-1.260000,-0.140000,-1.680000
19.629649,0.000000,-0.048800,1.341024,1.960000,1.820000,-2.520000
19.637736,-0.161528,0.190320,1.337120,1.260000,0.560000,-0.420000
19.645823,-0.080520,0.110288,1.241472,-2.240000,0.140000,-0.420000
19.653911,-0.057584,-0.081496,1.443504,3.780000,1.820000,-0.980000
19.661998,-0.138592,0.212280,1.308328,0.420000,1.680000,0.000000
19.670085,-0.015616,0.070272,1.282464,-3.080000,-3.640000,-1.960000
19.678172,-0.120048,-0.090280,1.403976,3.780000,7.280000,-0.560000
19.686260,-0.144936,0.262544,1.256600,0.840000,-4.340000,-0.560000
19.694347,-0.002440,0.073688,1.348832,-3.080000,0.000000,-2.520000
19.702434,-0.150304,-0.112728,1.374696,4.620000,4.200000,-0.560000
19.710521,-0.091744,0.291824,1.332728,0.840000,-0.980000,-1.260000
19.718609,-0.022448,-0.001952,1.239520,-2.660000,5.740000,-3.220000
19.726696,-0.198128,-0.035624,1.384944,4.340000,-4.340000,1.120000
19.734783,-0.062464,0.263032,1.303448,-0.840000,1.960000,0.140000
19.742870,-0.000488,-0.027816,1.178520,-0.840000,4.340000,-3.220000
19.750958,-0.211304,0.032208,1.381040,3.920000,-2.800000,-0.840000
19.759045,-0.054168,0.221064,1.130696,-2.660000,4.760000,0.280000
19.767132,-0.005368,-0.108336,1.149728,2.240000,-0.700000,-1.960000
19.775220,-0.240584,0.212280,1.217560,0.980000,0.140000,2.800000
19.783307,0.173240,-0.010736,0.875960,-1.120000,5.600000,-4.480000
19.791394,-0.387472,0.116632,1.179984,2.100000,-3.500000,2.100000
19.799481,0.273280,0.009760,0.760792,-0.560000,4.760000,-1.540000
19.807569,-0.331840,0.111752,1.042368,2.520000,-0.140000,0.420000
19.815656,0.087352,0.040016,0.742248,-0.700000,3.780000,-2.520000
19.823743,-0.101016,0.061000,0.766160,0.140000,-0.560000,-0.700000
19.831830,-0.042456,0.053680,0.761280,2.660000,3.360000,1.260000
19.839918,-0.122000,0.064416,0.721752,-0.560000,0.700000,-2.380000
19.848005,0.004880,0.073688,0.657824,1.680000,-3.080000,-1.680000
19.856092,-0.043432,0.028304,0.600240,0.560000,0.700000,-0.560000
19.864179,-0.032696,0.031720,0.657824,2.660000,-6.440000,0.840000
19.872267,-0.025864,0.069296,0.625616,0.560000,2.940000,-0.700000
19.880354,-0.146888,0.046360,0.636352,0.280000,-6.020000,-0.700000
19.888441,-0.029280,0.090280,0.667584,0.560000,-3.500000,-1.540000
19.896529,-0.068320,0.054168,0.632936,0.560000,-2.240000,-1.960000
19.904616,0.013176,0.040016,0.607560,1.120000,-3.360000,-1.120000
19.912703,-0.034648,0.026840,0.612440,0.560000,-0.280000,-0.420000
19.920790,-0.035136,0.028792,0.588040,1.400000,-5.460000,0.140000
19.928878,-0.078080,0.083448,0.645136,0.000000,-2.240000,-0.840000
19.936965,-0.068808,0.075152,0.729560,0.980000,0.980000,-2.380000
19.945052,-0.077104,0.079544,0.685152,0.420000,5.880000,-2.940000
19.953139,-0.018056,0.040016,0.633912,0.560000,1.960000,-1.260000
19.961227,-0.028792,0.001464,0.687104,0.140000,-1.400000,-0.420000
19.969314,-0.088816,0.057584,0.680760,-0.700000,-1.820000,-0.140000
19.977401,-0.067344,0.103456,0.770064,1.400000,2.240000,-2.940000
19.985489,-0.083448,0.076616,0.731512,-0.140000,4.480000,-2.660000
19.993576,-0.040992,-0.001952,0.740296,0.560000,-5.320000,-0.140000
20.001663,-0.052216,0.056608,0.798368,0.700000,-1.120000,-0.420000
20.009750,-0.139080,0.107360,0.816912,1.120000,4.620000,-2.660000
20.017838,-0.061000,0.043920,0.816424,1.400000,0.140000,-2.240000
20.025925,-0.004880,0.014152,0.760792,-0.700000,-1.680000,-0.840000
20.034012,-0.118096,0.096624,0.823744,0.840000,-0.280000,-0.980000
20.042099,-0.067344,0.081496,0.844728,1.680000,2.380000,-2.100000
20.050187,-0.030744,0.010736,0.733952,0.280000,-0.280000,-0.840000
20.058274,-0.071736,0.079544,0.785680,0.560000,-1.120000,0.280000
20.066361,-0.106872,0.106872,0.865712,0.560000,1.120000,-1.260000
20.074448,-0.036600,0.021472,0.755424,0.140000,-1.400000,-1.680000
20.082536,-0.082472,0.053680,0.795440,0.140000,-4.480000,0.140000
20.090623,-0.223016,0.113704,0.819352,-1.540000,-12.180000,-0.280000
20.098710,-0.023912,0.007320,0.773480,0.840000,-30.380001,-0.560000
20.106798,-0.004392,0.060024,0.807152,-0.840000,-22.400000,0.280000
20.114885,-0.069784,0.082960,0.790560,0.560000,-9.380000,-0.980000
20.122972,-0.135176,0.088328,0.850096,-0.280000,-11.760000,-1.680000
20.131059,0.032208,0.001464,0.667096,-0.840000,-17.780001,-0.560000
20.139147,-0.028304,0.088328,0.803736,0.700000,-17.639999,-0.560000
20.147234,-0.122976,0.072224,0.805688,-2.660000,-5.460000,-1.960000
20.155321,-0.111264,0.072712,0.786168,-0.140000,-18.340000,-1.680000
20.163408,0.041968,0.033672,0.756888,0.840000,-20.580000,0.980000
20.171496,-0.112240,0.066856,0.832528,-0.280000,-14.000000,0.420000
20.179583,-0.117120,0.107848,0.866688,-0.280000,-14.000000,-1.400000
20.187670,-0.005856,0.023912,0.735904,0.420000,-16.520000,0.140000
20.195758,-0.032696,0.054168,0.859856,2.660000,-19.600000,0.700000
20.203845,-0.058072,0.126392,0.928176,0.560000,-4.060000,-3.360000
20.211932,-0.041480,0.043432,0.828624,0.280000,-3.780000,-2.520000
20.220019,-0.061000,0.005368,0.875960,0.560000,-9.380000,0.140000
20.228107,-0.078080,0.170800,1.025776,1.960000,-1.820000,-1.400000
20.236194,0.055144,0.007808,0.921832,0.140000,16.100000,-2.800000
20.244281,-0.156648,0.086376,0.925248,-0.140000,15.960000,-0.980000
20.252368,-0.132248,0.100040,0.992592,0.280000,-2.240000,-1.960000
20.260456,-0.011712,0.011712,0.957456,0.840000,-4.760000,0.140000
20.268543,-0.111264,0.163968,1.161928,0.840000,2.100000,-3.640000
20.276630,-0.003904,-0.014152,0.915976,1.540000,5.180000,-0.700000
20.284717,-0.202032,0.161040,1.175592,0.840000,-5.320000,-2.520000
20.292805,0.093696,0.006832,0.964776,1.260000,-0.420000,-1.400000
20.300892,-0.277184,0.168848,1.221952,0.000000,5.180000,-2.800000
20.308979,0.094672,-0.031720,0.873520,1.400000,-5.040000,1.960000
20.317067,-0.259616,0.190320,1.306864,0.280000,2.800000,-2.660000
20.325154,0.118096,-0.032208,0.891576,1.820000,-1.820000,-0.140000
20.333241,-0.249856,0.198128,1.281488,-3.220000,2.800000,-3.360000
20.341328,0.041968,-0.064416,0.968192,2.940000,-2.660000,0.700000
20.349416,-0.179096,0.258640,1.217560,-1.680000,-0.140000,-1.820000
20.357503,0.032696,-0.115656,0.989664,0.980000,4.200000,0.000000
20.365590,-0.239120,0.288896,1.169248,-0.560000,-3.360000,-1.680000
20.373677,0.130296,-0.157136,1.029680,0.980000,1.400000,0.140000
20.381765,-0.280112,0.309392,1.193648,-2.240000,1.540000,-1.400000
20.389852,0.130784,-0.144936,1.008208,2.240000,-0.420000,-0.980000
20.397939,-0.295728,0.276208,1.200968,-1.400000,2.520000,-0.980000
20.406027,0.148352,-0.067344,1.005280,-0.140000,-2.240000,-0.980000
20.414114,-0.306464,0.187392,1.267824,0.560000,5.880000,-1.540000
20.422201,0.122000,0.013664,0.943304,0.420000,-7.280000,0.280000
20.430288,-0.240096,0.113216,1.350784,2.380000,8.960000,-3.360000
20.438376,-0.016104,0.091744,0.860832,-0.420000,-6.720000,3.220000
20.446463,-0.076128,0.032696,1.346392,2.100000,2.100000,-2.380000
20.454550,-0.083936,0.177144,0.988200,0.000000,-0.700000,1.960000
20.462637,-0.034648,-0.039528,1.191696,1.400000,4.900000,-6.300000
20.470725,-0.253760,0.215696,1.193160,1.820000,-7.140000,4.060000
20.478812,0.205936,-0.059048,1.098488,0.560000,9.380000,-4.620000
20.486899,-0.400160,0.222528,1.341024,1.540000,-7.420000,2.520000
20.494986,0.242536,0.014152,0.986248,-0.280000,10.220000,-3.640000
20.503074,-0.392840,0.081496,1.414712,0.700000,-8.260000,0.560000
20.511161,0.155184,0.125416,1.019432,0.560000,6.440000,0.560000
20.519248,-0.160552,0.027816,1.252696,0.980000,0.000000,-3.220000
20.527336,-0.109800,0.144448,1.278560,0.140000,-1.680000,0.420000
20.535423,0.001952,0.049288,1.075064,-0.420000,6.720000,-3.360000
20.543510,-0.203496,0.109312,1.355176,0.140000,-7.140000,1.960000
20.551597,0.099552,0.094672,1.164368,0.280000,10.360000,-2.940000
20.559685,-0.258640,0.051240,1.191696,-0.840000,-2.380000,-0.980000
20.567772,0.037576,0.105896,1.293688,2.240000,1.540000,-0.980000
20.575859,-0.141032,0.073688,1.107272,0.000000,5.180000,-1.400000
20.583946,-0.066368,0.112728,1.284416,0.560000,-6.860000,1.120000
20.592034,0.015128,0.048312,1.165832,2.240000,9.240000,-2.940000
20.600121,-0.240096,0.118584,1.110688,-1.120000,-4.340000,0.280000
20.608208,0.131272,0.025376,1.043344,2.660000,3.780000,-1.540000
20.616296,-0.299632,0.174216,1.159488,-0.980000,0.700000,0.140000
20.624383,0.179096,-0.052704,0.905728,1.540000,-3.220000,-0.420000
20.632470,-0.285968,0.251320,1.128744,0.280000,6.720000,-1.120000
20.640557,0.174704,-0.130296,0.736880,0.980000,-2.660000,-0.980000
20.648645,-0.272304,0.275720,1.094096,-1.820000,3.640000,-1.120000
20.656732,0.070272,-0.064904,0.651480,1.820000,0.700000,-0.280000
20.664819,-0.036600,0.101504,0.839360,1.820000,0.420000,-0.140000
20.672906,-0.152256,0.134200,0.659288,-1.820000,6.860000,-1.820000
20.680994,0.019032,0.110776,0.590480,-9.380000,-0.280000,-3.080000
20.689081,-0.091256,0.054168,0.682224,-15.680000,1.960000,-1.120000
20.697168,0.024400,0.001952,0.589016,-10.220000,0.560000,-0.560000
20.705255,-0.070760,0.048800,0.651480,-6.860000,1.260000,0.000000
20.713343,-0.051240,0.096624,0.565592,-8.820000,4.900000,-0.980000
20.721430,-0.078080,0.085400,0.592920,-8.260000,-1.260000,-0.560000
20.729517,-0.025376,0.064416,0.576816,-10.640000,1.120000,-1.260000
20.737605,-0.019032,0.077104,0.528504,-11.480000,2.240000,-1.820000
20.745692,-0.029280,0.046848,0.537776,-11.340000,2.520000,-1.120000
20.753779,-0.034648,0.030744,0.536312,-10.360000,0.420000,-0.840000
20.761866,-0.012200,0.046360,0.520208,-10.220000,0.840000,-1.400000
20.769954,-0.044408,0.046848,0.525088,-10.640000,3.360000,-1.120000
20.778041,-0.050264,0.029280,0.575840,-10.220000,-1.260000,-0.980000
20.786128,-0.022936,0.064904,0.591456,-9.240000,2.800000,-0.700000
20.794215,-0.044896,0.064904,0.562664,-7.000000,1.120000,-1.260000
20.802303,-0.071736,0.055632,0.633424,-6.020000,0.560000,-0.980000
20.810390,-0.033184,0.061488,0.606096,-0.700000,1.120000,-1.680000
20.818477,-0.022448,0.040016,0.613904,1.260000,-0.980000,-1.680000
20.826564,-0.023424,0.068808,0.612928,3.920000,1.960000,-1.120000
20.834652,-0.033672,0.007808,0.566568,4.200000,0.140000,-0.140000
20.842739,-0.034648,0.046360,0.652944,3.080000,0.420000,-0.980000
20.850826,-0.048800,0.069296,0.557296,1.680000,2.520000,-1.400000
20.858914,-0.061000,0.054168,0.635376,0.280000,-2.380000,-1.120000
20.867001,-0.022936,0.111752,0.644160,-0.280000,1.400000,-1.540000
20.875088,-0.072712,0.044896,0.671488,0.980000,2.240000,-2.100000
20.883175,0.009760,0.032208,0.640256,2.520000,-2.660000,-0.840000
20.891263,-0.044896,0.045872,0.710040,0.140000,2.800000,-0.700000
20.899350,-0.101992,0.072224,0.706624,0.000000,0.980000,-0.560000
20.907437,-0.031720,0.093696,0.719800,0.280000,-1.820000,-1.540000
20.915524,-0.020496,0.047824,0.696376,-1.260000,2.100000,-0.700000
20.923612,-0.009272,0.025376,0.753960,1.400000,-2.520000,-1.260000
20.931699,-0.109312,0.104432,0.868640,-0.420000,2.520000,-2.100000
20.939786,-0.125904,0.076616,0.800320,-0.280000,0.560000,-1.680000
20.947873,0.112728,0.031720,0.833504,-0.840000,-5.460000,-1.820000
20.955961,-0.145912,0.101504,0.895480,-5.880000,6.860000,-0.420000
20.964048,-0.102480,0.111752,0.944768,-6.160000,-3.080000,-3.360000
20.972135,0.056120,0.005368,0.945744,-4.760000,1.260000,-0.840000
20.980223,-0.179096,0.156648,1.037976,-6.860000,0.840000,-1.400000
20.988310,0.067344,-0.002928,0.998936,-1.680000,-1.120000,-0.700000
20.996397,-0.190808,0.159088,1.080920,-7.700000,4.060000,-2.940000
21.004484,0.053192,-0.012200,1.000888,-0.980000,-2.660000,-1.680000
21.012572,-0.171288,0.185928,1.140456,-7.980000,2.240000,-1.400000
21.020659,0.019520,-0.043920,1.007720,-1.120000,1.540000,-1.260000
21.028746,-0.165432,0.224480,1.194136,-5.460000,-2.240000,-1.540000
21.036833,0.017568,-0.113216,1.092144,-0.420000,5.460000,-0.420000
21.044921,-0.173728,0.230336,1.205848,6.720000,-7.140000,0.700000
21.053008,0.131760,-0.080032,1.038464,7.280000,4.900000,-1.540000
21.061095,-0.280112,0.307440,1.154608,0.980000,-0.280000,-1.540000
21.069182,0.108824,-0.110776,1.023336,-1.400000,1.820000,-0.700000
21.077270,-0.259616,0.201544,1.336144,5.460000,-2.520000,-1.960000
21.085357,0.141520,0.059048,0.997472,-0.700000,2.100000,-1.680000
21.093444,-0.262056,0.043432,1.318576,1.260000,4.060000,-3.640000
21.101532,-0.052704,0.198128,1.183888,-2.100000,-9.660000,4.340000
21.109619,0.131760,-0.042456,1.150216,0.280000,8.260000,-5.040000
21.117706,-0.351848,0.199592,1.313208,2.100000,-3.780000,1.820000
21.125793,0.205448,0.068320,1.036024,-1.540000,1.680000,-3.500000
21.133881,-0.282064,0.043432,1.375672,0.000000,3.360000,-1.960000
21.141968,-0.017080,0.147864,1.191696,1.400000,-2.100000,0.420000
21.150055,0.002928,0.051728,1.153632,0.700000,4.060000,-2.660000
21.158142,-0.202520,0.103944,1.283440,0.560000,-1.540000,1.120000
21.166230,0.058072,0.074664,1.176568,-0.980000,0.140000,-2.660000
21.174317,-0.150792,0.139080,1.266360,0.840000,-0.980000,-1.120000
21.182404,-0.028304,0.055632,1.196088,-0.560000,4.760000,-0.980000
21.190491,-0.135664,0.064416,1.245376,1.680000,-2.520000,-0.280000
21.198579,-0.064904,0.195200,1.219512,-1.120000,0.560000,0.980000
21.206666,0.077104,-0.036600,1.150704,0.560000,3.360000,-4.480000
21.214753,-0.324032,0.206912,1.282952,-0.700000,-2.660000,1.260000
21.222840,0.147864,0.086376,0.999912,-7.700000,1.260000,-0.840000
21.230928,-0.154208,-0.013176,1.375184,-2.240000,3.080000,-2.380000
21.239015,-0.131272,0.258152,1.162904,-7.140000,-2.100000,0.840000
21.247102,0.125904,-0.025864,1.090680,-10.920000,6.580000,-5.460000
21.255190,-0.332816,0.130784,1.396168,-6.300000,-5.880000,0.420000
21.263277,0.129808,0.118096,1.081408,-11.620000,5.180000,-1.960000
21.271364,-0.188368,0.069784,1.287344,-9.380000,-1.540000,-1.400000
21.279451,-0.045872,0.071248,1.279536,-9.940000,0.280000,0.840000
21.287539,-0.035136,0.104920,1.185352,-8.260000,3.080000,-3.080000
21.295626,-0.161040,0.112728,1.253184,-10.500000,-2.660000,-0.560000
21.303713,0.058560,0.034160,1.246352,-10.780000,6.860000,-3.780000
21.311800,-0.287920,0.119560,1.283928,-8.680000,-3.500000,0.420000
21.319888,0.100528,0.131272,1.149240,-10.920000,-0.420000,0.000000
21.327975,-0.077592,-0.028792,1.313696,-9.800000,6.720000,-4.900000
21.336062,-0.269376,0.197152,1.271240,-7.840000,-3.920000,1.120000
21.344149,0.139568,0.091744,1.054080,-12.320000,3.640000,-2.100000
21.352237,-0.211792,-0.041480,1.440576,-7.840000,0.140000,-1.260000
21.360324,-0.111264,0.240584,1.235128,-9.940000,2.240000,-0.420000
21.368411,0.037088,-0.014152,1.102392,-8.820000,-1.680000,-3.360000
21.376499,-0.191296,0.113704,1.387872,-8.540000,0.420000,-0.560000
21.384586,-0.068808,0.142008,1.219512,-9.660000,5.320000,-2.660000
21.392673,-0.074176,-0.036112,1.184864,-7.000000,-2.940000,-0.140000
21.400760,-0.055144,0.210816,1.215120,-12.320000,3.080000,0.420000
21.408848,-0.092232,-0.042944,1.243424,-8.960000,0.840000,-1.820000
21.416935,-0.150792,0.204960,1.244400,-7.420000,0.420000,-0.700000
21.425022,0.052216,0.051240,1.094584,-14.280000,1.820000,-3.360000
21.433109,-0.228872,-0.014640,1.363960,-5.880000,0.000000,0.560000
21.441197,-0.037576,0.320616,1.155584,-11.480000,2.380000,-0.840000
21.449284,0.019032,-0.221064,1.171688,-8.260000,1.260000,-3.220000
21.457371,-0.244488,0.320616,1.339072,-9.800000,-0.140000,0.280000
21.465458,0.045872,-0.022448,0.975512,-12.600000,0.700000,-1.400000
21.473546,-0.095648,0.080032,1.346392,-9.520000,1.400000,-0.700000
21.481633,-0.167384,0.185928,1.203896,-18.480000,3.080000,-1.260000
21.489720,0.012200,-0.077104,1.155584,-8.400000,-1.540000,-0.840000
21.497808,-0.140544,0.245464,1.270264,-12.740000,3.360000,-1.820000
21.505895,-0.062952,-0.080032,1.142408,-13.720000,0.980000,-0.700000
21.513982,-0.095160,0.203008,1.238056,-11.200000,1.960000,-0.420000
21.522069,-0.091744,0.010736,1.146312,-14.280000,-2.800000,0.560000
21.530157,-0.052704,0.087840,1.285880,-8.260000,6.020000,-0.140000
21.538244,-0.106384,0.168848,1.144848,-16.520000,-2.380000,-2.520000
21.546331,-0.010736,-0.113704,1.270752,-10.780000,4.620000,-1.400000
21.554418,-0.225944,0.288408,1.218048,-9.100000,0.000000,-0.280000
21.562506,0.069296,-0.113216,1.138504,-9.380000,1.680000,-0.560000
21.570593,-0.156160,0.160552,1.278072,-5.320000,3.640000,-1.400000
21.578680,-0.086864,0.117608,1.142896,-7.560000,-3.080000,0.840000
21.586767,-0.045872,-0.047336,1.270264,1.960000,9.100000,-1.400000
21.594855,-0.204472,0.199104,1.239520,-1.260000,-8.960000,0.560000
21.602942,0.156160,-0.043432,1.099952,-3.080000,11.900000,-1.820000
21.611029,-0.362584,0.154696,1.319552,7.560000,-6.160000,-0.140000
21.619117,0.127368,0.101992,1.068232,-1.260000,-0.700000,0.560000
21.627204,-0.122488,0.005368,1.227320,-0.420000,9.100000,-5.320000
21.635291,-0.257176,0.154208,1.181936,1.540000,-8.120000,4.480000
21.643378,0.208864,0.011712,1.094584,-1.820000,10.220000,-2.800000
21.651466,-0.365024,0.130296,1.333704,2.240000,-7.280000,0.700000
21.659553,0.211792,0.064904,1.003816,-0.280000,7.280000,-2.660000
21.667640,-0.347944,0.071248,1.281976,-2.380000,0.560000,-2.380000
21.675727,0.091256,0.064416,1.122400,2.940000,-4.620000,1.120000
21.683815,-0.112728,0.116632,1.210240,-1.680000,9.940000,-3.920000
21.691902,-0.214232,0.022936,1.126304,0.840000,-5.460000,3.780000
21.699989,0.145424,0.127368,1.166808,1.820000,3.780000,-2.240000
21.708076,-0.308904,0.033672,1.229272,-2.800000,1.120000,0.560000
21.716164,0.128344,0.071248,1.123864,6.440000,-1.120000,-3.360000
21.724251,-0.271816,0.152256,1.196088,-2.520000,-0.560000,0.840000
21.732338,0.092720,-0.016592,1.098488,1.820000,2.940000,-0.140000
21.740425,-0.217160,0.179584,1.254160,0.420000,0.420000,-2.520000
21.748513,0.039528,-0.037088,1.129720,0.140000,1.820000,-1.540000
21.756600,-0.159576,0.148840,1.196576,2.800000,-0.280000,-1.260000
21.764687,-0.076616,0.079056,1.085312,-1.120000,-3.500000,2.660000
21.772775,-0.007808,0.024400,1.144848,2.380000,9.800000,-3.500000
21.780862,-0.227896,0.183488,1.085800,0.280000,-8.120000,0.560000
21.788949,0.160552,-0.092720,1.017968,0.280000,7.420000,-3.220000
21.797036,-0.370392,0.273280,1.098976,0.420000,-4.620000,2.240000
21.805124,0.233752,-0.109312,0.916952,0.980000,8.260000,-2.940000
21.813211,-0.356728,0.228872,1.077504,0.280000,-3.640000,1.540000
21.821298,0.225944,-0.088816,0.906216,2.100000,4.200000,-4.620000
21.829385,-0.286944,0.181048,0.898896,-0.840000,1.120000,1.540000
21.837473,0.016104,0.044896,1.022360,3.220000,0.420000,-2.800000
21.845560,-0.009760,0.011224,0.822768,0.000000,2.100000,0.140000
21.853647,-0.171776,0.139080,0.935984,0.000000,3.080000,-0.700000
21.861735,0.024888,0.002440,0.819352,2.380000,-2.380000,-1.120000
21.869822,-0.029768,0.065880,0.757376,0.280000,3.640000,0.000000
21.877909,-0.131760,0.111752,0.765184,0.000000,3.360000,-0.980000
21.885996,-0.027816,0.056608,0.752496,1.120000,0.000000,-0.840000
21.894084,0.012200,-0.009760,0.665144,0.140000,1.400000,-0.840000
21.902171,-0.072224,0.073200,0.665144,0.980000,3.500000,-0.420000
21.910258,-0.070272,0.098088,0.605608,0.420000,1.680000,-0.560000
21.918345,-0.071736,0.066856,0.707600,1.120000,-0.420000,-1.820000
21.926433,-0.008296,0.047336,0.620248,1.540000,4.340000,-2.100000
21.934520,-0.031720,-0.013664,0.589016,1.260000,0.980000,-0.700000
21.942607,-0.001464,0.055144,0.568032,1.260000,0.280000,0.140000
21.950694,-0.091256,0.063440,0.623176,0.840000,2.100000,-0.420000
21.958782,-0.057096,0.103456,0.590968,1.960000,0.700000,-1.260000
21.966869,-0.071248,0.081008,0.566080,0.840000,1.820000,-1.540000
21.974956,-0.035624,0.029768,0.600728,2.100000,-0.700000,-1.960000
21.983044,-0.008296,0.037576,0.580720,-0.280000,2.520000,-1.960000
21.991131,-0.004880,0.022936,0.518256,1.680000,0.980000,-1.400000
21.999218,-0.038552,0.020984,0.536800,1.120000,1.260000,-0.140000
22.007305,-0.046360,0.053680,0.554856,0.980000,0.700000,-0.140000
22.015393,-0.044408,0.077592,0.544120,0.980000,1.680000,-1.260000
22.023480,-0.091744,0.068808,0.566568,-0.140000,1.120000,-1.680000
22.031567,-0.063928,0.049288,0.590480,0.420000,0.000000,-1.120000
22.039654,-0.030744,0.056608,0.577792,0.420000,-0.980000,-1.960000
22.047742,-0.009272,0.046848,0.552904,0.840000,1.120000,-2.100000
22.055829,-0.032208,0.031720,0.498248,0.700000,2.520000,-0.980000
22.063916,-0.043920,0.040016,0.553392,1.400000,-2.380000,-0.280000
22.072003,-0.021960,0.044408,0.572912,1.120000,1.820000,-0.980000
22.080091,-0.045872,0.041968,0.508496,0.560000,1.400000,-0.980000
22.088178,-0.038552,0.040504,0.529480,1.120000,-2.380000,-0.700000
22.096265,-0.044408,0.031232,0.537288,0.140000,1.960000,-1.260000
22.104353,-0.080520,0.040016,0.542656,0.280000,-0.700000,-1.260000
22.112440,-0.036112,0.060512,0.577304,0.700000,1.260000,-1.960000
22.120527,-0.050264,0.049776,0.510448,0.420000,1.260000,-1.680000
22.128614,-0.049776,0.049288,0.591944,1.960000,-2.380000,-1.120000
22.136702,-0.019520,0.053680,0.614392,1.260000,1.680000,-1.680000
22.144789,-0.031720,0.040992,0.596824,1.680000,0.840000,-1.820000
22.152876,-0.072712,0.011224,0.689544,1.820000,-0.700000,-0.840000
22.160963,-0.059536,0.057584,0.704672,0.560000,0.560000,-0.420000
22.169051,-0.093208,0.092720,0.828624,2.100000,-2.380000,-1.540000
22.177138,-0.022448,0.027328,0.873032,0.980000,2.660000,-2.660000
22.185225,-0.038064,0.040992,0.770064,0.700000,10.640000,-0.140000
22.193313,-0.088328,0.080520,1.036024,1.680000,9.660000,-2.380000
22.201400,-0.059048,0.084424,0.894504,-0.280000,14.840000,-3.360000
22.209487,-0.106872,-0.026352,1.006744,2.100000,0.700000,0.280000
22.217574,-0.048800,0.189832,1.149728,1.400000,10.640000,-2.100000
22.225662,-0.106872,-0.091744,1.081896,0.700000,8.680000,-0.420000
22.233749,-0.135176,0.214232,1.207312,2.380000,11.060000,-0.280000
22.241836,-0.041480,-0.004392,1.111176,-1.680000,1.400000,-0.140000
22.249923,-0.057096,0.059536,1.316624,3.080000,13.020000,-3.360000
22.258011,-0.260592,0.164456,1.184376,-2.660000,0.840000,1.120000
22.266098,0.158600,-0.068320,1.243424,2.940000,15.960000,-3.780000
22.274185,-0.380640,0.183488,1.393728,2.380000,-4.340000,0.280000
22.282272,0.094184,0.031720,1.283440,-0.700000,1.400000,-0.980000
22.290360,-0.199592,0.084912,1.265384,-0.840000,9.100000,-2.100000
22.298447,-0.107848,0.089304,1.345416,2.520000,-16.100000,1.960000
22.306534,-0.053192,0.036112,1.456192,-0.560000,6.020000,-1.260000
22.314622,-0.149328,0.126392,1.316624,3.640000,-1.120000,-1.820000
22.322709,-0.065880,0.101504,1.259040,-3.360000,0.700000,-1.820000
22.330796,-0.040992,-0.087840,1.387384,2.800000,-2.380000,-1.540000
22.338883,-0.176656,0.209840,1.493280,3.080000,1.120000,-0.280000
22.346971,-0.164456,0.108824,1.141432,-4.060000,1.120000,0.420000
22.355058,0.097600,-0.060512,1.327848,3.780000,-2.520000,-0.420000
22.363145,-0.182512,0.180072,1.418128,0.420000,3.920000,-2.240000
22.371232,-0.118584,0.011712,1.159976,-0.980000,2.240000,-0.140000
22.379320,0.014152,0.063440,1.223416,3.360000,3.360000,-1.260000
22.387407,-0.205448,0.158112,1.206336,-3.640000,-3.220000,-0.140000
22.395494,0.037576,-0.100528,1.231712,1.960000,3.360000,-1.540000
22.403581,-0.202520,0.279624,1.031632,-2.940000,3.500000,0.000000
22.411669,0.010736,-0.143472,1.099952,2.100000,-1.960000,1.260000
22.419756,-0.115656,0.252784,1.089216,0.840000,3.920000,-3.080000
22.427843,0.001464,-0.153720,0.908656,-1.120000,1.400000,-0.420000
22.435931,-0.192272,0.269376,1.058960,-1.120000,1.120000,-0.980000
22.444018,0.057096,-0.085400,0.907192,0.700000,1.260000,-0.560000
22.452105,-0.187392,0.156160,1.021872,0.560000,5.600000,-0.560000
22.460192,0.030744,-0.028304,0.966728,3.080000,-2.800000,-0.980000
22.468280,-0.163480,0.106384,0.958920,-0.420000,2.520000,0.980000
22.476367,-0.020008,0.084424,0.999424,2.240000,1.540000,-2.520000
22.484454,-0.040016,0.008784,0.935008,1.400000,3.220000,0.140000
22.492541,-0.157624,0.097600,1.035048,0.140000,-0.280000,-1.540000
22.500629,0.017568,0.068320,0.939888,2.660000,-1.400000,-0.140000
22.508716,-0.117120,0.057096,1.060424,-4.760000,2.660000,-2.240000
22.516803,-0.055632,0.128344,1.047736,-3.220000,3.920000,-1.540000
22.524891,-0.116632,0.008296,1.057008,-10.220000,-2.800000,-0.700000
22.532978,-0.069784,0.123952,1.189256,-8.260000,2.240000,-0.840000
22.541065,-0.026352,0.048312,1.032608,-14.840000,-1.260000,-2.660000
22.549152,-0.151768,0.017080,1.292712,-7.420000,4.340000,-1.820000
22.557240,-0.033184,0.166896,0.979904,-12.180000,-3.920000,-0.560000
22.565327,-0.058072,-0.052216,1.316624,-8.400000,6.720000,-4.480000
22.573414,-0.211304,0.209352,1.067256,-11.760000,-0.840000,0.280000
22.581501,0.104432,-0.108336,1.152168,-8.120000,0.560000,-2.240000
22.589589,-0.278648,0.245952,1.334192,-9.380000,1.120000,1.120000
22.597676,0.121024,-0.128832,1.010160,-5.880000,5.180000,-3.080000
22.605763,-0.266448,0.178120,1.403976,0.420000,-3.220000,0.420000
22.613850,0.069784,-0.030256,1.006744,3.080000,4.480000,0.280000
22.621938,-0.143960,0.148352,1.240496,1.540000,-0.840000,-1.680000
22.630025,-0.064416,0.004392,1.077016,0.420000,0.560000,1.540000
22.638112,-0.060512,0.122976,1.143872,3.500000,4.760000,-2.660000
22.646200,-0.100528,-0.003416,1.007720,-1.400000,-2.940000,1.680000
22.654287,-0.030744,0.163968,1.145824,2.100000,6.720000,-3.220000
22.662374,-0.081496,-0.066368,0.959408,-1.680000,-3.780000,0.420000
22.670461,-0.083936,0.180072,1.143872,-0.140000,5.320000,-0.140000
22.678549,0.003904,-0.070760,0.866200,-0.840000,-0.280000,0.700000
22.686636,-0.177144,0.218136,1.191696,2.660000,3.640000,-1.820000
22.694723,0.070760,-0.135176,0.830576,-2.660000,1.120000,-0.840000
22.702810,-0.194712,0.235216,1.160952,2.240000,-1.960000,0.280000
22.710898,0.067832,-0.080032,0.907680,-0.980000,7.840000,-1.820000
22.718985,-0.183000,0.168848,0.983320,1.120000,-4.060000,0.980000
22.727072,0.038552,-0.004880,1.028216,-1.960000,3.360000,-3.080000
22.735159,-0.107848,0.083448,0.889136,-6.720000,1.540000,0.420000
22.743247,-0.114680,0.084912,1.198040,-3.220000,-1.120000,-1.680000
22.751334,0.059536,0.002928,0.964776,-4.480000,1.820000,0.420000
22.759421,-0.247416,0.099552,1.217072,-6.440000,2.100000,-1.120000
22.767509,0.092720,0.030744,1.026264,-3.500000,-3.360000,1.680000
22.775596,-0.165920,0.106384,1.306864,-6.020000,3.220000,-3.640000
22.783683,0.037088,-0.049776,1.151680,-2.100000,0.980000,0.000000
22.791770,-0.162504,0.183488,1.237080,-3.080000,0.560000,-3.360000
22.799858,-0.072224,-0.071248,1.288808,4.480000,-2.520000,2.380000
22.807945,0.005368,0.187880,1.158512,2.800000,10.500000,-4.620000
22.816032,-0.189344,0.028792,1.283928,-4.900000,-6.020000,-0.980000
22.824119,0.039040,-0.052216,1.266360,0.560000,3.920000,-0.140000
22.832207,-0.164944,0.279624,1.257088,-0.560000,-1.260000,0.420000
22.840294,-0.004392,-0.112240,1.276608,1.400000,3.360000,-1.120000
22.848381,-0.106872,0.066368,1.337608,3.640000,-0.420000,-2.100000
22.856468,-0.061488,0.231800,1.283440,-2.940000,1.960000,-2.380000
22.864556,-0.037576,-0.175680,1.280512,3.220000,0.840000,-1.820000
22.872643,-0.138104,0.193736,1.356152,2.660000,3.220000,0.560000
22.880730,-0.014640,0.131272,1.141432,-4.060000,2.800000,-2.240000
22.888818,-0.044408,-0.159088,1.305888,5.180000,-4.060000,-0.560000
22.896905,-0.138104,0.307440,1.187792,-1.540000,6.720000,0.420000
22.904992,0.066856,-0.122976,1.023336,-1.260000,-3.080000,-1.960000
22.913079,-0.238632,0.148352,1.344440,4.340000,2.380000,0.980000
22.921167,0.124928,0.045384,0.807152,-1.820000,0.000000,-0.980000
22.929254,-0.207400,0.044896,1.257088,1.680000,1.820000,-2.240000
22.937341,0.053680,0.033184,0.732976,0.700000,-0.840000,1.820000
22.945428,-0.152256,0.102968,1.204872,0.140000,1.820000,-2.380000
22.953516,0.085888,-0.024888,0.709064,1.960000,2.380000,1.120000
22.961603,-0.206912,0.128832,1.063352,0.420000,2.520000,-2.100000
22.969690,0.013664,0.003416,0.875472,1.260000,-3.080000,-1.960000
22.977777,-0.031232,0.024400,0.873520,-0.840000,6.300000,-0.560000
22.985865,-0.139568,0.106872,0.957456,1.960000,-5.880000,0.140000
22.993952,0.077592,-0.009272,0.978440,2.380000,3.220000,-2.380000
23.002039,-0.194712,0.040016,0.932568,-0.140000,1.960000,0.980000
23.010127,-0.022936,0.126880,1.054080,3.080000,-3.220000,-0.420000
23.018214,-0.027816,-0.069784,1.046272,0.420000,1.680000,-0.140000
23.026301,-0.103456,0.190808,1.105808,2.520000,-2.100000,-1.680000
23.034388,-0.000976,-0.083448,1.121912,0.280000,2.520000,-2.660000
23.042476,-0.188856,0.174216,1.147288,0.280000,-0.980000,0.000000
23.050563,0.093208,-0.071736,1.089216,2.100000,1.120000,-2.800000
23.058650,-0.275232,0.197152,1.219512,0.980000,2.380000,-0.280000
23.066737,0.143472,-0.107360,1.049688,0.000000,-2.380000,-1.820000
23.074825,-0.322568,0.223016,1.327360,0.420000,1.820000,0.420000
23.082912,0.173240,-0.181048,1.026264,4.900000,-0.560000,0.280000
23.090999,-0.301096,0.240096,1.368840,13.860000,2.380000,-2.380000
23.099086,0.152744,-0.159088,0.871568,10.920000,-1.120000,0.980000
23.107174,-0.237168,0.235704,1.337120,12.600000,1.260000,-2.100000
23.115261,0.068808,-0.158600,0.834968,18.620001,0.280000,1.540000
23.123348,-0.195688,0.232288,1.170712,16.100000,4.620000,-2.240000
23.131436,0.045872,-0.086864,0.715408,13.160000,-1.960000,0.560000
23.139523,-0.075152,0.131760,0.960872,9.100000,3.500000,-1.400000
23.147610,-0.146400,0.078080,0.966240,12.460000,-1.120000,-0.700000
23.155697,0.077104,-0.057584,0.725656,10.780000,4.200000,-0.140000
23.163785,-0.160552,0.137616,0.982832,11.900000,-2.660000,1.540000
23.171872,-0.014640,0.050752,0.810568,6.860000,2.380000,-3.080000
23.179959,0.006832,0.026352,0.788608,0.840000,0.560000,-0.840000
23.188046,-0.125904,0.044408,0.863272,-0.140000,-1.120000,-0.140000
23.196134,-0.056120,0.091256,0.876936,-0.560000,3.640000,-1.680000
23.204221,-0.026352,0.017568,0.830088,-0.560000,1.680000,-0.700000
23.212308,-0.018544,0.001952,0.840824,-4.900000,-0.140000,-1.260000
23.220395,-0.136152,0.148840,0.992104,-2.520000,2.660000,-2.660000
23.228483,0.000000,-0.065880,0.864248,-0.280000,0.280000,-0.980000
23.236570,-0.048800,0.103944,1.001376,0.140000,-2.660000,-0.140000
23.244657,-0.110776,0.021960,1.073112,0.420000,7.560000,-3.080000
23.252745,-0.012688,0.006832,0.834480,-2.520000,-3.220000,0.700000
23.260832,-0.156160,0.144448,1.243912,3.360000,0.140000,-0.700000
23.268919,0.090280,-0.068320,0.879864,-0.840000,2.940000,-0.980000
23.277006,-0.239608,0.151768,1.199992,1.960000,-2.660000,-1.120000
23.285094,0.142496,-0.018544,0.984296,-1.680000,6.860000,-3.080000
23.293181,-0.321104,0.095648,1.179984,0.840000,-4.760000,0.420000
23.301268,0.200080,-0.004880,1.051640,0.700000,3.640000,-2.800000
23.309355,-0.359168,0.134688,1.202432,1.260000,-0.420000,-0.560000
23.317443,0.232776,-0.074664,1.005280,-0.280000,2.240000,-1.960000
23.325530,-0.384544,0.201056,1.235128,0.140000,-4.200000,0.840000
23.333617,0.218136,-0.097600,0.992592,1.260000,4.200000,-1.540000
23.341704,-0.300120,0.191296,1.225856,2.940000,-2.660000,-0.560000
23.349792,0.130296,-0.066856,0.993568,1.400000,4.900000,-1.960000
23.357879,-0.260104,0.145912,1.147288,4.900000,-2.380000,-1.120000
23.365966,0.114680,-0.075640,0.957456,3.360000,3.500000,-0.980000
23.374054,-0.206912,0.134200,1.075552,8.260000,-2.100000,0.420000
23.382141,0.051728,0.022448,1.051152,4.760000,3.500000,-3.640000
23.390228,-0.139568,0.019520,0.923784,5.880000,0.560000,1.120000
23.398315,-0.049288,0.111752,1.141432,6.440000,-2.660000,-2.100000
23.406403,0.019520,-0.031232,0.823256,7.000000,5.460000,-0.700000
23.414490,-0.211304,0.128832,1.040416,3.640000,1.680000,-1.540000
23.422577,0.073200,-0.020008,0.887184,7.980000,-3.360000,-0.560000
23.430664,-0.134200,0.055144,1.010648,4.620000,2.800000,0.280000
23.438752,-0.064416,0.105896,0.936472,6.580000,2.100000,-2.520000
23.446839,-0.035136,-0.020496,0.845216,0.840000,0.280000,0.980000
23.454926,-0.076616,0.118096,0.971120,-1.540000,-0.980000,-0.840000
23.463013,0.025376,0.001952,0.955992,3.640000,3.080000,-2.240000
23.471101,-0.142496,0.017080,0.887184,0.280000,1.680000,-1.260000
23.479188,-0.074176,0.136640,0.954040,0.420000,-0.700000,-1.820000
23.487275,-0.016592,-0.060024,0.905240,-0.140000,0.980000,-0.280000
23.495363,-0.070760,0.115656,0.906704,-0.980000,0.280000,-1.680000
23.503450,-0.073200,0.041968,0.981856,2.520000,4.200000,-1.960000
23.511537,-0.055632,-0.056608,0.808128,-0.840000,-1.260000,0.700000
23.519624,-0.083936,0.180560,1.043832,2.660000,-3.500000,-0.140000
23.527712,-0.014152,-0.063928,0.881816,0.280000,5.740000,-2.520000
23.535799,-0.093696,0.101504,0.907680,0.280000,-0.840000,-0.980000
23.543886,-0.091744,0.055632,0.988200,1.120000,0.840000,-0.980000
23.551973,0.030744,-0.056120,0.793976,0.140000,-0.840000,-0.560000
23.560061,-0.163968,0.191296,1.075064,2.940000,0.840000,-0.840000
23.568148,0.004392,-0.081496,0.846192,0.280000,2.240000,-2.380000
23.576235,-0.106384,0.087840,0.927688,-0.280000,-0.840000,0.700000
23.584322,-0.103944,0.095160,1.061400,0.280000,1.400000,-1.960000
23.592410,0.061976,-0.056120,0.840824,2.240000,1.260000,0.140000
23.600497,-0.206912,0.123952,1.132160,-0.280000,-2.660000,-0.840000
23.608584,0.072712,-0.001952,0.871568,-0.420000,2.660000,-2.660000
23.616672,-0.198616,0.084424,1.066768,1.960000,-1.960000,0.140000
23.624759,0.044408,0.036112,0.993568,-0.420000,1.540000,-3.360000
23.632846,-0.137616,-0.014640,0.910608,1.400000,3.640000,0.700000
23.640933,-0.084912,0.157136,1.065792,0.000000,-5.600000,-1.680000
23.649021,0.032208,-0.061488,0.947208,1.120000,4.480000,0.420000
23.657108,-0.188368,0.128832,1.041880,-0.420000,0.280000,-1.680000
23.665195,-0.044896,-0.008784,0.959896,2.380000,5.320000,3.220000
23.673282,-0.181536,0.037576,0.923784,-1.960000,-2.800000,10.220000
23.681370,0.082960,0.085888,1.082872,4.760000,-2.660000,7.140000
23.689457,-0.165920,-0.039528,0.831064,-3.080000,10.920000,8.680000
23.697544,-0.029280,0.166408,0.984296,3.220000,-11.620000,4.900000
23.705631,0.009760,-0.067344,0.932568,-1.120000,11.620000,5.180000
23.713719,-0.199592,0.122488,0.840824,-1.120000,-2.380000,4.760000
23.721806,0.068320,0.011224,1.006744,3.500000,-3.220000,6.160000
23.729893,-0.133224,0.022936,0.835456,-3.080000,5.880000,6.300000
23.737981,-0.046848,0.111264,0.965752,1.680000,-2.940000,6.580000
23.746068,-0.003904,-0.042456,0.900848,-0.140000,2.800000,6.720000
23.754155,-0.177144,0.102968,0.943792,-0.140000,0.560000,5.600000
23.762242,-0.000488,0.007808,0.940864,0.980000,2.520000,6.720000
23.770330,-0.212768,0.015616,0.849120,-1.960000,3.780000,14.560000
23.778417,-0.032696,0.094184,1.020408,2.940000,-8.120000,14.980000
23.786504,0.099552,0.022936,0.938912,-1.400000,5.320000,9.660000
23.794591,-0.224480,0.080032,0.976976,-0.420000,7.980000,7.000000
23.802679,0.102968,-0.023912,0.878888,1.540000,-9.380000,8.960000
23.810766,-0.139080,0.122488,1.129232,0.840000,3.780000,5.600000
23.818853,0.028304,0.010736,0.923784,0.420000,3.920000,-0.700000
23.826940,-0.136640,0.018544,0.957944,0.980000,0.420000,4.620000
23.835028,-0.033672,0.094184,1.036024,0.560000,-3.360000,0.000000
23.843115,-0.014152,-0.012688,0.997472,0.840000,2.240000,0.700000
23.851202,-0.159576,0.083448,0.950624,0.280000,2.800000,0.840000
23.859290,0.004392,0.025376,1.065792,2.520000,-4.060000,1.400000
23.867377,-0.083448,0.021960,0.959896,0.000000,6.440000,1.680000
23.875464,-0.095648,0.101504,1.054568,1.960000,-2.520000,-1.820000
23.883551,0.010248,-0.036600,0.990152,1.820000,1.400000,0.700000
23.891639,-0.203008,0.139568,1.033584,-0.980000,2.240000,-0.420000
23.899726,0.040992,-0.064904,0.995032,2.520000,0.000000,2.380000
23.907813,-0.316712,0.114192,1.043832,-1.260000,4.900000,9.520000
23.915900,0.138104,-0.045872,0.976488,6.160000,-9.940000,9.940000
23.923988,-0.191784,0.135664,1.062864,-6.020000,13.720000,12.040000
23.932075,-0.075640,-0.053192,0.924760,4.760000,-3.220000,10.920000
23.940162,-0.059536,0.147864,1.090680,-0.560000,-2.660000,15.260000
23.948249,-0.099552,-0.050264,0.999424,-0.560000,13.160000,11.620000
23.956337,-0.052704,0.076616,0.858880,-0.980000,-12.320000,19.460001
23.964424,-0.062952,0.057096,1.174616,1.820000,11.200000,13.300000
23.972511,-0.015128,-0.039040,0.732000,-1.120000,-1.260000,17.080000
23.980599,-0.182024,0.129320,1.152656,1.400000,1.680000,15.260000
23.988686,0.054168,-0.086864,0.776896,-0.140000,1.400000,17.780001
23.996773,-0.208864,0.190320,1.078968,0.560000,-1.960000,18.200001
24.004860,0.071736,-0.089304,0.861808,0.980000,6.720000,15.820000
24.012948,-0.180560,0.129808,0.951600,1.120000,0.700000,19.040001
24.021035,-0.003416,0.022448,1.013088,0.700000,0.280000,17.080000
24.029122,-0.046360,0.008296,0.860344,1.540000,3.640000,18.760000
24.037209,-0.068320,0.095160,1.023336,-0.140000,0.140000,14.840000
24.045297,0.051728,-0.025376,0.913048,3.360000,-0.280000,12.320000
24.053384,-0.208864,0.091256,0.961848,-2.660000,9.660000,13.020000
24.061471,-0.019032,-0.021960,0.898408,3.920000,-8.120000,17.360001
24.069558,-0.054168,0.080520,1.055056,-0.420000,2.940000,16.520000
24.077646,-0.097600,0.044896,0.919392,0.420000,7.560000,13.440001
24.085733,-0.039040,-0.025864,0.930616,0.560000,-6.160000,16.520000
24.093820,-0.158600,0.153720,1.041392,-1.120000,9.240000,16.379999
24.101908,-0.030256,-0.142984,0.828136,1.400000,-4.200000,23.240000
24.109995,-0.016104,0.233752,1.103856,0.980000,-3.220000,19.460001
24.118082,-0.029280,-0.147376,0.883768,-0.280000,9.940000,16.940001
24.126169,-0.199592,0.215208,1.014552,-1.680000,-3.360000,17.920000
24.134257,-0.097112,-0.141520,0.965264,0.140000,6.720000,25.760000
24.142344,-0.065880,0.136640,0.955992,1.260000,-13.720000,29.120001
24.150431,0.046848,-0.009272,1.111664,1.540000,14.000000,23.660000
24.158518,-0.277184,0.068808,0.748592,-2.660000,4.060000,30.660000
24.166606,0.093696,-0.021960,1.166808,4.200000,-9.240000,28.000000
24.174693,-0.155672,0.099064,0.885720,-4.760000,12.180000,32.619999
24.182780,-0.052216,-0.020984,1.021872,3.780000,-4.620000,27.719999
24.190867,0.015128,0.083448,0.960872,-0.420000,2.240000,31.780001
24.198955,-0.263520,0.010736,1.077992,-1.120000,10.780000,30.660000
24.207042,0.042944,-0.020496,0.770064,3.500000,-13.300000,43.540001
24.215129,-0.058072,0.122000,1.272216,-0.420000,10.080000,34.580002
24.223217,-0.043432,-0.062464,0.714432,0.280000,0.560000,37.380001
24.231304,-0.107848,0.140544,1.173152,2.520000,-3.220000,31.920000
24.239391,0.022448,-0.080520,0.834968,-0.280000,6.720000,37.660000
24.247478,-0.167384,0.151768,1.017968,-1.820000,0.560000,35.279999
24.255566,0.068320,-0.103456,0.969168,3.500000,1.260000,37.099998
24.263653,-0.105408,0.177632,0.957456,-2.380000,-0.560000,31.639999
24.271740,0.061000,-0.052704,1.008208,2.520000,5.040000,28.139999
24.279827,-0.215208,0.085888,0.903776,-3.780000,4.200000,29.960001
24.287915,0.139568,0.032696,1.005280,3.780000,-9.940000,25.760000
24.296002,0.059536,0.023912,0.985760,-0.560000,5.180000,13.860000
24.304089,-0.116632,0.113216,0.934032,-2.100000,7.280000,6.860000
24.312177,0.092232,-0.035624,1.003816,3.220000,-11.340000,2.100000
24.320264,-0.030256,0.072224,1.049200,-3.780000,12.320000,-2.100000
24.328351,-0.276208,0.061000,0.956480,0.420000,-1.960000,0.700000
24.336438,0.116144,-0.045872,1.098976,2.100000,-3.500000,4.480000
24.344526,-0.258152,0.122000,0.941840,-4.060000,8.820000,8.820000
24.352613,0.078080,-0.048800,1.135088,4.060000,-13.160000,6.580000
24.360700,-0.015616,0.115656,1.078968,-1.820000,10.780000,3.360000
24.368787,-0.194224,0.003904,1.073600,0.700000,-0.280000,0.980000
24.376875,0.133712,0.044896,1.039440,3.920000,-7.280000,3.500000
24.384962,-0.237168,0.058072,1.210240,-3.920000,10.780000,-1.540000
24.393049,0.106384,-0.011224,0.965752,5.740000,-4.760000,1.400000
24.401136,-0.227896,0.121512,1.196576,-4.760000,7.700000,-0.140000
24.409224,0.048800,-0.059536,1.008208,4.200000,-5.880000,1.400000
24.417311,-0.061976,0.156648,1.202432,-1.680000,4.480000,-2.940000
24.425398,-0.110776,-0.055632,1.013576,-0.420000,2.240000,-1.680000
24.433486,-0.026840,0.081008,1.140944,0.980000,-3.640000,0.000000
24.441573,-0.118584,0.084912,1.122400,-2.100000,4.340000,-1.820000
24.449660,-0.001952,-0.083448,1.134600,0.980000,-3.920000,0.140000
24.457747,-0.057584,0.222528,1.202432,-0.980000,6.860000,-4.340000
24.465835,-0.115656,-0.166408,1.096048,-1.400000,-3.220000,0.700000
24.473922,-0.010248,0.208376,1.323456,2.660000,3.920000,-2.800000
24.482009,-0.101504,-0.042944,1.089216,-3.500000,-0.560000,-1.540000
24.490096,-0.051240,0.024888,1.339560,4.200000,3.780000,-2.240000
24.498184,-0.081984,0.192760,1.145336,-2.520000,-4.060000,-2.100000
24.506271,-0.039528,-0.174704,1.278560,0.000000,6.580000,-3.640000
24.514358,-0.204960,0.240096,1.287832,2.240000,-6.160000,1.540000
24.522445,0.164456,-0.111752,1.256112,0.420000,6.020000,-3.920000
24.530533,-0.365024,0.114192,1.399584,2.800000,0.560000,0.280000
24.538620,0.106872,0.111752,1.245864,-0.840000,-6.580000,0.280000
24.546707,-0.053680,-0.127856,1.411296,1.260000,6.440000,-3.220000
24.554795,-0.199104,0.169336,1.455704,3.500000,-2.660000,-0.140000
24.562882,-0.026352,0.140056,1.467904,-1.260000,0.000000,-1.820000
24.570969,-0.091744,-0.076616,1.585024,0.840000,2.380000,-0.840000
24.579056,-0.048800,-0.006832,1.676280,3.640000,0.280000,-2.800000
24.587144,-0.162016,0.050264,1.735328,0.980000,1.260000,-1.260000
24.595231,-0.072224,0.074176,1.838784,1.120000,-2.660000,-0.560000
24.603318,-0.093696,0.069784,1.942728,-0.420000,0.560000,-0.280000
24.611405,-0.103456,0.054656,2.046184,2.240000,-2.100000,-0.840000
24.619493,-0.051728,0.066368,2.110112,1.820000,-0.420000,-2.240000
24.627580,-0.148840,0.079544,2.156472,0.980000,3.640000,-2.660000
24.635667,-0.130296,0.077592,2.157936,1.820000,-0.560000,-1.400000
24.643754,-0.123464,0.072224,2.133048,-0.140000,2.940000,-1.400000
24.651842,-0.113704,0.037576,1.923208,0.980000,0.140000,-1.120000
24.659929,-0.072712,0.033672,1.818288,0.980000,2.240000,-1.400000
24.668016,-0.070760,0.053192,1.542080,1.820000,-0.980000,-1.120000
24.676104,-0.034648,0.157624,1.461560,-1.120000,3.780000,-2.100000
24.684191,-0.179096,-0.030744,1.150216,0.280000,0.980000,-0.700000
24.692278,-0.028792,0.055632,1.042856,4.340000,3.360000,-0.280000
24.700365,-0.033184,0.016592,0.634400,-2.100000,3.920000,-0.280000
24.708453,-0.104432,0.072224,0.748104,2.800000,-0.140000,-1.400000
24.716540,-0.005856,0.038064,0.445056,0.700000,4.340000,0.420000
24.724627,-0.006344,-0.018056,0.350384,0.280000,1.960000,-0.700000
24.732714,-0.055144,0.053192,0.335256,0.000000,0.980000,0.280000
24.740802,0.007320,0.008784,0.226920,0.420000,3.080000,-0.560000
24.748889,-0.027816,0.005856,0.228872,1.120000,2.240000,-0.140000
24.756976,0.015128,0.004880,0.226920,1.680000,2.520000,-1.400000
24.765063,-0.025376,0.007320,0.203984,0.840000,1.540000,-1.260000
24.773151,-0.007320,0.008296,0.165432,1.120000,0.420000,-0.280000
24.781238,-0.004392,0.027816,0.199104,2.380000,3.220000,-0.560000
24.789325,-0.020496,0.002928,0.219600,1.120000,1.540000,-1.540000
24.797413,-0.024888,0.015128,0.215208,0.980000,-0.700000,-0.700000
24.805500,-0.005856,0.018544,0.246928,1.960000,2.660000,-0.420000
24.813587,-0.006832,0.002928,0.281576,1.820000,1.120000,-1.400000
24.821674,-0.026840,0.020008,0.317200,0.840000,0.000000,-1.540000
24.829762,-0.027816,0.022448,0.333304,0.980000,0.560000,-1.540000
24.837849,-0.041968,0.029768,0.342576,0.980000,0.140000,-0.840000
24.845936,-0.015128,0.011224,0.413336,1.400000,-0.700000,-0.420000
24.854023,-0.012688,0.008784,0.447984,1.400000,0.280000,-1.120000
24.862111,-0.038552,0.018056,0.499224,0.980000,0.000000,-1.120000
24.870198,-0.034648,0.023912,0.532408,0.840000,-1.120000,-0.700000
24.878285,-0.037088,0.032208,0.572424,0.840000,-1.960000,-1.120000
24.886372,-0.031720,0.029768,0.626104,0.280000,-0.280000,-2.380000
24.894460,-0.045872,0.024400,0.711016,1.400000,0.000000,-1.960000
24.902547,0.009760,-0.020984,0.725168,2.100000,-0.980000,-0.560000
24.910634,-0.076128,0.031232,0.856928,0.560000,-1.400000,-0.420000
24.918722,-0.122488,0.099064,0.988200,0.980000,-0.700000,-2.520000
24.926809,0.035624,-0.080032,0.987224,1.680000,-3.360000,-1.120000
24.934896,-0.147376,0.163968,1.270264,-0.280000,-0.700000,-0.420000
24.942983,-0.016104,-0.111264,1.368840,3.220000,-2.520000,-1.820000
24.951071,-0.158600,0.162504,1.519144,-0.420000,-0.280000,-0.560000
24.959158,0.066856,-0.011712,1.577704,-1.960000,1.540000,-4.060000
24.967245,-0.155184,0.044896,1.884168,2.800000,-1.540000,-2.100000
24.975332,-0.113216,0.024400,1.813408,0.420000,0.700000,0.280000
24.983420,-0.100528,0.050264,1.933456,1.680000,1.820000,-1.400000
24.991507,-0.118096,0.017568,1.918816,0.700000,0.140000,-1.680000
24.999594,-0.112728,0.028304,1.943704,-0.420000,-0.140000,-0.560000
25.007681,-0.107360,0.036112,1.914912,2.240000,-0.980000,-0.280000
25.015769,-0.053680,0.043920,1.803648,0.560000,-0.560000,-1.120000
25.023856,-0.065392,0.053680,1.764120,-2.240000,1.960000,-2.940000
25.031943,-0.078080,0.061976,1.610400,0.000000,0.840000,-2.240000
25.040031,-0.090768,0.046360,1.538176,-0.140000,2.940000,-0.840000
25.048118,-0.143960,-0.007320,1.237568,3.500000,5.600000,0.280000
25.056205,-0.109312,0.175192,0.973560,-0.980000,-3.780000,0.420000
25.064292,0.146400,-0.159088,0.726632,1.120000,8.820000,-2.660000
25.072380,-0.234240,0.121512,0.642208,0.560000,1.680000,0.840000
25.080467,0.084424,-0.021960,0.311344,0.840000,2.100000,0.700000
25.088554,-0.024400,0.049776,0.317200,1.120000,5.460000,-0.560000
25.096641,-0.043432,0.006832,0.078080,0.000000,3.220000,-0.280000
25.104729,-0.003904,0.002440,0.069784,-0.560000,2.240000,0.000000
25.112816,0.001952,0.034160,0.139080,1.680000,0.000000,-0.840000
25.120903,-0.022936,-0.011712,0.036600,0.000000,5.040000,0.280000
25.128990,0.018056,-0.004880,0.037576,1.680000,-1.680000,-0.700000
25.137078,-0.003904,0.011224,0.062464,1.120000,4.200000,-0.840000
25.145165,-0.027816,-0.000488,0.024400,1.120000,1.820000,-0.280000
25.153252,0.037576,0.004880,0.081496,2.660000,-1.540000,-0.560000
25.161340,-0.018056,0.006832,0.049288,1.400000,4.900000,-1.260000
25.169427,-0.028792,-0.001952,0.026840,2.100000,0.000000,-0.420000
25.177514,0.032696,0.013176,0.082472,2.240000,0.000000,-0.980000
25.185601,-0.007808,-0.000488,0.068320,1.400000,4.060000,-1.680000
25.193689,-0.019520,0.001952,0.047336,1.400000,0.560000,-0.840000
25.201776,0.022936,0.009760,0.091256,1.680000,-0.980000,-1.120000
25.209863,-0.041480,0.012200,0.156648,-0.140000,4.620000,-1.540000
25.217950,-0.021960,-0.000488,0.175192,1.400000,-6.300000,-0.840000
25.226038,0.013664,0.008784,0.362584,0.700000,1.120000,-0.560000
25.234125,-0.040504,0.017568,0.488488,1.540000,-2.520000,-1.540000
25.242212,-0.017080,0.013176,0.723704,2.520000,-4.340000,-2.100000
25.250299,-0.124928,0.020008,0.864736,-0.700000,1.820000,-0.420000
25.258387,-0.097112,0.094184,1.000888,0.000000,-8.820000,-0.420000
25.266474,0.109312,-0.092720,1.241960,2.380000,-6.020000,-2.520000
25.274561,-0.227408,0.218624,1.386408,-2.520000,4.480000,-3.920000
25.282649,0.011224,-0.116144,1.345904,-2.380000,-0.280000,-2.240000
25.290736,-0.143472,0.027816,1.726544,0.700000,1.960000,-1.820000
25.298823,-0.054656,0.049288,1.718248,0.840000,-2.940000,-1.120000
25.306910,-0.047824,0.066856,1.894416,1.120000,0.420000,-2.520000
25.314998,-0.101504,0.052704,1.912960,0.840000,-1.260000,-0.840000
25.323085,-0.074664,0.071736,2.022760,-0.140000,2.940000,-1.540000
25.331172,-0.139080,0.021472,1.986160,1.960000,-1.540000,-0.420000
25.339259,-0.062952,0.082472,2.106696,-0.420000,3.080000,-3.080000
25.347347,-0.202520,0.027328,1.947120,1.400000,-2.660000,-1.120000
25.355434,-0.082472,0.093208,2.054968,-1.120000,2.940000,-1.540000
25.363521,-0.173728,0.050752,1.878800,0.140000,1.400000,-1.120000
25.371608,-0.108824,0.057096,1.843176,-0.140000,2.240000,-1.260000
25.379696,-0.115656,-0.012200,1.562088,0.560000,2.660000,-0.700000
25.387783,-0.038552,-0.030256,1.439112,1.260000,-0.420000,-0.280000
25.395870,-0.097112,0.151768,1.433744,-1.400000,3.220000,-0.700000
25.403958,-0.080520,0.006832,1.140456,-0.140000,2.660000,0.280000
25.412045,-0.039040,0.003416,1.061888,2.940000,1.400000,-0.840000
25.420132,-0.018544,0.032208,0.876936,-2.240000,2.240000,0.000000
25.428219,-0.106872,0.083448,0.941352,1.820000,1.540000,-2.100000
25.436307,0.044896,-0.084424,0.712968,1.120000,5.040000,0.140000
25.444394,-0.156648,0.099552,0.787144,-0.280000,-1.540000,0.280000
25.452481,-0.056608,0.041968,0.793000,1.400000,0.980000,-1.120000
25.460568,0.053680,0.000488,0.727120,0.420000,0.420000,-1.260000
25.468656,-0.051240,-0.023912,0.803736,1.400000,-0.420000,0.000000
25.476743,-0.126880,0.116632,0.976488,0.560000,1.820000,-0.840000
25.484830,0.000976,-0.038064,1.094096,2.380000,-1.120000,-2.380000
25.492917,-0.146888,0.096136,1.202920,-0.560000,1.820000,1.260000
25.501005,0.040016,-0.048800,1.362008,2.380000,-1.680000,-1.820000
25.509092,-0.237656,0.168360,1.590392,-2.100000,-1.540000,-1.400000
25.517179,0.038552,-0.041480,1.473760,-0.280000,3.080000,-2.800000
25.525267,-0.136640,-0.022448,1.613816,3.360000,0.280000,-1.120000
25.533354,-0.008784,0.074176,1.613328,2.100000,-1.680000,-0.420000
25.541441,-0.098576,0.117120,1.605520,-1.120000,2.660000,-1.680000
25.549528,-0.088816,0.047336,1.583072,0.140000,-3.500000,-1.960000
25.557616,-0.154696,-0.047336,1.477176,0.980000,0.980000,-1.120000
25.565703,-0.098088,0.043432,1.268312,1.960000,-0.560000,0.980000
25.573790,-0.001464,0.132736,1.035048,-3.220000,5.320000,-0.700000
25.581877,-0.007808,-0.142984,0.951600,4.620000,1.960000,-1.260000
25.589965,-0.195200,0.187392,0.775432,0.140000,-3.220000,0.700000
25.598052,0.105408,-0.037088,0.655872,1.400000,5.320000,-3.500000
25.606139,-0.122976,0.012200,0.411384,0.840000,2.380000,0.280000
25.614226,0.047336,0.016104,0.293776,-0.560000,3.500000,0.000000
25.622314,-0.055144,0.027816,0.253760,0.840000,5.740000,-0.560000
25.630401,-0.014640,-0.004392,0.165920,0.980000,1.680000,0.560000
25.638488,0.009760,0.017080,0.187392,0.420000,3.780000,-1.400000
25.646576,-0.018056,-0.002440,0.101016,0.700000,0.420000,0.140000
25.654663,-0.010248,0.010248,0.145424,0.560000,2.520000,-0.280000
25.662750,-0.013664,0.006344,0.115656,1.120000,0.560000,-0.280000
25.670837,-0.003904,0.005856,0.133712,0.280000,3.220000,0.000000
25.678925,-0.002928,0.012200,0.184464,2.380000,-0.140000,-1.540000
25.687012,-0.011224,0.005856,0.217160,0.140000,1.960000,-1.540000
25.695099,-0.036112,0.019520,0.307928,0.980000,3.220000,-1.820000
25.703186,-0.027328,-0.010248,0.403088,2.100000,-4.900000,-1.400000
25.711274,-0.005368,0.018056,0.573400,0.560000,-1.120000,-1.260000
25.719361,-0.035624,0.017080,0.686128,1.400000,1.680000,-2.240000
25.727448,-0.121512,0.030256,0.851560,0.560000,-3.500000,0.280000
25.735535,-0.091744,0.091256,1.102880,-2.100000,-2.240000,-1.260000
25.743623,-0.011224,-0.086864,1.144360,1.540000,-2.380000,0.840000
25.751710,-0.089792,0.190320,1.335168,-0.700000,-2.940000,-2.100000
25.759797,-0.037088,-0.115656,1.420568,-0.280000,1.680000,-2.380000
25.767885,-0.182512,0.084424,1.576728,3.080000,-0.700000,-1.680000
25.775972,-0.070272,0.101992,1.511336,-1.260000,-5.040000,-0.700000
25.784059,-0.046848,0.076128,1.699704,-1.400000,2.660000,-3.220000
25.792146,-0.143960,0.008784,1.749968,1.260000,-2.100000,0.140000
25.800234,-0.068320,-0.009272,1.711416,3.360000,0.700000,0.140000
25.808321,-0.122488,-0.007808,1.709464,1.820000,0.420000,0.700000
25.816408,-0.042456,0.017080,1.603568,1.120000,0.840000,-1.120000
25.824495,-0.095160,0.104432,1.610888,-0.280000,1.960000,-1.820000
25.832583,-0.157624,0.092720,1.390312,0.560000,0.700000,-0.420000
25.840670,0.025864,-0.024888,1.101416,2.660000,0.700000,-0.560000
25.848757,-0.157624,0.073200,1.006256,-1.120000,4.480000,-0.700000
25.856844,0.085400,-0.019520,0.684664,1.820000,2.380000,-1.260000
25.864932,-0.150304,0.065880,0.676856,0.700000,3.080000,0.980000
25.873019,0.012200,-0.032208,0.463600,0.000000,2.660000,-1.400000
25.881106,-0.048312,0.063440,0.438224,0.560000,2.660000,-0.280000
25.889194,-0.000976,-0.029768,0.232288,-0.700000,3.360000,-0.140000
25.897281,-0.019032,0.044408,0.291336,0.840000,1.820000,-0.560000
25.905368,-0.035136,0.016592,0.245464,-0.140000,1.540000,-0.420000
25.913455,-0.003416,0.000488,0.209840,0.280000,0.840000,-0.280000
25.921543,-0.011224,0.025864,0.246440,2.100000,2.240000,-0.840000
25.929630,-0.027816,-0.002440,0.259128,1.120000,2.520000,-1.260000
25.937717,-0.029768,0.005856,0.280600,0.840000,-1.540000,-0.280000
25.945804,-0.004880,0.026840,0.353312,1.960000,1.400000,-0.980000
25.953892,-0.045872,-0.003904,0.415776,1.260000,3.080000,-0.560000
25.961979,-0.024888,-0.008784,0.531432,1.680000,-4.060000,0.000000
25.970066,-0.034648,0.059048,0.717848,1.120000,-2.380000,-1.400000
25.978153,-0.089304,0.066856,0.832528,0.280000,0.560000,-3.220000
25.986241,0.029768,-0.038552,0.985760,1.120000,-1.260000,-4.620000
25.994328,-0.174216,0.093208,1.258064,-0.280000,2.660000,-1.680000
26.002415,-0.072224,-0.073688,1.237568,0.000000,-4.200000,0.700000
26.010503,-0.034160,0.115656,1.769488,2.240000,-5.740000,0.840000
26.018590,-0.086864,0.036112,1.766072,-4.340000,9.240000,-3.220000
26.026677,-0.190320,0.021472,1.930040,1.540000,-13.020000,-1.120000
26.034764,-0.066368,0.070760,2.011048,-0.560000,0.700000,-2.520000
26.042852,-0.194224,0.046848,1.994944,1.680000,3.780000,-2.380000
26.050939,-0.094672,0.054168,2.056920,1.260000,1.820000,-0.280000
26.059026,-0.104432,0.050752,1.997872,-1.260000,-1.540000,0.420000
26.067113,-0.074664,0.041480,1.993968,-2.240000,2.520000,-0.140000
26.075201,-0.136640,0.024400,1.839272,0.140000,0.280000,-2.100000
26.083288,-0.089304,0.027328,1.726544,-0.980000,-1.400000,-0.840000
26.091375,-0.071248,0.035624,1.632360,-1.400000,0.000000,-0.700000
26.099462,-0.091256,0.073688,1.554280,-0.140000,3.220000,-0.420000
26.107550,-0.045384,0.064416,1.299544,1.260000,1.400000,-0.420000
26.115637,-0.029280,0.003416,1.138992,1.400000,0.980000,-1.540000
26.123724,-0.194224,0.043432,1.097512,0.000000,0.280000,-0.140000
26.131812,0.100040,0.055144,0.882792,-0.420000,8.260000,-2.520000
26.139899,-0.206912,-0.027328,0.899384,1.540000,-1.540000,2.520000
26.147986,0.037576,0.081008,0.780800,0.840000,3.780000,-2.940000
26.156073,-0.061976,0.014152,0.751032,1.960000,1.260000,0.700000
26.164161,-0.010248,0.004880,0.705160,1.400000,0.700000,0.280000
26.172248,-0.121512,0.050752,0.740296,0.280000,3.500000,-1.540000
26.180335,-0.028304,0.030744,0.691008,1.260000,0.000000,-1.260000
26.188422,-0.003904,0.034160,0.753960,1.540000,-0.420000,-0.140000
26.196510,-0.031232,-0.023424,0.732000,1.540000,0.560000,0.420000
26.204597,-0.090280,0.068320,0.815936,2.100000,2.660000,-1.820000
26.212684,-0.070272,0.054656,0.856440,1.540000,2.660000,-2.100000
26.220771,0.005856,-0.040504,0.792512,1.400000,-2.240000,-0.700000
26.228859,-0.111752,0.075152,0.885720,2.240000,-1.960000,-0.420000
26.236946,0.006344,0.049288,0.910120,2.800000,3.780000,-2.800000
26.245033,-0.039040,-0.024400,0.812520,0.420000,-0.140000,0.000000
26.253121,-0.143960,0.094672,0.998936,2.240000,-0.700000,-0.560000
26.261208,0.025864,0.010736,0.968192,0.560000,1.960000,-2.940000
26.269295,-0.090280,-0.013664,0.857904,0.560000,-0.280000,-0.700000
26.277382,-0.086864,0.126392,1.004792,0.840000,1.820000,-2.240000
26.285470,-0.004392,-0.046848,0.847168,0.700000,-0.280000,-0.560000
26.293557,-0.015616,0.019032,0.874496,0.280000,0.840000,-0.980000
26.301644,-0.134688,0.117608,0.820328,0.280000,5.320000,-1.540000
26.309731,-0.019032,-0.038552,0.683688,1.540000,-1.960000,-1.400000
26.317819,0.026352,0.005856,0.679296,-0.140000,-0.140000,0.420000
26.325906,-0.080032,0.040504,0.563152,0.560000,5.880000,0.000000
26.333993,-0.077104,0.042456,0.584136,0.700000,-0.980000,-0.840000
26.342080,-0.027328,0.042456,0.560712,0.700000,2.100000,-1.680000
26.350168,-0.044408,0.003904,0.475312,-0.140000,2.100000,-1.820000
26.358255,-0.016592,0.024400,0.477264,1.120000,-0.560000,-0.980000
26.366342,-0.015616,0.006344,0.432856,0.280000,3.500000,-0.980000
26.374430,-0.035136,0.012200,0.418216,1.120000,1.820000,-0.280000
26.382517,-0.020496,0.020496,0.430904,1.260000,0.700000,-0.840000
26.390604,-0.036112,0.021472,0.446520,1.120000,2.660000,-1.400000
26.398691,-0.039040,0.008784,0.424560,0.980000,1.260000,-1.400000
26.406779,-0.020496,0.014152,0.440664,1.400000,0.420000,-0.840000
26.414866,-0.032208,0.012688,0.422608,0.980000,2.380000,-0.840000
26.422953,-0.019032,0.016592,0.428464,1.680000,-0.560000,-1.120000
26.431040,-0.023912,0.025376,0.442128,0.700000,2.520000,-1.680000
26.439128,-0.057096,0.007320,0.409920,0.280000,1.960000,-0.420000
26.447215,-0.006832,0.023424,0.465064,1.540000,-3.080000,-0.700000
26.455302,-0.032208,0.015616,0.442616,0.000000,3.080000,-1.400000
26.463389,-0.063440,0.014640,0.452376,0.840000,-2.100000,-0.980000
26.471477,-0.015616,0.011712,0.485072,0.700000,-4.200000,-1.260000
26.479564,-0.069296,0.015616,0.467992,0.140000,-4.620000,-1.120000
26.487651,-0.037088,0.012688,0.483608,0.840000,-12.320000,-0.840000
26.495739,-0.020984,0.017568,0.528992,-0.280000,-7.140000,-1.120000
26.503826,-0.054168,0.001952,0.464576,-0.280000,-9.100000,-0.700000
26.511913,-0.008296,0.032696,0.532408,0.700000,-13.020000,-0.560000
26.520000,-0.036600,0.021472,0.531920,-0.840000,-7.280000,-1.400000
26.528088,-0.086376,0.019520,0.555832,0.980000,-10.640000,-0.560000
26.536175,-0.036600,0.044896,0.617808,1.120000,-11.060000,-0.420000
26.544262,-0.051728,0.031720,0.590480,0.560000,-9.100000,-0.840000
26.552349,-0.056120,0.039040,0.624640,1.400000,-10.920000,-1.820000
26.560437,-0.055144,0.003416,0.665632,0.700000,-7.420000,-1.260000
26.568524,0.013176,-0.010736,0.570472,1.820000,-11.060000,0.980000
26.576611,0.060512,0.017568,0.713456,3.640000,-6.720000,-0.420000
26.584698,-0.073688,0.007320,0.693936,0.420000,7.140000,-1.400000
26.592786,-0.116144,0.058560,0.710040,1.960000,-0.700000,-1.400000
26.600873,-0.044408,0.059536,0.826672,1.680000,0.700000,-2.240000
26.608960,-0.069296,0.005368,0.718336,-0.560000,4.480000,-2.100000
26.617048,0.022448,0.000488,0.723704,3.080000,-3.500000,-1.260000
26.625135,-0.041480,0.020008,0.818864,2.100000,4.480000,-0.420000
26.633222,-0.163480,0.050752,0.833016,0.280000,-0.420000,0.000000
26.641309,-0.025864,0.053192,0.860344,0.840000,-2.800000,-2.240000
26.649397,0.047336,-0.036112,0.805688,1.400000,3.360000,-1.820000
26.657484,-0.107360,0.017568,0.850096,0.420000,-1.260000,-0.420000
26.665571,-0.138592,0.124928,1.023336,1.680000,-2.240000,-1.680000
26.673658,0.055144,-0.104432,1.047248,0.700000,0.420000,-1.680000
26.681746,-0.125416,0.196176,1.159488,-0.280000,0.420000,-0.700000
26.689833,-0.051240,-0.134688,1.330288,1.540000,3.640000,-4.620000
26.697920,-0.257664,0.170312,1.448384,-0.560000,-5.460000,3.500000
26.706007,0.114680,0.005856,1.570872,1.260000,1.120000,-1.120000
26.714095,-0.190320,0.018056,1.751432,1.260000,0.140000,-0.560000
26.722182,0.018056,0.051728,1.817312,1.820000,-2.100000,-2.940000
26.730269,-0.105408,0.037576,1.970544,-1.820000,3.360000,-4.060000
26.738357,-0.111752,0.032696,2.088640,0.700000,0.000000,-1.960000
26.746444,-0.160064,0.054168,2.101816,-0.420000,3.500000,-1.540000
26.754531,-0.166896,0.052216,2.196976,2.240000,-3.500000,0.280000
26.762618,-0.201056,0.050264,2.202344,-2.660000,3.780000,0.000000
26.770706,-0.148840,0.092232,2.344840,1.400000,-5.740000,-0.700000
26.778793,-0.140056,0.070760,2.282376,-3.640000,4.760000,-1.540000
26.786880,-0.141032,0.117608,2.421456,1.400000,-2.520000,-0.700000
26.794967,-0.133712,0.060024,2.309216,-0.420000,0.840000,-0.560000
26.803055,-0.137616,0.065392,2.309216,0.280000,-0.420000,-1.540000
26.811142,-0.115168,0.047824,2.192096,-1.400000,1.260000,-1.960000
26.819229,-0.098088,0.056120,2.216008,0.140000,2.520000,-2.380000
26.827317,-0.111752,0.048800,2.134024,0.700000,4.480000,-1.120000
26.835404,-0.079544,0.032696,2.072536,0.560000,-0.420000,0.840000
26.843491,-0.076616,0.049288,2.063264,-1.540000,1.960000,0.140000
26.851578,-0.104920,0.059536,1.988112,0.140000,0.420000,-2.240000
26.859666,-0.147864,0.077592,1.865136,-1.540000,0.980000,-2.240000
26.867753,-0.096136,0.078568,1.814872,-2.940000,1.260000,-0.560000
26.875840,-0.154208,0.062464,1.708488,0.420000,-0.140000,-0.140000
26.883927,-0.096136,0.028792,1.609424,-0.140000,2.520000,-0.280000
26.892015,-0.141032,-0.052216,1.448872,1.960000,0.980000,0.700000
26.900102,-0.122976,0.104920,1.381040,0.280000,2.940000,0.420000
26.908189,-0.030256,0.153720,1.197064,-1.960000,0.140000,-0.700000
26.916276,-0.013664,-0.178120,1.190232,2.800000,4.060000,-1.540000
26.924364,-0.178608,0.234728,1.245376,3.640000,1.260000,-0.280000
26.932451,0.031232,-0.053192,0.879376,-5.040000,3.640000,-1.260000
26.940538,-0.161528,0.057096,1.227320,6.020000,-2.240000,-0.700000
26.948626,0.054656,0.022936,0.782264,-2.660000,5.740000,-0.140000
26.956713,-0.225944,0.080032,1.179008,5.180000,0.560000,-1.260000
26.964800,0.097600,-0.033184,0.701744,0.000000,-1.120000,1.120000
26.972887,-0.201544,0.138592,1.142408,1.960000,4.200000,-2.100000
26.980975,0.102480,-0.078568,0.714432,1.260000,0.560000,-0.840000
26.989062,-0.123952,0.103944,0.885720,4.200000,4.620000,-0.280000
26.997149,-0.107848,0.036600,0.905240,1.260000,-0.980000,-1.400000
27.005236,0.051240,-0.026840,0.761280,2.100000,-0.420000,-0.420000
27.013324,-0.142008,0.082960,0.990640,5.040000,-0.420000,0.000000
27.021411,-0.030256,0.028304,0.858880,1.820000,4.900000,-2.660000
27.029498,-0.007808,0.005368,0.779824,3.920000,-1.960000,0.840000
27.037586,-0.177144,0.077592,0.920856,1.540000,2.100000,-0.140000
27.045673,0.009272,0.022936,0.843264,3.360000,-2.380000,-0.700000
27.053760,-0.019032,0.003904,0.865224,4.480000,0.420000,0.420000
27.061847,-0.128832,0.076616,0.828624,-0.700000,5.320000,-2.520000
27.069935,-0.004880,0.053680,0.854976,0.840000,-1.680000,-0.700000
27.078022,-0.066368,-0.036600,0.828136,-0.420000,-1.680000,0.000000
27.086109,-0.098576,0.096136,0.887184,0.980000,-3.920000,-2.240000
27.094196,-0.005856,0.008296,0.797392,0.280000,-6.720000,-0.700000
27.102284,-0.103944,0.004392,0.848144,0.280000,-9.380000,-0.280000
27.110371,-0.080032,0.084424,0.823744,-0.560000,-13.440001,-1.120000
27.118458,0.022448,-0.003904,0.861320,1.260000,-14.420000,-0.560000
27.126545,-0.125416,0.002928,0.797880,-1.400000,-11.060000,0.000000
27.134633,-0.053192,0.110776,0.863760,2.660000,-16.940001,-1.120000
27.142720,0.030256,-0.029768,0.847656,0.140000,-10.640000,-1.680000
27.150807,-0.091256,0.005368,0.762256,-1.680000,-11.620000,0.140000
27.158895,-0.081496,0.126880,0.891576,2.240000,-11.620000,-0.420000
27.166982,0.038064,-0.059536,0.806176,1.540000,-11.340000,-2.520000
27.175069,-0.116144,0.042944,0.776896,-0.700000,-11.620000,0.280000
27.183156,-0.089304,0.089792,0.891576,1.960000,-13.300000,0.000000
27.191244,0.036600,-0.018544,0.857416,0.420000,-4.760000,-1.540000
27.199331,-0.067344,0.011712,0.711016,-0.700000,-5.040000,0.140000
27.207418,-0.127856,0.095160,0.918904,3.360000,-12.740000,-0.700000
27.215505,0.047336,-0.014640,0.836432,-0.140000,-2.940000,-3.080000
27.223593,-0.049288,0.016104,0.765672,2.100000,0.000000,0.560000
27.231680,-0.133712,0.051240,0.842776,0.980000,-4.340000,-1.260000
27.239767,-0.021960,0.039528,0.842288,0.980000,-4.060000,-3.220000
27.247855,-0.032208,-0.020984,0.776896,1.960000,-9.100000,1.120000
27.255942,-0.059536,0.039040,0.864248,0.560000,-4.480000,-0.840000
27.264029,-0.056608,0.083936,0.818376,0.420000,-1.820000,-1.960000
27.272116,-0.018056,-0.046848,0.798368,1.680000,-11.620000,-1.120000
27.280204,-0.110288,0.058072,0.856928,-0.140000,-13.020000,-0.560000
27.288291,-0.067832,0.073688,0.852048,1.400000,-9.380000,-0.840000
27.296378,0.016104,-0.042456,0.858880,1.400000,-10.080000,-1.680000
27.304465,-0.103456,0.049776,0.816424,-0.280000,-4.620000,-0.280000
27.312553,-0.107848,0.049288,0.898408,2.520000,-13.860000,-0.700000
27.320640,0.085888,-0.028792,0.806664,1.260000,-8.960000,-0.420000
27.328727,-0.107848,0.065880,0.854976,0.140000,-7.000000,-0.140000
27.336814,-0.146400,0.069296,0.872056,0.560000,-12.320000,-1.680000
27.344902,0.102968,-0.056608,0.780312,1.960000,-18.900000,-1.400000
27.352989,-0.142008,0.083448,0.962336,-0.280000,-9.940000,1.120000
27.361076,-0.071248,0.041968,0.840824,-0.280000,-11.340000,-1.400000
27.369164,0.091256,-0.045872,0.829600,1.680000,-14.280000,0.000000
27.377251,-0.190320,0.079056,0.860832,-0.700000,-14.700000,0.560000
27.385338,0.017568,0.064416,0.910120,0.420000,-8.120000,-1.820000
27.393425,-0.003904,-0.040992,0.807640,0.140000,-3.920000,-0.140000
27.401513,-0.041968,0.021472,0.834968,0.140000,-4.620000,-0.140000
27.409600,-0.107360,0.090768,0.826184,0.560000,-2.940000,-1.120000
27.417687,-0.007808,0.001952,0.835456,2.100000,-2.240000,-1.680000
27.425774,0.006832,-0.017080,0.712480,-0.140000,7.980000,-0.980000
27.433862,-0.072712,0.038552,0.723704,-0.140000,3.500000,0.280000
27.441949,-0.107848,0.068320,0.785192,0.700000,-0.980000,-1.680000
27.450036,0.018056,0.007320,0.725656,1.680000,2.520000,-2.100000
27.458124,0.006832,-0.007320,0.613904,0.280000,3.640000,-0.420000
27.466211,-0.076128,0.000000,0.650016,-0.280000,1.400000,1.260000
27.474298,-0.059536,0.061976,0.705160,0.560000,-1.400000,-1.260000
27.482385,-0.044408,0.045384,0.708576,0.000000,4.620000,-3.080000
27.490473,-0.044408,0.014640,0.663192,0.140000,1.680000,-1.680000
27.498560,0.027328,-0.013664,0.653920,0.700000,-2.380000,-0.140000
27.506647,-0.066856,0.003416,0.642208,0.280000,3.360000,0.280000
27.514734,-0.066856,0.034160,0.704672,3.220000,-1.400000,-0.840000
27.522822,-0.067832,0.056120,0.710040,1.540000,3.640000,-1.260000
27.530909,-0.039040,0.005368,0.674416,3.500000,-1.260000,-0.560000
27.538996,0.002928,0.000000,0.710528,7.420000,-2.520000,-0.280000
27.547084,-0.011224,0.015128,0.585112,6.020000,3.640000,-0.980000
27.555171,-0.064904,0.015128,0.661728,5.040000,0.420000,-0.140000
27.563258,-0.051240,0.035136,0.696864,3.780000,0.700000,-0.560000
27.571345,-0.076128,0.039040,0.705648,4.480000,0.980000,-0.980000
27.579433,-0.011712,0.027328,0.669536,4.480000,-3.080000,-1.820000
27.587520,-0.007320,0.025376,0.743712,3.360000,1.820000,-1.820000
27.595607,-0.038064,0.004392,0.655384,-0.700000,2.800000,-0.140000
27.603694,-0.086376,0.024888,0.827160,-0.840000,-3.920000,0.420000
27.611782,-0.100528,0.075152,0.897920,-1.820000,2.800000,-0.700000
27.619869,0.040504,-0.020496,0.870104,2.380000,-3.500000,-0.700000
27.627956,-0.068808,0.015128,0.919392,0.420000,-0.700000,-0.700000
27.636043,-0.083448,0.098088,1.023824,0.980000,1.820000,-2.380000
27.644131,0.044408,-0.074176,1.012112,0.280000,0.140000,-1.680000
27.652218,-0.210328,0.148840,1.166320,-0.840000,1.540000,-0.420000
27.660305,0.061488,-0.089304,1.107272,0.560000,0.420000,-2.240000
27.668393,-0.235704,0.173728,1.313696,0.420000,-4.480000,1.400000
27.676480,0.157136,-0.137128,1.195112,0.280000,4.340000,-1.820000
27.684567,-0.305976,0.199104,1.557208,1.960000,-6.580000,-0.420000
27.692654,0.147864,-0.095160,1.239032,-0.280000,4.620000,-0.560000
27.700742,-0.181048,0.040992,1.513776,3.080000,2.520000,-1.260000
27.708829,-0.062464,0.141032,1.606984,0.980000,-4.200000,-0.280000
27.716916,-0.116632,0.022936,1.593320,0.560000,2.240000,-1.260000
27.725003,-0.061000,-0.039528,1.614792,2.940000,-2.940000,-1.120000
27.733091,-0.042456,0.042456,1.496696,0.000000,6.020000,-1.960000
27.741178,-0.050264,0.086376,1.606496,0.420000,-2.100000,-0.700000
27.749265,-0.033184,0.029768,1.763144,-1.960000,3.080000,-0.140000
27.757352,-0.167872,-0.016104,1.693360,0.700000,0.140000,-0.560000
27.765440,-0.071736,0.030744,1.642120,2.800000,-1.540000,-0.980000
27.773527,-0.101992,0.129808,1.666032,-0.840000,1.680000,-1.400000
27.781614,-0.060024,0.073688,1.686528,-2.520000,0.140000,-0.700000
27.789702,-0.077104,0.039528,1.709464,-0.700000,0.840000,0.280000
27.797789,-0.064904,0.002928,1.627968,1.400000,1.820000,-0.840000
27.805876,-0.049776,-0.042944,1.594296,0.280000,4.200000,-1.680000
27.813963,-0.101504,0.015128,1.592832,1.400000,-0.280000,-0.700000
27.822051,-0.046848,0.089792,1.658224,4.620000,0.840000,-0.420000
27.830138,-0.092720,0.084912,1.621136,3.080000,5.320000,-0.980000
27.838225,-0.100528,0.010248,1.519144,2.520000,1.820000,-0.140000
27.846312,0.005368,0.041480,1.447408,1.400000,0.280000,-1.120000
27.854400,-0.042944,0.059536,1.601616,2.940000,1.960000,-2.520000
27.862487,-0.169824,0.017568,1.637728,3.080000,2.660000,-0.420000
27.870574,-0.130784,0.005368,1.621136,6.440000,-1.400000,1.260000
27.878661,-0.050752,0.066368,1.436184,4.340000,1.820000,0.560000
27.886749,0.025376,0.073688,1.492792,-2.940000,0.140000,-0.140000
27.894836,-0.006344,0.031232,1.620160,-0.840000,1.960000,-0.700000
27.902923,-0.142008,0.007808,1.612352,3.500000,4.900000,-1.540000
27.911011,-0.175192,0.066856,1.518168,3.920000,-1.680000,0.420000
27.919098,-0.029280,0.084424,1.504016,-2.100000,-2.100000,0.140000
27.927185,0.000976,0.008784,1.563552,0.140000,3.080000,-1.120000
27.935272,-0.078080,-0.037088,1.507920,4.620000,1.120000,-1.260000
27.943360,-0.115168,0.059048,1.569408,0.700000,1.400000,-0.700000
27.951447,-0.099064,0.101016,1.532320,-2.100000,-1.680000,1.260000
27.959534,-0.007808,0.058560,1.590880,2.100000,-1.400000,0.840000
27.967621,-0.051728,0.009272,1.459608,1.680000,2.240000,-0.980000
27.975709,-0.062952,0.063440,1.503040,0.140000,-1.120000,-1.960000
27.983796,-0.127856,0.086376,1.588928,-3.080000,4.060000,-2.240000
27.991883,-0.097600,-0.033184,1.565504,2.380000,-2.660000,-0.280000
27.999970,-0.020984,0.004392,1.455216,2.380000,2.800000,-0.420000
28.008058,-0.016592,0.118584,1.395680,-0.980000,1.120000,-1.120000
28.016145,-0.041480,0.061976,1.582584,0.140000,1.680000,-1.960000
28.024232,-0.144448,0.015616,1.566968,1.400000,2.660000,-0.420000
28.032320,-0.096136,0.052216,1.413248,0.980000,1.260000,0.140000
28.040407,-0.011712,0.087352,1.371768,-0.840000,-3.080000,-0.700000
28.048494,-0.051240,-0.039528,1.433744,-0.140000,5.320000,-1.680000
28.056581,-0.126880,0.014152,1.369816,4.480000,-1.400000,0.700000
28.064669,-0.001464,0.219112,1.300032,-1.680000,1.820000,-2.240000
28.072756,0.000000,-0.107848,1.232688,-1.260000,5.600000,-3.780000
28.080843,-0.223992,0.055632,1.312720,3.220000,-2.800000,1.120000
28.088930,0.059048,0.144936,1.024800,-2.240000,1.120000,1.540000
28.097018,0.046360,-0.094184,1.149240,-0.560000,6.440000,-4.200000
28.105105,-0.270840,0.160064,1.006256,-0.700000,-3.220000,1.260000
28.113192,0.226920,-0.076128,0.887184,0.840000,3.780000,-3.780000
28.121279,-0.294752,0.090280,0.915976,-0.420000,4.340000,0.980000
28.129367,0.105896,0.030256,0.820816,5.180000,-2.100000,-2.240000
28.137454,-0.075152,-0.018056,0.765672,6.300000,3.220000,-0.980000
28.145541,-0.000488,0.042944,0.627568,2.520000,2.380000,-1.540000
28.153629,-0.104920,0.076128,0.734928,6.160000,2.800000,-1.680000
28.161716,-0.012200,0.012200,0.594872,6.440000,-0.140000,-1.260000
28.169803,0.001952,-0.011712,0.600240,10.080000,0.700000,-0.980000
28.177890,-0.019032,-0.003416,0.498736,5.180000,0.980000,-0.700000
28.185978,-0.041480,0.040992,0.570472,7.560000,0.840000,-0.560000
28.194065,-0.038552,0.054168,0.566080,6.440000,0.700000,-1.260000
28.202152,-0.034648,0.051728,0.512400,4.900000,1.400000,-1.400000
28.210239,-0.043920,0.045872,0.515816,2.660000,-0.560000,-1.120000
28.218327,-0.007320,0.030744,0.517768,-0.280000,0.700000,-1.680000
28.226414,-0.017080,0.011712,0.485560,-1.960000,-0.420000,-2.380000
28.234501,-0.040016,0.027328,0.514352,0.700000,1.260000,-1.680000
28.242588,-0.017568,0.001952,0.500200,2.520000,0.000000,-1.680000
28.250676,-0.017568,0.028304,0.521672,1.540000,2.100000,-1.540000
28.258763,-0.036112,0.025864,0.485560,1.960000,2.380000,-1.960000
28.266850,-0.015616,0.017568,0.505080,1.540000,-0.280000,-1.540000
28.274938,-0.036112,0.024400,0.496784,1.400000,1.960000,-1.260000
28.283025,-0.031232,0.017080,0.502152,1.680000,-0.280000,-1.260000
28.291112,-0.021960,0.018544,0.500688,1.120000,1.540000,-1.680000
28.299199,-0.051240,0.010736,0.471408,0.840000,1.120000,-1.120000
28.307287,-0.034160,0.026840,0.512400,2.100000,-1.400000,-1.400000
28.315374,-0.042456,0.029280,0.532408,0.840000,2.380000,-2.380000
28.323461,-0.074176,0.020008,0.459696,0.700000,2.520000,-1.260000
28.331548,-0.015128,0.034160,0.530944,1.400000,-3.220000,-1.120000
28.339636,-0.029280,0.032696,0.524600,-0.280000,3.920000,-1.960000
28.347723,-0.048800,0.034160,0.528992,0.560000,-0.560000,-2.240000
28.355810,-0.032696,0.036112,0.564616,0.280000,0.420000,-1.540000
28.363897,-0.029280,0.019032,0.562176,0.280000,0.420000,-1.680000
28.371985,-0.020984,0.012688,0.560712,0.560000,1.400000,-1.400000
28.380072,-0.045872,-0.002440,0.558272,0.140000,1.400000,-0.980000
28.388159,-0.049776,0.006344,0.566080,1.260000,-1.680000,0.000000
28.396247,-0.059048,0.056608,0.666120,0.560000,1.400000,-1.680000
28.404334,-0.093696,0.069784,0.636352,0.280000,3.080000,-1.540000
28.412421,-0.027328,0.024888,0.655872,1.260000,-1.820000,-2.240000
28.420508,-0.033672,-0.009272,0.679296,1.120000,1.680000,-1.540000
28.428596,-0.004392,-0.027328,0.580232,-0.560000,-1.820000,-0.840000
28.436683,-0.063928,0.056608,0.692472,2.520000,0.840000,-0.420000
28.444770,-0.106872,0.073200,0.679784,0.420000,1.400000,-0.980000
28.452857,-0.068320,0.028792,0.753960,0.700000,-1.820000,-1.820000
28.460945,0.023912,-0.061000,0.745176,7.420000,0.420000,-0.980000
28.469032,-0.034160,-0.039040,0.675880,14.000000,-2.100000,0.700000
28.477119,-0.086376,0.101992,0.694912,15.960000,0.420000,-1.120000
28.485207,-0.094672,0.058560,0.676368,12.040000,2.800000,-1.400000
28.493294,-0.004392,-0.016592,0.727120,12.320000,-2.100000,-1.260000
28.501381,0.010736,-0.034648,0.685640,17.780001,1.120000,0.560000
28.509468,-0.113216,0.023912,0.707112,19.180000,-1.820000,0.840000
28.517556,-0.043920,0.088816,0.711504,19.180000,-2.100000,-1.400000
28.525643,-0.065880,0.028792,0.737856,17.080000,3.500000,-1.820000
28.533730,0.016104,-0.012200,0.637328,18.760000,-1.960000,0.700000
28.541817,-0.061000,-0.001952,0.764208,18.059999,-1.260000,1.260000
