Time [s],lsm6dsv16x_acc_x [g],lsm6dsv16x_acc_y [g],lsm6dsv16x_acc_z [g],lsm6dsv16x_gyro_x [dps],lsm6dsv16x_gyro_y [dps],lsm6dsv16x_gyro_z [dps]
63.430326,-0.129320,0.052216,0.789584,0.840000,-2.100000,0.420000
63.438414,-0.004392,0.041480,0.695888,-0.280000,1.960000,-1.820000
63.446501,-0.047824,0.045384,0.654408,0.280000,3.220000,-1.120000
63.454588,-0.055632,0.014640,0.697352,2.520000,0.140000,-0.140000
63.462676,-0.061488,0.042944,0.684176,1.260000,1.120000,-0.560000
63.470763,-0.079056,0.010248,0.718824,0.840000,1.260000,-1.260000
63.478850,-0.071736,0.082472,0.778848,0.560000,2.380000,-1.680000
63.486938,-0.053680,0.048800,0.772016,1.260000,2.380000,-1.680000
63.495025,-0.013664,-0.026352,0.802760,1.960000,-2.520000,-1.120000
63.503112,-0.088328,0.095160,0.891088,0.280000,1.260000,-1.260000
63.511199,-0.114192,0.036112,1.054080,1.120000,-0.140000,-1.820000
63.519287,-0.052216,0.018544,0.939400,0.840000,-0.980000,0.000000
63.527374,-0.162504,0.114680,1.212192,1.120000,0.280000,-1.680000
63.535461,0.005368,-0.013176,1.046272,1.680000,-2.380000,-0.980000
63.543549,-0.151768,0.118096,1.317112,-2.100000,0.980000,-2.520000
63.551636,-0.045384,-0.042944,1.125816,0.560000,-1.260000,-0.280000
63.559723,-0.190320,0.210816,1.348344,-0.700000,1.400000,0.140000
63.567810,0.053192,-0.074176,1.191696,-1.680000,2.100000,-1.400000
63.575898,-0.242048,0.085888,1.454728,1.540000,0.280000,-3.360000
63.583985,-0.052704,0.113216,1.233664,-3.220000,-2.100000,-0.700000
63.592072,0.010736,-0.050752,1.258552,1.820000,0.560000,-2.380000
63.600160,-0.300608,0.141520,1.408368,-0.840000,0.560000,0.700000
63.608247,0.069296,0.007808,1.065304,1.400000,2.800000,-0.840000
63.616334,-0.142984,0.094184,1.240496,-0.420000,-3.080000,-0.980000
63.624422,-0.055632,-0.015616,1.112640,0.000000,2.800000,0.840000
63.632509,-0.116632,0.168848,1.046760,-0.140000,6.580000,-2.520000
63.640596,-0.063440,-0.119072,0.993080,2.940000,-5.600000,1.960000
63.648683,-0.084912,0.206912,1.020408,0.560000,3.920000,-2.520000
63.656771,-0.021472,-0.077104,0.826184,1.680000,0.140000,0.140000
63.664858,-0.091256,0.122976,0.913048,0.560000,3.640000,-1.260000
63.672945,-0.116632,0.050264,0.828624,0.140000,0.000000,-0.840000
63.681033,0.006832,-0.000488,0.787632,1.680000,0.560000,-0.140000
63.689120,-0.106384,0.049288,0.778848,1.120000,1.260000,0.700000
63.697207,-0.062952,0.058072,0.784216,0.560000,2.240000,-1.540000
63.705294,-0.059048,0.058560,0.725168,1.120000,2.240000,-2.240000
63.713382,-0.016104,0.017080,0.693448,0.560000,1.820000,-0.420000
63.721469,-0.018056,0.021472,0.759816,2.660000,-1.120000,0.140000
63.729556,-0.151280,0.057096,0.813008,-0.700000,3.500000,-1.260000
63.737644,-0.091256,0.079056,0.847168,1.120000,-0.840000,-1.680000
63.745731,0.019520,0.010248,0.836432,0.700000,1.400000,-1.120000
63.753818,-0.111264,-0.003416,0.787632,-0.560000,-0.140000,-0.280000
63.761906,-0.098576,0.131760,0.998936,1.820000,0.700000,-1.820000
63.769993,-0.028792,-0.022936,0.898408,1.540000,1.680000,-1.540000
63.778080,-0.062952,0.059048,0.919392,2.240000,-2.940000,-0.560000
63.786167,-0.103456,0.060512,1.154120,1.540000,1.680000,-3.360000
63.794255,0.003904,0.018544,0.849608,-0.140000,3.500000,-1.820000
63.802342,-0.226920,0.093208,1.218536,3.640000,-3.220000,-0.560000
63.810429,0.085400,0.049776,0.994056,-0.560000,3.920000,-0.980000
63.818517,-0.252296,0.004392,1.233664,-0.560000,-3.360000,-0.560000
63.826604,0.092720,0.138104,1.138016,2.100000,2.240000,-2.380000
63.834691,-0.243512,0.010736,1.251232,-2.940000,-2.240000,-1.260000
63.842778,-0.003904,-0.011712,1.282464,5.040000,2.380000,0.420000
63.850866,-0.171776,0.244488,1.265872,-2.940000,-1.680000,-1.260000
63.858953,0.012688,-0.201544,1.334192,1.400000,1.820000,-1.680000
63.867040,-0.220576,0.244488,1.417640,1.120000,0.140000,-1.260000
63.875128,-0.014640,0.032208,1.196088,-2.240000,-1.120000,-1.120000
63.883215,-0.140056,-0.047336,1.378112,2.520000,2.380000,0.700000
63.891302,-0.062952,0.193736,1.382504,0.280000,-1.540000,-0.840000
63.899389,-0.066856,-0.010736,1.248792,-1.680000,4.760000,-3.360000
63.907477,-0.163968,0.061976,1.288808,0.000000,-1.960000,-0.280000
63.915564,-0.001952,0.052704,1.250256,-0.280000,1.820000,-0.700000
63.923651,-0.178608,0.067344,1.242448,0.700000,1.960000,-0.840000
63.931739,-0.046360,0.046360,1.109712,-0.280000,-1.680000,-0.420000
63.939826,-0.012688,0.025864,1.137040,2.240000,4.900000,-3.080000
63.947913,-0.220576,0.100528,1.039440,-2.940000,-0.700000,1.120000
63.956001,0.069784,-0.028304,1.005768,3.640000,4.900000,-3.360000
63.964088,-0.202032,0.084424,0.818376,-1.120000,-3.920000,2.940000
63.972175,0.028304,0.054656,0.969168,1.820000,6.440000,-3.640000
63.980262,-0.064904,0.021472,0.743224,-0.840000,0.560000,0.560000
63.988350,-0.021472,0.023912,0.691984,3.640000,0.420000,-0.280000
63.996437,-0.157624,0.081008,0.822280,1.260000,0.980000,-0.420000
64.004524,-0.060512,0.023424,0.657336,-0.560000,1.680000,-1.120000
64.012612,0.005856,0.056608,0.684664,2.800000,0.280000,-0.700000
64.020699,-0.036600,-0.001464,0.643672,0.140000,2.520000,-0.420000
64.028786,-0.035136,0.032208,0.693448,2.660000,-0.280000,-2.100000
64.036873,-0.114680,0.030744,0.732000,-0.420000,3.080000,-1.400000
64.044961,-0.084912,0.080520,0.809104,0.560000,-1.680000,-1.400000
64.053048,-0.037088,0.040016,0.902312,1.540000,2.240000,-1.120000
64.061135,-0.018056,-0.040016,0.839848,0.700000,0.560000,-1.120000
64.069223,-0.101016,0.140544,1.010648,0.700000,0.560000,-1.120000
64.077310,-0.086376,-0.054656,1.108248,1.400000,0.840000,-1.820000
64.085397,-0.102480,0.155184,1.112640,1.400000,-2.380000,0.700000
64.093485,-0.030744,-0.064904,1.191208,0.700000,3.920000,-3.220000
64.101572,-0.202520,0.159576,1.303936,2.940000,-5.460000,0.700000
64.109659,0.077104,0.010248,1.163880,0.420000,2.520000,-4.060000
64.117746,-0.236192,0.061976,1.386408,-0.560000,1.820000,-1.400000
64.125834,0.001464,0.039528,1.235616,2.240000,2.380000,-2.100000
64.133921,-0.256200,0.121512,1.340048,-1.540000,-2.940000,1.680000
64.142008,0.146400,-0.021960,1.240008,0.140000,4.060000,-2.520000
64.150096,-0.235216,0.070272,1.360544,1.820000,1.400000,-2.660000
64.158183,-0.104432,0.123952,0.999912,-3.780000,-2.940000,1.400000
64.166270,0.056120,-0.058560,1.219024,2.100000,6.160000,-3.500000
64.174357,-0.310856,0.157136,1.079456,-0.420000,-1.680000,1.960000
64.182445,0.202520,-0.064416,0.863760,0.140000,3.640000,-2.380000
64.190532,-0.349896,0.147864,0.985760,1.120000,-1.820000,0.280000
64.198619,0.147376,-0.028304,0.692960,-1.260000,3.360000,-1.820000
64.206707,-0.143960,0.048312,0.728096,0.560000,4.200000,0.840000
64.214794,0.020496,0.057584,0.653920,3.080000,-1.400000,-0.280000
64.222881,-0.147864,0.047824,0.703696,0.420000,4.340000,-1.960000
64.230968,-0.035624,0.030256,0.573888,0.980000,-0.980000,-0.420000
64.239056,-0.010248,0.019520,0.644648,0.700000,1.540000,-1.820000
64.247143,-0.070760,0.041480,0.606584,0.280000,3.500000,-0.420000
64.255230,-0.011712,0.015128,0.643672,3.920000,-3.360000,0.420000
64.263318,-0.051728,0.056120,0.780800,1.820000,2.380000,-0.560000
64.271405,-0.139080,0.032696,0.807152,0.280000,0.700000,-1.400000
64.279492,-0.020984,0.095160,0.930128,1.540000,-0.560000,-2.380000
64.287580,-0.034648,-0.040504,0.919880,0.420000,1.400000,-0.980000
64.295667,-0.132248,0.125416,1.086776,0.420000,-5.460000,-0.980000
64.303754,-0.019520,-0.065392,1.262456,2.380000,2.100000,-1.400000
64.311841,-0.213744,0.233752,1.354688,1.260000,-1.820000,-1.400000
64.319929,0.080032,-0.150792,1.290272,2.100000,2.100000,-0.980000
64.328016,-0.212280,0.154696,1.583560,0.700000,-1.120000,-1.540000
64.336103,-0.054168,0.141520,1.599176,-1.960000,-5.040000,-2.100000
64.344191,-0.172752,0.002928,1.666520,-0.280000,0.420000,-2.380000
64.352278,-0.133224,0.023912,1.595272,0.980000,-0.840000,-0.980000
64.360365,-0.048800,0.062952,1.615768,1.120000,1.400000,-2.520000
64.368452,-0.068320,0.127856,1.651880,-1.540000,3.640000,-2.520000
64.376540,-0.080032,0.075152,1.685552,-0.420000,1.540000,-1.260000
64.384627,-0.116632,0.057584,1.698240,0.560000,3.500000,-1.120000
64.392714,-0.177144,-0.018544,1.597224,0.980000,0.840000,-0.840000
64.400802,-0.106384,0.059048,1.627480,1.260000,-0.420000,-1.820000
64.408889,-0.153232,0.106872,1.539152,-1.540000,2.660000,-1.400000
64.416976,-0.046848,0.102480,1.525000,0.560000,-1.120000,-0.700000
64.425064,-0.036600,0.029280,1.384456,0.700000,5.740000,-1.960000
64.433151,-0.166896,0.005856,1.374208,0.000000,2.380000,-1.680000
64.441238,-0.128344,0.105896,1.425936,-0.280000,-1.540000,0.000000
64.449325,-0.043920,0.081008,1.333704,0.700000,2.100000,0.000000
64.457413,-0.089792,-0.003904,1.174128,-0.840000,3.640000,-1.120000
64.465500,-0.141032,0.101992,1.342976,0.560000,-1.400000,-0.560000
64.473587,-0.035136,0.030744,1.163880,0.280000,2.800000,-1.400000
64.481675,-0.134688,0.070272,1.198528,-1.400000,0.280000,-0.560000
64.489762,-0.021960,0.007808,1.204384,0.280000,4.760000,-1.400000
64.497849,-0.126392,0.093208,1.187792,2.940000,-1.820000,-1.680000
64.505936,-0.090280,0.046360,1.100440,-3.640000,0.140000,0.000000
64.514024,-0.043432,-0.003416,1.215120,4.060000,-1.120000,-1.400000
64.522111,-0.183976,0.168848,1.138016,-1.680000,-2.520000,0.280000
64.530198,0.021472,-0.091256,1.112152,1.680000,-2.380000,-2.800000
64.538286,-0.280600,0.156648,1.251720,2.240000,-11.060000,2.800000
64.546373,0.171776,0.019032,1.095560,-0.700000,-3.360000,-2.660000
64.554460,-0.338184,0.002440,1.267824,3.500000,-7.840000,-0.980000
64.562548,0.070760,0.183000,1.073600,0.280000,-13.720000,1.960000
64.570635,-0.109312,-0.116144,1.234152,0.980000,-2.800000,-2.240000
64.578722,-0.196664,0.196664,1.191696,2.240000,-11.340000,3.780000
64.586809,0.160064,-0.041968,1.017968,0.420000,-6.860000,-4.620000
64.594897,-0.394304,0.082960,1.388360,0.420000,-10.220000,1.540000
64.602984,0.235216,0.065880,0.915000,0.140000,-6.440000,-1.960000
64.611071,-0.349896,0.000976,1.418616,1.960000,-7.000000,-2.520000
64.619159,0.031720,0.093208,0.993568,1.120000,-13.020000,1.960000
64.627246,-0.096136,0.061976,1.221464,-2.380000,-3.780000,-3.080000
64.635333,-0.179584,0.013176,1.245376,3.360000,-15.820000,3.220000
64.643420,0.184464,0.093208,1.042856,0.000000,0.140000,-4.200000
64.651508,-0.262056,0.052704,1.312232,0.420000,-5.320000,1.120000
64.659595,0.025376,0.013176,1.049688,1.540000,13.020000,-3.780000
64.667682,-0.203496,0.156160,1.210240,-0.840000,-7.560000,2.100000
64.675770,0.085888,-0.146888,1.098488,2.520000,10.920000,-1.960000
64.683857,-0.314272,0.296216,1.221464,0.980000,-1.960000,0.560000
64.691944,0.164944,-0.219112,0.995520,0.000000,1.120000,0.000000
64.700032,-0.272304,0.276696,1.300032,0.980000,3.640000,-0.980000
64.708119,0.095648,-0.136640,0.810568,2.240000,0.700000,-0.420000
64.716206,-0.196664,0.219600,1.258552,0.980000,-0.700000,-1.680000
64.724293,0.036112,-0.120048,0.729560,0.700000,-2.380000,0.840000
64.732381,-0.192272,0.204472,1.236592,-1.260000,8.400000,-2.240000
64.740468,0.091256,-0.063440,0.770552,1.120000,-3.080000,0.420000
64.748555,-0.168360,0.107360,1.056520,4.340000,1.540000,-1.120000
64.756643,-0.044896,0.005368,0.921344,-0.280000,1.400000,-1.400000
64.764730,-0.016592,0.006832,0.795440,-0.280000,-0.280000,0.140000
64.772817,-0.172752,0.164456,0.994056,2.240000,2.100000,-0.980000
64.780905,0.004392,-0.040016,0.827160,1.820000,1.540000,-1.540000
64.788992,-0.007808,0.044896,0.851072,-0.840000,-3.640000,0.000000
64.797079,-0.141520,0.105408,0.929152,0.420000,5.600000,-2.800000
64.805166,0.020496,-0.033184,0.767624,0.700000,1.680000,-0.280000
64.813254,-0.076128,0.056608,0.810080,0.000000,-3.640000,1.680000
64.821341,-0.101504,0.092232,0.883768,0.000000,4.620000,-1.960000
64.829428,-0.015128,-0.002440,0.781288,-0.140000,-0.700000,-1.400000
64.837516,-0.036112,0.020008,0.787144,0.140000,1.260000,-0.280000
64.845603,-0.148840,0.084912,0.846192,0.280000,1.260000,-0.560000
64.853690,-0.018544,0.025376,0.838872,0.840000,-1.540000,-1.400000
64.861777,-0.024400,0.010248,0.746640,0.280000,2.800000,-0.140000
64.869865,-0.105408,0.054168,0.841312,0.140000,-0.420000,-0.280000
64.877952,-0.084424,0.057096,0.898408,-0.420000,1.400000,-1.680000
64.886039,0.006832,0.000976,0.758352,1.960000,-0.980000,-1.540000
64.894127,-0.078080,0.074664,0.887184,0.140000,1.960000,-0.840000
64.902214,-0.115656,0.052216,0.930616,-0.560000,-0.280000,-2.520000
64.910301,0.030256,-0.001464,0.859368,0.700000,0.420000,-0.280000
64.918389,-0.100528,0.060512,0.989664,0.700000,0.420000,-0.980000
64.926476,-0.085888,0.069784,0.996984,-0.700000,2.520000,-2.800000
64.934563,-0.046360,-0.036112,0.980880,1.680000,-3.640000,0.980000
64.942650,-0.086864,0.160064,1.072136,-0.280000,4.760000,-2.240000
64.950738,-0.037576,-0.092232,0.992592,2.380000,0.980000,-0.560000
64.958825,-0.109312,0.180560,1.076528,-1.960000,-0.980000,-1.540000
64.966912,-0.030744,-0.092232,1.023336,1.960000,2.800000,-0.980000
64.975000,-0.133712,0.178608,1.054568,0.000000,-4.480000,0.840000
64.983087,0.038552,-0.078080,1.083848,2.240000,6.300000,-2.940000
64.991174,-0.175680,0.135664,0.935496,-0.560000,-0.700000,0.000000
64.999261,-0.028304,-0.016104,1.061400,3.360000,-0.700000,-1.680000
65.007349,-0.021472,0.054168,0.824232,-0.840000,-0.280000,0.980000
65.015436,-0.120048,0.081984,1.011136,3.080000,4.340000,-3.220000
65.023523,0.004880,-0.009272,0.790072,0.000000,0.000000,-0.280000
65.031611,-0.115656,0.059536,0.830576,0.700000,0.980000,-0.280000
65.039698,-0.060512,0.063928,0.828136,0.560000,0.560000,-0.980000
65.047785,-0.002440,0.018544,0.735416,0.560000,2.940000,-1.820000
65.055873,-0.055144,0.015128,0.688080,0.700000,1.120000,-0.140000
65.063960,-0.087840,0.061000,0.693448,1.260000,0.980000,-0.420000
65.072047,-0.073688,0.057584,0.680272,1.260000,2.100000,-0.840000
65.080134,-0.039528,0.005856,0.698816,0.700000,0.560000,-1.400000
65.088222,0.026352,0.041480,0.586576,0.280000,0.840000,-1.820000
65.096309,-0.069296,0.027816,0.642208,1.400000,2.940000,-0.420000
65.104396,-0.037088,0.034160,0.597312,0.700000,1.540000,0.000000
65.112484,-0.096624,0.035624,0.698816,1.120000,0.840000,-0.420000
65.120571,-0.039528,0.032696,0.626592,0.840000,0.420000,-1.960000
65.128658,-0.043920,0.034160,0.648064,-0.140000,1.820000,-1.680000
65.136746,-0.033184,0.054656,0.602192,0.420000,0.700000,-0.560000
65.144833,-0.017080,0.031720,0.669536,1.120000,0.560000,-0.840000
65.152920,-0.073688,0.001952,0.656360,0.560000,1.540000,-0.560000
65.161007,-0.057584,0.012200,0.680760,0.560000,-2.240000,0.000000
65.169095,-0.020008,0.078080,0.714432,0.000000,0.700000,-1.820000
65.177182,-0.069784,0.061000,0.762256,0.140000,3.920000,-2.240000
65.185269,-0.044408,-0.008296,0.740296,1.400000,-0.840000,-0.980000
65.193357,-0.020984,0.001952,0.724192,1.120000,0.140000,-0.560000
65.201444,-0.098088,0.086864,0.769088,0.140000,3.080000,-1.120000
65.209531,-0.053680,0.054168,0.837408,1.680000,-2.100000,-1.260000
65.217618,0.001464,-0.021960,0.825208,0.420000,-0.420000,-2.380000
65.225706,-0.120048,0.043920,0.746152,0.280000,2.800000,-0.560000
65.233793,-0.089304,0.072224,0.896456,2.660000,-2.800000,-0.700000
65.241880,0.004392,0.011712,0.821304,0.140000,2.940000,-1.820000
65.249968,-0.042944,0.007808,0.715408,0.560000,0.700000,-0.420000
65.258055,-0.107848,0.076128,0.846192,1.260000,0.700000,0.000000
65.266142,-0.036112,0.039528,0.879376,0.420000,-0.420000,-2.100000
65.274230,0.013664,0.008296,0.775432,0.140000,0.980000,0.000000
65.282317,-0.132736,0.045872,0.893528,0.280000,-1.120000,-0.420000
65.290404,-0.039040,0.071736,0.918416,-0.280000,1.680000,-1.960000
65.298491,-0.002440,-0.010248,0.817400,0.420000,0.700000,-0.140000
65.306579,-0.148840,0.045384,0.942328,-0.280000,-1.120000,-0.560000
65.314666,-0.027328,0.083936,0.978928,0.140000,1.540000,-2.380000
65.322753,-0.050264,-0.040504,0.895968,1.260000,-0.560000,0.140000
65.330841,-0.088328,0.122976,0.996496,-1.400000,3.220000,-1.260000
65.338928,-0.029280,-0.009272,0.980392,1.260000,-0.560000,0.000000
65.347015,-0.078080,0.049776,1.043832,-1.680000,-0.840000,-2.380000
65.355102,-0.086864,0.083448,1.066280,1.120000,3.220000,-2.380000
65.363190,-0.033184,-0.056120,1.024800,0.140000,-3.500000,0.000000
65.371277,-0.129320,0.172264,1.243424,0.840000,4.760000,-1.120000
65.379364,-0.018544,-0.102480,0.990152,-1.540000,-3.360000,-0.280000
65.387452,-0.123464,0.174704,1.385432,3.640000,-0.560000,-1.400000
65.395539,-0.037576,-0.014152,0.992592,-2.940000,-2.100000,-0.140000
65.403626,-0.151280,0.023912,1.407880,4.200000,-6.160000,-1.260000
65.411714,-0.027328,0.184464,1.153144,-1.260000,-7.420000,0.420000
65.419801,-0.026840,-0.133712,1.240008,1.120000,-0.980000,-4.200000
65.427888,-0.236680,0.170312,1.386896,1.120000,-9.800000,0.980000
65.435975,0.114680,-0.002928,1.095072,-0.280000,-1.120000,-2.940000
65.444063,-0.294752,0.041968,1.399096,0.560000,-8.400000,0.140000
65.452150,0.085400,0.066368,1.290760,4.200000,-4.620000,-0.140000
65.460237,-0.118096,0.074176,1.186328,-0.280000,-2.940000,-1.960000
65.468325,-0.142496,0.019520,1.335656,1.120000,-11.480000,1.820000
65.476412,0.007320,0.014152,1.299056,2.520000,1.540000,-1.400000
65.484499,-0.158600,0.173728,1.246840,-1.680000,-3.920000,-0.840000
65.492586,-0.011224,-0.116144,1.387384,2.380000,-2.380000,-0.840000
65.500674,-0.134688,0.122000,1.364936,3.220000,1.540000,-0.140000
65.508761,0.002928,0.134688,1.238544,-3.640000,-2.660000,-0.980000
65.516848,-0.122488,-0.111264,1.500112,2.940000,4.060000,-1.540000
65.524936,-0.179096,0.153720,1.345904,2.380000,1.400000,0.840000
65.533023,0.049776,0.096624,1.319552,-0.840000,-0.840000,-0.560000
65.541110,-0.132736,-0.074664,1.497184,2.520000,0.700000,-0.840000
65.549198,-0.167872,0.123952,1.466928,0.140000,1.540000,-0.140000
65.557285,-0.009272,0.087840,1.432280,-1.120000,2.800000,-2.100000
65.565372,-0.061000,-0.007320,1.481080,2.240000,0.560000,-1.820000
65.573459,-0.150792,0.060512,1.527440,-0.700000,-0.700000,-0.700000
65.581547,-0.111264,0.102968,1.620648,-1.120000,-1.120000,-0.420000
65.589634,-0.126392,0.020984,1.553304,0.700000,1.680000,-0.140000
65.597721,-0.075152,0.009272,1.505480,1.960000,-0.560000,0.980000
65.605809,-0.031720,0.091744,1.571848,1.260000,1.260000,-0.420000
65.613896,-0.107360,0.100528,1.626504,-0.420000,1.820000,-2.240000
65.621983,-0.172752,0.025864,1.588928,1.260000,-1.400000,-1.260000
65.630071,-0.101992,0.026352,1.545984,2.240000,-2.240000,-0.280000
65.638158,-0.064904,0.070272,1.498648,0.280000,1.540000,-0.980000
65.646245,-0.024400,0.070272,1.574288,1.400000,-0.980000,-1.960000
65.654332,-0.099552,0.008784,1.585512,-0.560000,3.500000,-2.660000
65.662420,-0.198616,0.043920,1.460584,4.620000,0.000000,-0.280000
65.670507,-0.098088,0.189832,1.411784,1.820000,-2.660000,0.000000
65.678594,-0.016592,-0.013176,1.316624,-0.980000,1.260000,-1.400000
65.686682,-0.052704,-0.065880,1.373232,2.800000,5.460000,-2.100000
65.694769,-0.158600,0.234240,1.336144,-0.280000,-0.840000,-2.240000
65.702856,-0.021960,-0.045872,1.112640,-1.400000,0.980000,-1.260000
65.710943,-0.122488,0.006832,1.279536,3.080000,1.820000,-1.260000
65.719031,-0.078080,0.176656,1.129232,0.280000,-1.680000,0.280000
65.727118,-0.011712,-0.090280,1.038952,0.420000,6.300000,-2.520000
65.735205,-0.164944,0.141520,1.094096,1.540000,-1.680000,1.400000
65.743293,0.040992,-0.002440,0.913048,-0.280000,5.320000,-3.640000
65.751380,-0.133224,0.025376,1.015528,3.220000,-0.560000,0.420000
65.759467,-0.064904,0.094672,0.925736,-0.980000,5.740000,-4.760000
65.767555,-0.045872,-0.036600,0.838872,2.100000,-2.100000,1.540000
65.775642,-0.099552,0.132248,0.996496,-0.840000,2.940000,-2.100000
65.783729,0.003416,-0.039040,0.879864,4.060000,3.360000,-2.800000
65.791816,-0.111752,0.012200,0.911096,6.580000,0.140000,0.700000
65.799904,-0.094184,0.070272,0.986248,8.400000,-1.960000,-1.260000
65.807991,0.019032,-0.046848,0.875472,12.040000,2.380000,-0.560000
65.816078,-0.216184,0.100528,0.956480,15.120000,-1.680000,-0.700000
65.824166,0.069296,-0.000488,0.853512,20.580000,2.100000,-1.120000
65.832253,-0.103944,0.012688,0.880352,19.040001,-1.400000,0.140000
65.840340,-0.081008,0.092720,0.962336,19.460001,2.520000,-1.540000
65.848427,0.013664,-0.036112,0.834968,21.980000,1.960000,-0.700000
65.856515,-0.143472,0.082472,0.865712,18.480000,-1.960000,0.280000
65.864602,-0.036600,0.071248,0.930616,18.620001,0.980000,-1.400000
65.872689,-0.020984,-0.049288,0.861808,19.180000,-0.420000,-0.700000
65.880777,-0.147864,0.120536,0.925248,17.500000,2.660000,-0.280000
65.888864,-0.033184,0.001464,0.901336,19.740000,-1.820000,-0.560000
65.896951,-0.031232,0.028304,0.882304,17.780001,0.140000,-0.280000
65.905039,-0.115168,0.095160,0.928664,16.240000,2.100000,-2.100000
65.913126,-0.015128,0.007320,0.806664,16.240000,-0.420000,-0.700000
65.921213,-0.059536,0.075152,0.831064,8.680000,0.000000,0.280000
65.929300,-0.108336,0.085888,0.977952,4.200000,0.560000,-1.540000
65.937388,0.044408,-0.055632,0.780800,7.560000,2.240000,-0.980000
65.945475,-0.152744,0.134200,0.954040,6.020000,-0.140000,-0.140000
65.953562,-0.028304,0.033184,0.852048,4.340000,0.000000,-1.540000
65.961650,0.001952,-0.008296,0.855464,0.700000,-1.400000,0.560000
65.969737,-0.154696,0.142984,0.940376,-2.380000,2.100000,-2.520000
65.977824,-0.010248,-0.024888,0.866688,-3.360000,1.260000,-0.840000
65.985911,-0.109312,0.034160,0.908656,-4.200000,-2.660000,2.240000
65.993999,-0.032208,0.094672,0.992592,0.420000,2.520000,-1.820000
66.002086,0.006344,-0.040504,0.794464,1.120000,0.980000,-0.560000
66.010173,-0.160064,0.105896,0.919880,-1.120000,-1.960000,-0.140000
66.018261,0.005856,0.024400,0.948184,-0.840000,0.560000,-0.840000
66.026348,-0.055144,-0.011224,0.840824,0.840000,0.980000,0.000000
66.034435,-0.106384,0.116144,0.976976,1.680000,1.400000,-1.540000
66.042523,-0.025864,-0.010736,0.805688,0.140000,0.980000,-0.700000
66.050610,-0.042456,0.042944,0.879376,1.540000,-0.140000,0.560000
66.058697,-0.104920,0.088816,0.935008,-0.280000,3.500000,-2.380000
66.066784,-0.003904,-0.015616,0.825208,2.520000,-0.840000,-1.400000
66.074872,-0.037576,0.047824,0.832528,0.700000,2.800000,0.140000
66.082959,-0.123464,0.080032,0.879376,0.280000,1.400000,-0.700000
66.091046,0.027816,-0.009760,0.823744,2.240000,1.400000,-1.540000
66.099134,-0.048800,0.028792,0.784216,0.140000,0.560000,-0.140000
66.107221,-0.135664,0.085888,0.883768,1.400000,-2.800000,-1.540000
66.115308,0.024888,0.026352,0.835944,0.420000,6.020000,-2.380000
66.123395,-0.070760,-0.010736,0.725168,0.840000,0.560000,0.560000
66.131483,-0.142496,0.115656,0.920856,1.260000,-2.940000,-0.560000
66.139570,0.017568,0.019520,0.823256,1.540000,3.360000,-2.520000
66.147657,-0.040504,-0.009272,0.761280,0.700000,0.700000,0.560000
66.155745,-0.138592,0.091256,0.864736,0.700000,0.000000,-0.980000
66.163832,-0.014152,0.031720,0.843264,0.560000,1.400000,-1.540000
66.171919,0.016592,-0.004392,0.773968,1.820000,-2.380000,0.140000
66.180007,-0.140544,0.082472,0.918416,0.420000,3.780000,-2.660000
66.188094,-0.078568,0.044408,0.849608,0.980000,-1.260000,-2.100000
66.196181,-0.013664,-0.012688,0.910120,0.980000,-9.240000,1.400000
66.204268,-0.154696,0.112728,1.031144,-0.700000,-6.160000,-1.820000
66.212356,0.006344,-0.023912,0.982832,1.540000,-6.860000,-2.380000
66.220443,-0.199104,0.100528,1.015528,-1.540000,-17.639999,0.280000
66.228530,0.018544,0.000976,1.093608,1.820000,-12.880000,-0.420000
66.236618,-0.108824,0.092720,1.094096,-2.240000,-19.879999,0.000000
66.244705,-0.000976,-0.018544,1.162416,1.960000,-10.360000,-2.240000
66.252792,-0.168848,0.156648,1.088240,-4.340000,-17.780001,-1.400000
66.260880,-0.000976,-0.111752,1.154120,2.940000,-14.420000,-1.260000
66.268967,-0.173240,0.247416,1.161928,-4.340000,-21.980000,0.280000
66.277054,0.081496,-0.187392,1.160464,3.080000,-12.460000,-1.680000
66.285141,-0.256200,0.302560,1.180472,-3.780000,-16.240000,0.280000
66.293229,0.121512,-0.193736,1.063352,0.700000,-17.920000,-2.100000
66.301316,-0.269864,0.251320,1.351272,0.420000,-14.840000,0.140000
66.309403,0.181536,-0.082472,0.951600,-0.560000,-12.460000,-2.660000
66.317491,-0.325496,0.127856,1.436184,2.800000,-9.100000,0.700000
66.325578,0.137616,0.045384,0.882792,-2.800000,-10.500000,-0.280000
66.333665,-0.185440,-0.013176,1.423496,3.080000,-12.040000,-1.400000
66.341752,0.047336,0.132736,0.938912,-2.940000,0.000000,0.000000
66.349840,-0.126880,-0.004880,1.229272,1.820000,1.960000,-3.920000
66.357927,-0.070760,0.050752,0.995032,0.700000,-4.900000,4.060000
66.366014,0.020984,0.096624,1.148264,1.400000,4.480000,-4.900000
66.374102,-0.146400,-0.036600,0.972096,0.140000,6.300000,2.100000
66.382189,-0.030256,0.165432,1.086288,0.420000,2.660000,-5.040000
66.390276,-0.109800,-0.094672,0.952088,2.100000,-4.620000,3.080000
66.398364,-0.011712,0.206424,1.095560,-0.140000,5.740000,-4.340000
66.406451,-0.094672,-0.098088,0.935008,2.240000,0.700000,1.540000
66.414538,-0.095648,0.183488,1.043832,0.140000,-1.260000,-2.100000
66.422625,0.011712,-0.042944,1.012600,2.520000,1.120000,-0.140000
66.430713,-0.111264,0.072712,0.975024,0.140000,2.100000,-2.240000
66.438800,-0.063440,0.061488,1.063352,3.500000,0.000000,-0.840000
66.446887,-0.041968,-0.007320,0.957944,-1.400000,0.140000,-0.840000
66.454975,-0.116632,0.131760,1.194136,3.220000,1.680000,-0.700000
66.463062,0.040504,-0.069784,0.895968,-0.840000,0.980000,-0.700000
66.471149,-0.231312,0.179584,1.318088,2.100000,1.820000,-1.120000
66.479236,0.113704,-0.076128,0.826672,0.420000,-1.260000,-0.700000
66.487324,-0.295728,0.161040,1.423496,2.380000,1.680000,-0.560000
66.495411,0.191784,-0.025864,0.845216,0.000000,3.780000,-1.120000
66.503498,-0.316712,0.090768,1.379088,-0.840000,0.140000,-2.380000
66.511586,0.129320,-0.010736,0.917440,2.100000,-1.120000,0.420000
66.519673,-0.235216,0.133224,1.317112,-0.980000,1.960000,-3.780000
66.527760,0.024888,-0.073200,1.056520,2.800000,-0.560000,1.820000
66.535848,-0.119560,0.192272,1.224880,-1.400000,3.920000,-3.780000
66.543935,-0.075152,-0.116632,1.123376,1.540000,-4.760000,2.940000
66.552022,-0.002440,0.198616,1.173152,-0.140000,6.160000,-2.940000
66.560109,-0.141520,-0.045384,1.096048,-2.520000,-1.260000,0.280000
66.568197,-0.072224,0.115656,1.106784,3.640000,5.460000,-0.840000
66.576284,-0.031232,0.004880,0.973560,0.000000,-4.760000,0.700000
66.584371,-0.066368,0.053680,1.078480,0.280000,5.460000,-1.400000
66.592459,-0.027816,-0.002928,0.735904,0.140000,-0.840000,-0.140000
66.600546,-0.156160,0.158112,1.007720,2.660000,1.260000,-0.980000
66.608633,0.064904,-0.055144,0.739808,1.960000,0.420000,-0.980000
66.616720,-0.053192,0.040504,0.745176,-0.420000,-0.980000,0.420000
66.624808,-0.113216,0.068808,0.739320,1.260000,3.640000,-1.400000
66.632895,-0.041480,0.044408,0.664656,0.420000,1.260000,-0.980000
66.640982,0.000000,0.030256,0.617320,0.980000,1.400000,-0.700000
66.649070,-0.018056,0.030744,0.505080,0.840000,0.700000,-1.120000
66.657157,-0.067832,0.028792,0.571448,0.980000,3.780000,-1.400000
66.665244,-0.045384,0.013664,0.526064,1.960000,0.140000,-0.700000
66.673332,-0.007320,0.044896,0.524112,0.980000,1.540000,-0.840000
66.681419,-0.033184,0.022936,0.493368,0.840000,2.800000,-1.260000
66.689506,-0.032696,0.023912,0.495320,0.980000,0.980000,-1.400000
66.697593,-0.037088,0.022936,0.479216,0.280000,1.400000,-1.260000
66.705681,-0.021960,0.027328,0.465552,0.560000,0.280000,-0.700000
66.713768,-0.028304,0.033672,0.491416,0.420000,1.540000,-0.980000
66.721855,-0.041480,0.021960,0.508008,0.280000,1.540000,-0.980000
66.729943,-0.042456,0.025376,0.554856,0.560000,-0.980000,-0.560000
66.738030,-0.046360,0.063928,0.590968,0.980000,0.280000,-0.560000
66.746117,-0.092720,0.053192,0.688568,0.700000,-0.140000,-1.260000
66.754204,-0.024400,0.056608,0.746640,0.980000,0.560000,-2.380000
66.762292,0.000976,-0.007320,0.781776,0.000000,-0.420000,-0.980000
66.770379,-0.058560,0.054168,0.887672,0.840000,-2.520000,-0.840000
66.778466,-0.133224,0.061976,1.125328,0.700000,3.640000,-4.340000
66.786554,-0.013664,0.011712,0.980880,1.400000,-1.120000,-0.280000
66.794641,-0.160064,0.080032,1.325896,-0.140000,-0.700000,-1.120000
66.802728,-0.002440,0.034648,1.188280,0.980000,-1.820000,-0.280000
66.810815,-0.105408,0.104920,1.334192,-0.840000,-0.980000,-2.940000
66.818903,-0.068320,-0.019032,1.392752,-0.560000,-0.840000,-1.960000
66.826990,-0.101016,0.084424,1.441552,3.500000,2.660000,-2.520000
66.835077,-0.118584,0.097112,1.309792,-0.280000,-4.060000,-0.700000
66.843165,0.010736,-0.004880,1.366888,-1.680000,5.460000,-2.800000
66.851252,-0.164944,0.006344,1.398120,4.620000,-2.100000,0.140000
66.859339,-0.094184,0.204472,1.274168,-1.400000,1.820000,-0.280000
66.867427,-0.038064,-0.053680,1.169248,-0.560000,0.560000,-0.840000
66.875514,-0.067344,0.034160,1.288320,4.340000,2.240000,-0.700000
66.883601,-0.130784,0.203496,0.963800,-3.920000,-2.240000,0.560000
66.891688,0.057096,-0.183000,1.090192,0.840000,4.900000,-1.400000
66.899776,-0.229360,0.257664,0.965264,0.000000,-3.640000,1.680000
66.907863,0.142008,-0.112728,0.895968,1.960000,4.200000,-3.080000
66.915950,-0.180560,0.104920,0.827648,0.700000,-0.140000,0.560000
66.924038,-0.038064,0.055632,0.835944,-1.120000,1.540000,-0.980000
66.932125,-0.042944,0.019520,0.819840,1.960000,1.260000,-0.980000
66.940212,0.002440,0.002440,0.679296,1.120000,2.800000,-0.420000
66.948299,-0.086864,0.073200,0.743224,1.260000,0.140000,-0.840000
66.956387,-0.071736,0.069784,0.772016,-0.140000,2.660000,-1.680000
66.964474,0.027816,0.004392,0.773480,1.120000,-0.980000,-0.980000
66.972561,-0.025864,0.036600,0.790072,0.280000,1.960000,0.140000
66.980649,-0.168848,0.064904,0.962336,0.280000,1.680000,-1.680000
66.988736,0.031232,0.025376,0.973560,2.380000,-2.380000,-0.700000
66.996823,-0.142008,0.030256,1.068720,0.280000,-0.700000,1.400000
67.004911,0.016592,0.113704,1.125328,1.260000,1.540000,-3.220000
67.012998,-0.118584,-0.052704,1.186328,0.000000,-0.840000,-0.420000
67.021085,-0.037576,0.174704,1.221464,1.120000,4.060000,-3.080000
67.029172,-0.134688,-0.045384,1.255624,-1.400000,-6.860000,-0.140000
67.037260,0.030744,0.040504,1.321504,4.060000,7.280000,-2.660000
67.045347,-0.197152,0.235216,1.222928,-4.060000,-1.820000,-0.560000
67.053434,0.063440,-0.206912,1.299056,3.500000,0.280000,-1.680000
67.061522,-0.216184,0.259128,1.336632,-0.420000,2.520000,0.280000
67.069609,0.061976,0.010248,1.123864,-1.820000,-2.940000,-2.240000
67.077696,-0.145424,-0.062952,1.278072,1.960000,5.180000,-1.260000
67.085783,-0.045872,0.267424,1.048224,-2.520000,-4.340000,0.280000
67.093871,0.030744,-0.194712,1.066280,0.700000,6.300000,-2.380000
67.101958,-0.229848,0.260104,0.969656,1.540000,-0.420000,0.700000
67.110045,0.130784,-0.088328,0.850096,0.280000,1.960000,-2.940000
67.118133,-0.145912,0.061488,0.749080,0.700000,2.660000,0.980000
67.126220,-0.012688,0.081008,0.755424,0.840000,1.400000,-1.260000
67.134307,-0.081008,0.028792,0.696864,1.680000,3.080000,-1.120000
67.142395,0.027328,0.004880,0.531432,1.260000,1.540000,-1.120000
67.150482,-0.022448,0.033184,0.558760,1.540000,0.840000,-0.420000
67.158569,-0.015128,0.005368,0.510448,0.280000,2.240000,-0.560000
67.166656,-0.042944,0.053192,0.511912,0.980000,3.080000,-0.700000
67.174744,-0.024400,0.037576,0.533384,1.820000,1.120000,-0.420000
67.182831,-0.043432,0.047824,0.554856,0.140000,2.380000,-0.280000
67.190918,-0.060512,0.040504,0.632936,1.120000,-0.280000,-0.700000
67.199006,-0.060512,0.063928,0.684176,-1.120000,0.000000,-1.120000
67.207093,-0.025864,0.013176,0.752984,-0.420000,-1.400000,-1.820000
67.215180,0.036600,0.001464,0.748592,-0.140000,-0.840000,-1.120000
67.223267,-0.089304,0.053680,0.936472,1.400000,0.840000,0.140000
67.231355,-0.101504,0.097112,1.130696,1.120000,-1.120000,-1.820000
67.239442,0.008784,-0.026840,1.038464,0.980000,1.540000,0.840000
67.247529,-0.086376,0.170800,1.366400,-1.120000,2.380000,-2.660000
67.255617,-0.113704,-0.030256,1.308328,-0.980000,-3.220000,0.420000
67.263704,0.057584,0.069784,1.327848,0.840000,5.040000,-4.480000
67.271791,-0.185928,0.133224,1.515240,-1.260000,-5.740000,-1.260000
67.279879,-0.047336,0.004880,1.464000,0.000000,2.660000,-1.540000
67.287966,-0.111752,0.017080,1.337120,2.520000,-3.500000,0.140000
67.296053,0.034160,0.138104,1.420568,-0.980000,6.020000,-3.220000
67.304140,-0.176168,0.026840,1.360056,1.680000,-0.280000,-0.560000
67.312228,-0.016592,0.046848,1.249280,3.080000,-3.220000,1.540000
67.320315,-0.047824,0.087840,1.193648,-2.800000,4.480000,-0.140000
67.328402,-0.031720,0.005856,1.141432,4.200000,0.700000,-1.400000
67.336490,-0.164944,0.154208,1.127280,-1.960000,1.260000,0.140000
67.344577,0.119560,-0.092720,0.976488,3.920000,1.120000,-0.700000
67.352664,-0.197640,0.197152,1.094584,-2.240000,-1.120000,0.140000
67.360751,0.100528,-0.060024,0.849120,2.380000,4.060000,-1.400000
67.368839,-0.174216,0.139080,1.017968,0.560000,-0.980000,-0.560000
67.376926,0.026352,0.035136,0.916952,0.560000,3.920000,-1.400000
67.385013,-0.061488,-0.013176,0.927688,-0.280000,-0.840000,0.280000
67.393101,-0.073200,0.135664,1.028704,2.100000,-0.700000,-1.680000
67.401188,0.020008,-0.033184,1.016504,2.100000,2.940000,-2.380000
67.409275,-0.099552,0.151280,1.081896,-0.700000,-0.420000,-0.840000
67.417363,-0.029768,-0.049776,1.259040,1.820000,5.180000,-3.080000
67.425450,-0.095648,0.139568,1.213656,-1.120000,-1.960000,0.420000
67.433537,-0.036112,-0.026352,1.373232,2.240000,3.080000,-2.380000
67.441624,-0.192760,0.198128,1.420080,-0.840000,-4.480000,2.100000
67.449712,0.174704,-0.039528,1.391776,-0.560000,2.100000,-2.940000
67.457799,-0.194224,0.014152,1.553304,1.960000,1.820000,-2.380000
67.465886,-0.076128,0.224480,1.445456,-0.280000,-1.540000,-0.840000
67.473974,-0.025864,0.045384,1.460096,-1.400000,-0.700000,-1.960000
67.482061,-0.062464,-0.074664,1.509384,2.240000,3.080000,-1.540000
67.490148,-0.120048,0.104920,1.447896,1.400000,0.700000,-0.980000
67.498235,-0.024400,0.218624,1.404952,-0.980000,-0.700000,-1.960000
67.506323,-0.055144,-0.059048,1.273680,-0.980000,3.780000,-1.260000
67.514410,-0.118584,0.010248,1.363960,3.920000,-2.940000,1.400000
67.522497,-0.003416,0.245464,1.167784,-1.960000,2.660000,-0.280000
67.530585,-0.005368,-0.153232,1.078968,2.100000,1.820000,-2.660000
67.538672,-0.175192,0.220576,1.152168,3.220000,-2.800000,1.120000
67.546759,0.146888,-0.055144,0.778360,-2.520000,4.620000,-2.520000
67.554847,-0.274256,0.169336,1.109224,3.360000,-3.220000,0.980000
67.562934,0.186416,-0.026840,0.716384,-0.420000,5.460000,-2.800000
67.571021,-0.163480,0.056120,0.858880,0.840000,-2.240000,0.560000
67.579108,0.032696,0.077104,0.770064,0.420000,4.200000,-1.540000
67.587196,-0.074176,0.054656,0.770064,1.260000,1.120000,-2.520000
67.595283,0.017080,-0.003416,0.739320,0.280000,1.540000,-0.980000
67.603370,-0.084912,0.059536,0.761280,0.420000,2.240000,-0.560000
67.611458,-0.060512,0.075152,0.758840,0.700000,-1.400000,-0.560000
67.619545,0.017080,0.048312,0.811544,1.120000,3.220000,-3.080000
67.627632,-0.033184,-0.013664,0.743224,0.140000,3.500000,-0.420000
67.635719,-0.064904,0.092720,0.858392,1.540000,-3.360000,1.120000
67.643807,-0.058560,0.047824,1.035048,0.980000,2.380000,-1.260000
67.651894,0.026352,0.025376,0.889624,0.840000,-2.100000,0.000000
67.659981,-0.102480,0.105408,1.186328,1.540000,3.640000,-2.800000
67.668069,0.022448,0.007808,0.956480,0.280000,1.540000,-1.680000
67.676156,-0.175192,0.089304,1.348344,1.680000,-2.380000,-0.840000
67.684243,0.112240,0.078568,1.093120,-0.700000,0.140000,-1.260000
67.692331,-0.191784,-0.001952,1.418616,0.560000,0.140000,-2.660000
67.700418,-0.000488,0.118096,1.284416,1.820000,0.280000,0.140000
67.708505,0.004880,0.036600,1.234152,0.000000,3.640000,-3.220000
67.716592,-0.190808,0.041480,1.435208,0.560000,-6.860000,1.120000
67.724680,0.059536,0.090768,1.320528,1.120000,3.920000,-1.820000
67.732767,-0.042456,0.045384,1.255136,1.820000,1.820000,-2.660000
67.740854,-0.116144,0.092232,1.390312,-1.820000,0.700000,-1.820000
67.748942,-0.043432,-0.000976,1.170712,1.960000,0.140000,-0.420000
67.757029,-0.005368,0.108824,1.197064,1.680000,3.640000,-1.400000
67.765116,-0.131760,0.051728,1.022360,-0.840000,0.000000,-0.420000
67.773203,0.048312,0.009760,1.002840,1.540000,3.640000,-0.560000
67.781291,-0.123464,0.081496,0.858392,0.420000,-3.220000,1.260000
67.789378,0.032208,0.062464,0.862784,1.960000,4.340000,-3.360000
67.797465,-0.036600,0.005856,0.667584,0.700000,3.640000,-0.420000
67.805553,-0.007808,0.052216,0.606096,0.980000,1.120000,0.560000
67.813640,-0.060024,0.047824,0.656848,1.400000,-0.420000,-0.560000
67.821727,-0.032208,0.054168,0.617320,0.560000,1.960000,-1.820000
67.829815,-0.031232,0.044408,0.598776,1.120000,3.640000,-1.260000
67.837902,0.014152,0.020008,0.526064,0.560000,0.420000,0.280000
67.845989,0.026352,0.015128,0.583160,0.840000,0.980000,-0.420000
67.854076,-0.037576,0.057096,0.567544,0.560000,2.660000,-0.140000
67.862164,-0.043432,0.044408,0.678320,2.100000,-0.980000,-0.560000
67.870251,-0.061488,0.056120,0.751032,0.000000,1.120000,-1.960000
67.878338,-0.023424,0.035136,0.819840,-0.560000,-0.280000,-2.660000
67.886426,0.029768,0.040504,0.803248,0.840000,0.280000,-0.840000
67.894513,-0.097600,0.020008,0.911096,0.560000,0.420000,-0.140000
67.902600,-0.002440,0.120048,1.008696,0.280000,1.400000,-1.960000
67.910687,-0.034160,-0.042944,0.999912,1.400000,0.560000,-0.280000
67.918775,-0.080032,0.157624,1.111664,-1.960000,2.660000,-3.080000
67.926862,-0.003416,-0.084912,1.040416,2.940000,-2.380000,-0.280000
67.934949,-0.071248,0.220088,1.260992,-2.940000,0.980000,-2.240000
67.943037,-0.034160,-0.129320,1.084824,1.540000,-1.680000,0.560000
67.951124,-0.047336,0.231312,1.297104,2.380000,2.940000,-2.800000
67.959211,-0.044896,-0.061000,1.104832,-1.120000,0.420000,-0.280000
67.967299,-0.055632,0.077592,1.249280,2.100000,-1.260000,0.700000
67.975386,-0.040016,0.088816,1.215120,0.280000,-3.080000,0.000000
67.983473,0.000976,0.019032,1.201944,2.800000,6.300000,-3.220000
67.991560,-0.130296,0.090768,1.222440,-1.540000,-3.080000,0.140000
67.999648,0.076616,0.005856,1.220000,3.360000,2.940000,-1.960000
68.007735,-0.195688,0.156160,1.204384,-0.140000,-0.840000,-0.840000
68.015822,0.071736,-0.078568,1.183400,1.540000,-0.700000,-1.120000
68.023910,-0.098088,0.199104,1.241472,0.980000,4.900000,-1.540000
68.031997,-0.076616,-0.025376,1.189744,-0.420000,-4.480000,-0.420000
68.040084,0.051240,0.013664,1.214144,3.920000,4.900000,-0.700000
68.048171,-0.155184,0.233752,1.171688,-3.360000,1.120000,-1.540000
68.056259,0.078568,-0.177632,1.198528,4.480000,-2.380000,-1.960000
68.064346,-0.115656,0.261080,1.238056,-2.520000,5.600000,-1.400000
68.072433,-0.029280,-0.061488,1.132648,-1.260000,-4.900000,-1.540000
68.080521,-0.031232,0.065880,1.296128,5.740000,7.140000,-2.380000
68.088608,-0.074664,0.159576,1.113616,-2.520000,-2.100000,-0.980000
68.096695,0.010736,-0.113704,1.275144,3.220000,-0.700000,-0.700000
68.104783,-0.134688,0.236192,1.157536,-0.280000,4.760000,-0.700000
68.112870,0.070760,-0.090280,1.063840,1.260000,-0.840000,-2.800000
68.120957,-0.162504,0.162992,1.179008,2.100000,0.420000,0.280000
68.129044,0.083936,-0.032696,0.815936,-0.980000,0.420000,-0.140000
68.137132,-0.147864,0.129808,1.081408,2.240000,4.340000,-2.520000
68.145219,0.091744,-0.035624,0.628544,-0.280000,0.140000,1.540000
68.153306,-0.131272,0.125416,0.944768,1.960000,-1.680000,-2.520000
68.161394,0.022936,0.013176,0.727120,-0.840000,4.620000,-1.400000
68.169481,0.000976,0.033184,0.631472,1.260000,1.400000,-1.400000
68.177568,-0.057584,0.040016,0.661728,1.120000,-1.820000,0.840000
68.185655,-0.026352,0.048800,0.704672,0.280000,2.520000,-2.520000
68.193743,-0.023424,0.056608,0.659776,0.980000,0.560000,-1.120000
68.201830,0.020984,0.032208,0.636840,-0.280000,2.240000,-1.960000
68.209917,-0.035136,0.024400,0.643672,0.420000,0.980000,-0.420000
68.218005,-0.054168,0.036600,0.728096,1.120000,-0.420000,-0.560000
68.226092,-0.049776,0.073200,0.821304,0.420000,2.380000,-2.240000
68.234179,0.022936,0.048800,0.779824,0.980000,2.940000,-2.240000
68.242267,-0.039040,-0.010248,0.876448,1.120000,-0.980000,-0.420000
68.250354,-0.096624,0.126392,1.064328,-0.980000,1.540000,-2.380000
68.258441,0.004392,-0.048312,1.050664,1.820000,-0.560000,-1.680000
68.266528,-0.112728,0.193248,1.216584,0.000000,-2.380000,-1.120000
68.274616,0.012688,-0.123952,1.297592,2.240000,1.540000,-0.840000
68.282703,-0.077104,0.224480,1.402512,2.240000,-0.840000,-1.820000
68.290790,-0.009272,0.077592,1.401048,-4.620000,2.100000,-3.920000
68.298878,-0.101504,-0.024888,1.615768,2.520000,2.380000,-4.480000
68.306965,-0.138592,0.034648,1.567456,1.260000,-4.060000,-1.120000
68.315052,-0.029768,0.108824,1.603568,1.820000,-0.560000,-2.100000
68.323139,-0.081008,0.120536,1.565016,-0.840000,2.520000,-1.540000
68.331227,-0.029280,0.092720,1.645536,1.120000,-1.260000,-1.260000
68.339314,-0.043920,0.062464,1.606008,-0.980000,1.120000,-0.560000
68.347401,-0.064904,0.024400,1.615280,2.100000,0.560000,-1.680000
68.355489,-0.118584,0.045384,1.570872,1.540000,3.220000,-1.260000
68.363576,-0.119072,0.088816,1.490352,1.400000,0.420000,-0.980000
68.371663,-0.023424,0.118096,1.388360,-0.840000,-1.540000,-1.120000
68.379750,-0.010248,0.086864,1.416176,-0.980000,1.820000,-2.800000
68.387838,-0.097600,-0.029280,1.391776,1.120000,2.240000,-0.560000
68.395925,-0.096136,0.077104,1.312232,2.380000,-0.140000,0.840000
68.404012,-0.039040,0.172752,1.216096,-1.260000,-3.220000,0.420000
68.412100,0.019520,-0.051240,1.250744,0.140000,3.500000,-1.400000
68.420187,-0.109312,0.077592,1.245376,3.640000,2.800000,-1.820000
68.428274,-0.100040,0.159576,1.078480,-2.380000,-3.500000,0.700000
68.436362,0.091744,-0.099552,1.152656,3.360000,2.240000,-1.260000
68.444449,-0.197152,0.186904,1.196088,2.100000,1.120000,-1.400000
68.452536,0.021472,0.010736,0.990640,-0.700000,-0.560000,-0.140000
68.460623,-0.045384,0.035136,1.224392,2.940000,4.620000,-2.240000
68.468711,-0.146400,0.160552,1.125328,-1.260000,-5.040000,3.220000
68.476798,0.142008,-0.070760,1.171200,0.840000,8.120000,-2.800000
68.484885,-0.275720,0.155184,1.308328,3.500000,-5.880000,0.000000
68.492973,0.111752,0.065392,1.090192,-2.100000,2.100000,-1.960000
68.501060,-0.073200,-0.031720,1.407880,1.680000,2.520000,-2.240000
68.509147,-0.194224,0.127856,1.283440,2.240000,-1.260000,0.280000
68.517234,0.065880,0.107848,1.241960,0.140000,2.100000,-1.960000
68.525322,-0.118096,-0.059536,1.288808,0.140000,0.140000,0.980000
68.533409,-0.076616,0.135176,1.412272,1.960000,-1.960000,0.840000
68.541496,-0.020496,0.091744,1.283928,-0.560000,2.940000,0.000000
68.549584,0.029768,0.013176,1.287344,3.220000,-0.140000,-1.960000
68.557671,-0.149816,0.070760,1.362008,-0.980000,5.600000,-1.960000
68.565758,-0.068320,0.089792,1.333216,1.120000,6.020000,0.140000
68.573845,0.017568,0.042944,1.229272,1.820000,6.720000,-1.260000
68.581933,-0.108336,0.040016,1.298080,0.420000,1.820000,-0.840000
68.590020,-0.091744,0.067344,1.312232,0.420000,3.080000,0.000000
68.598107,0.016104,0.078080,1.159976,2.660000,5.880000,-0.140000
68.606195,-0.119560,0.066368,1.150704,-0.420000,5.460000,-1.400000
68.614282,-0.026352,-0.007320,1.106784,2.800000,2.660000,0.700000
68.622369,0.016104,0.142496,0.977952,1.120000,5.180000,-1.540000
68.630457,-0.126392,-0.028304,0.894504,0.280000,3.220000,1.400000
68.638544,-0.017080,0.140056,0.801784,0.840000,8.260000,-3.640000
68.646631,-0.047336,-0.040504,0.650504,2.380000,-7.140000,2.800000
68.654718,-0.012688,0.083936,0.754448,-0.420000,-0.140000,-1.120000
68.662806,-0.064416,0.036600,0.555832,-0.560000,3.920000,-0.840000
68.670893,0.040016,0.025376,0.537288,1.960000,2.520000,-1.120000
68.678980,-0.045872,0.055144,0.455304,0.280000,1.960000,-0.700000
68.687068,-0.028304,0.047336,0.494832,2.520000,0.560000,-0.700000
68.695155,-0.024888,0.028304,0.464088,1.540000,1.400000,-0.980000
68.703242,-0.018544,0.038552,0.452864,0.560000,1.680000,-0.840000
68.711329,-0.034648,0.024888,0.422608,1.260000,2.800000,-0.700000
68.719417,-0.012688,0.023424,0.412360,1.260000,0.140000,-0.560000
68.727504,-0.020496,0.038552,0.387960,0.280000,1.540000,-0.700000
68.735591,-0.015128,0.031232,0.377224,0.000000,0.560000,-0.700000
68.743679,-0.018544,0.034160,0.387960,0.560000,0.840000,-0.700000
68.751766,-0.029280,0.027328,0.377224,0.280000,1.820000,-0.700000
68.759853,-0.021960,0.020008,0.354288,0.980000,-0.280000,-0.140000
68.767940,0.003904,0.037088,0.379176,0.980000,1.120000,-0.840000
68.776028,-0.018056,0.021960,0.357216,0.420000,2.380000,-0.700000
68.784115,-0.016104,0.014640,0.384056,0.980000,0.420000,-0.280000
68.792202,0.003904,0.016104,0.396256,1.120000,1.400000,-0.980000
68.800290,-0.027328,0.020984,0.373320,0.280000,1.960000,-0.840000
68.808377,-0.019032,0.032696,0.387472,0.980000,-0.980000,-0.140000
68.816464,0.001464,0.034160,0.401624,0.280000,1.540000,-0.560000
68.824552,-0.034648,0.030744,0.397232,-0.280000,-0.420000,-0.560000
68.832639,0.001952,0.040504,0.416752,0.560000,-0.560000,-1.260000
68.840726,-0.027816,0.035624,0.420168,0.140000,2.100000,-1.540000
68.848813,-0.035624,0.036600,0.418704,0.560000,-0.700000,-0.140000
68.856901,-0.002928,0.038064,0.462624,0.840000,0.420000,-0.420000
68.864988,-0.023424,0.034648,0.467992,0.280000,1.680000,-0.980000
68.873075,-0.015128,0.033184,0.483608,0.560000,-0.560000,-1.260000
68.881163,-0.009760,0.023912,0.508496,0.140000,0.700000,-0.980000
68.889250,-0.011712,0.011712,0.559736,0.420000,0.280000,-0.980000
68.897337,-0.018544,0.023912,0.620248,0.560000,0.840000,-0.700000
68.905424,-0.023424,0.049288,0.610976,0.140000,1.400000,-0.700000
68.913512,-0.061488,0.059048,0.744688,1.120000,0.700000,-0.280000
68.921599,-0.057584,0.063928,0.754448,-0.560000,-0.980000,-1.680000
68.929686,0.007320,0.034648,0.721752,-0.980000,1.400000,-2.380000
68.937774,0.013176,0.013664,0.767136,1.120000,0.700000,-1.400000
68.945861,-0.078568,0.050264,0.871568,-0.420000,0.420000,-0.420000
68.953948,-0.084912,0.093696,0.937448,-0.840000,-0.700000,-1.680000
68.962035,0.063440,-0.019520,0.853512,1.120000,1.820000,-0.840000
68.970123,-0.085888,0.067344,0.950136,-0.560000,2.100000,-1.120000
68.978210,-0.111264,0.089792,1.007720,0.700000,1.260000,-1.540000
68.986297,0.056120,-0.033672,0.885720,1.960000,-2.800000,0.140000
68.994385,-0.149816,0.150304,1.079456,-0.840000,2.660000,-1.120000
69.002472,0.072224,-0.045384,0.875960,1.540000,2.240000,-1.540000
69.010559,-0.115656,0.115656,1.045784,0.420000,-2.100000,0.000000
69.018647,-0.029768,0.021960,1.051152,0.980000,2.100000,-3.500000
69.026734,-0.047824,0.034648,0.997472,0.700000,-1.120000,1.260000
69.034821,-0.065880,0.101992,1.157048,0.700000,0.560000,-2.100000
69.042908,-0.015128,-0.038552,1.049200,2.520000,1.540000,0.980000
69.050996,-0.117608,0.187392,1.161928,0.420000,-1.960000,-1.680000
69.059083,-0.011712,-0.112240,1.124840,0.700000,-2.100000,2.660000
69.067170,-0.024888,0.256688,1.250744,0.560000,2.660000,-3.640000
69.075258,-0.125416,-0.135664,1.217560,-0.420000,-1.960000,0.000000
69.083345,-0.022448,0.178120,1.328824,5.180000,-0.840000,-1.400000
69.091432,-0.030744,0.095648,1.281000,-3.360000,-2.940000,-1.540000
69.099519,-0.095648,-0.086864,1.395680,3.780000,5.180000,-2.660000
69.107607,-0.057584,0.229848,1.280024,0.420000,-4.060000,-0.560000
69.115694,0.020008,-0.032208,1.382504,-1.120000,5.600000,-2.240000
69.123781,-0.223992,0.042456,1.485472,4.620000,-4.200000,1.120000
69.131869,0.050264,0.163968,1.353224,-1.120000,-1.260000,-0.980000
69.139956,-0.039040,-0.015128,1.362496,-0.840000,6.580000,-3.220000
69.148043,-0.114680,0.072224,1.519632,2.520000,0.700000,-1.400000
69.156130,-0.089792,0.158112,1.358104,-2.520000,-0.840000,-1.120000
69.164218,-0.006832,-0.013176,1.367864,-1.680000,1.680000,-1.540000
69.172305,-0.094184,0.018056,1.488400,1.400000,3.080000,-0.980000
69.180392,-0.094184,0.193248,1.378112,-1.400000,-0.700000,-0.700000
69.188480,0.009760,0.058560,1.351760,-2.240000,-1.540000,-1.400000
69.196567,-0.089304,-0.088328,1.448872,1.400000,4.760000,-1.820000
69.204654,-0.114192,0.195200,1.381040,1.400000,-1.680000,-0.840000
69.212742,0.001464,0.137616,1.277096,-2.800000,-0.420000,-1.120000
69.220829,-0.033184,-0.126880,1.360544,2.520000,3.640000,-1.960000
69.228916,-0.150304,0.195688,1.337120,1.960000,-0.140000,0.140000
69.237003,0.062464,0.113216,1.122888,-2.100000,1.820000,-1.960000
69.245091,-0.110288,-0.088328,1.356152,3.640000,1.540000,-1.120000
69.253178,-0.100528,0.233264,1.222928,-1.680000,-0.420000,1.400000
69.261265,0.141032,-0.055144,1.092144,1.400000,3.500000,-3.360000
69.269353,-0.307928,0.135176,1.304912,1.120000,-0.280000,0.700000
69.277440,0.213256,0.045384,0.942816,-0.140000,2.940000,-1.260000
69.285527,-0.247904,0.074176,1.307840,0.840000,0.840000,-1.680000
69.293614,0.099064,0.048312,0.965752,0.700000,2.520000,0.980000
69.301702,-0.121512,0.081984,1.204384,0.840000,7.000000,-3.780000
69.309789,-0.062464,0.053192,0.941352,0.560000,-4.200000,4.480000
69.317876,0.054656,0.096624,1.173640,0.420000,11.620000,-5.320000
69.325964,-0.159576,0.007808,0.907680,0.420000,-5.320000,1.540000
69.334051,0.092232,0.122000,1.153144,-0.280000,4.060000,-5.320000
69.342138,-0.183976,-0.004880,0.897432,-1.120000,-4.060000,2.240000
69.350225,0.017080,0.170800,1.156560,4.340000,8.680000,-4.200000
69.358313,-0.056608,-0.091256,0.872056,0.840000,-2.240000,0.420000
69.366400,-0.038552,0.168360,1.079456,-0.840000,-1.540000,-1.820000
69.374487,-0.020008,0.010736,0.893528,0.140000,4.060000,-1.820000
69.382575,-0.107848,0.137616,0.922808,2.660000,2.660000,-0.840000
69.390662,0.059536,-0.019032,0.969168,0.420000,-1.540000,-1.540000
69.398749,-0.100528,0.067832,0.858880,-1.120000,0.140000,-0.420000
69.406837,-0.093696,0.127856,0.981856,2.940000,3.220000,-1.820000
69.414924,0.034648,-0.028792,0.770064,1.260000,-0.280000,-0.420000
69.423011,-0.059536,0.101016,0.768112,-1.260000,0.840000,-0.980000
69.431098,-0.087352,0.094672,0.802272,0.420000,1.680000,-0.700000
69.439186,0.040504,0.015128,0.712480,2.100000,-1.120000,-0.700000
69.447273,-0.012200,0.013176,0.689544,0.420000,2.800000,-0.420000
69.455360,-0.068320,0.062952,0.610976,0.420000,1.540000,0.140000
69.463448,-0.044896,0.099064,0.660264,1.680000,-0.280000,-0.560000
69.471535,-0.017080,0.047824,0.691496,1.820000,1.820000,-2.100000
69.479622,-0.020984,0.034648,0.625616,0.140000,1.260000,-1.260000
69.487709,-0.014152,0.007320,0.611464,1.820000,0.000000,0.000000
69.495797,-0.024888,0.052704,0.603656,0.560000,0.420000,0.140000
69.503884,-0.040016,0.058560,0.633912,1.120000,0.420000,-0.280000
69.511971,-0.024400,0.087352,0.637328,1.400000,0.140000,-2.240000
69.520059,-0.044896,0.037088,0.660264,0.840000,2.520000,-1.960000
69.528146,-0.020008,0.048312,0.617808,0.420000,-1.400000,-0.700000
69.536233,0.023912,0.023424,0.591944,0.140000,1.680000,-0.420000
69.544321,-0.024400,0.028304,0.602680,0.980000,0.980000,-0.560000
69.552408,-0.026352,0.070272,0.626592,1.120000,1.540000,-0.700000
69.560495,-0.057584,0.062464,0.659288,0.560000,1.820000,-1.260000
69.568582,-0.037088,0.063928,0.625128,-0.280000,0.560000,-1.680000
69.576670,-0.012200,0.033672,0.676368,-0.560000,1.120000,-1.960000
69.584757,-0.006344,0.039040,0.559736,0.280000,0.700000,-1.540000
69.592844,-0.015128,0.018544,0.647088,2.380000,1.540000,-0.560000
69.600932,-0.002440,0.079056,0.627080,1.820000,1.260000,-1.680000
69.609019,-0.083936,0.037576,0.694912,1.120000,5.740000,-1.680000
69.617106,-0.043920,0.072224,0.617808,1.260000,-1.260000,-0.840000
69.625194,0.004880,0.039528,0.670024,1.260000,0.000000,-1.540000
69.633281,-0.009272,0.034160,0.609024,1.820000,1.680000,-1.960000
69.641368,-0.027816,0.032696,0.645624,2.800000,1.120000,-0.840000
69.649455,-0.054168,0.057584,0.643184,1.960000,1.400000,0.000000
69.657543,-0.028304,0.049288,0.677832,0.980000,-0.980000,-0.560000
69.665630,-0.061976,0.064904,0.659776,0.280000,0.840000,-1.120000
69.673717,-0.000488,0.045384,0.610488,1.260000,-0.280000,-1.540000
69.681805,-0.024400,0.036112,0.660752,1.260000,0.840000,-0.280000
69.689892,0.012200,0.026840,0.617320,0.560000,1.960000,-0.280000
69.697979,-0.032696,0.024400,0.662216,0.560000,-0.980000,-0.840000
69.706066,-0.066368,0.081496,0.628056,-1.400000,2.240000,-1.120000
69.714154,-0.079056,0.056608,0.691496,1.540000,-3.920000,-1.120000
69.722241,0.034160,0.058072,0.682712,0.420000,2.800000,-1.960000
69.730328,-0.038064,0.008296,0.668560,0.420000,2.240000,-1.120000
69.738416,0.016104,0.019520,0.630008,0.980000,0.000000,0.560000
69.746503,-0.063928,0.072712,0.718824,0.700000,-1.120000,0.000000
69.754590,-0.101504,0.089304,0.767624,0.420000,2.100000,-2.100000
69.762678,0.007808,0.030744,0.767136,0.700000,0.280000,-2.100000
69.770765,0.056608,0.017568,0.770064,1.260000,-0.840000,-0.280000
69.778852,-0.132736,0.052216,0.889624,0.280000,-0.420000,0.280000
69.786939,-0.016104,0.089304,1.015040,2.800000,-1.260000,-2.520000
69.795027,-0.009272,0.004392,1.014064,2.520000,1.260000,-0.140000
69.803114,-0.139568,0.146888,1.106296,-0.280000,1.820000,-1.120000
69.811201,0.027328,-0.068808,1.190232,3.920000,1.260000,0.980000
69.819289,-0.080032,0.275720,1.249768,-1.820000,-0.980000,-0.700000
69.827376,0.010248,-0.160064,1.259040,0.280000,0.420000,-1.120000
69.835463,-0.111264,0.209840,1.401536,2.380000,3.920000,-2.100000
69.843550,0.020984,0.129320,1.243424,-3.920000,0.140000,-1.960000
69.851638,-0.114680,-0.060512,1.501088,2.240000,1.680000,-0.840000
69.859725,-0.130784,0.129808,1.390312,0.000000,-2.520000,1.400000
69.867812,0.079056,0.128344,1.374208,-0.840000,-0.560000,-0.420000
69.875900,-0.063440,-0.014640,1.451800,-0.280000,6.440000,-0.840000
69.883987,-0.096136,0.142008,1.503040,2.520000,-0.140000,-0.560000
69.892074,-0.085400,0.126392,1.330288,-3.640000,0.140000,-0.420000
69.900162,0.029768,-0.032208,1.438136,1.680000,0.980000,0.000000
69.908249,-0.078568,0.061976,1.423984,0.980000,4.480000,-0.980000
69.916336,-0.022448,0.223016,1.298568,-1.820000,1.680000,-0.700000
69.924423,0.001464,-0.048312,1.242936,-1.120000,1.680000,-1.680000
69.932511,-0.139568,0.093208,1.364448,3.780000,0.280000,0.980000
69.940598,0.022448,0.145424,1.079456,-3.360000,3.780000,-0.280000
69.948685,-0.003416,-0.050264,1.210728,2.660000,3.360000,-2.100000
69.956773,-0.152744,0.201544,1.112640,-1.260000,-5.040000,1.400000
69.964860,0.169824,-0.086376,0.969168,1.260000,5.180000,-1.680000
69.972947,-0.254736,0.238632,1.084824,-0.840000,-0.980000,0.700000
69.981035,0.205936,-0.105408,0.894992,2.100000,3.640000,-1.820000
69.989122,-0.142984,0.133712,0.918416,-3.080000,-1.120000,0.000000
69.997209,0.012688,0.080032,0.986248,2.520000,5.320000,0.000000
70.005296,0.085400,-0.009272,0.874496,0.420000,8.400000,-0.140000
70.013384,-0.029280,0.122976,0.943792,1.820000,17.920000,-1.260000
70.021471,0.010736,0.056120,0.943792,0.700000,24.780001,-4.200000
70.029558,0.021472,0.028792,0.837896,1.820000,26.600000,-0.980000
70.037646,-0.065392,0.049776,0.897432,-0.560000,25.059999,-0.140000
70.045733,-0.004880,0.117120,0.941840,3.220000,26.460001,-2.240000
70.053820,-0.022448,-0.018544,0.861320,2.240000,21.000000,-0.420000
70.061907,-0.036600,0.128344,0.913048,0.840000,21.280001,-1.680000
70.069995,-0.020008,0.040504,0.910120,2.800000,22.120001,-1.260000
70.078082,0.054656,0.018056,0.869616,3.220000,19.740000,-0.280000
70.086169,-0.122488,0.104920,0.980392,2.520000,23.240000,-2.380000
70.094257,0.100528,0.030744,0.852048,2.660000,20.160000,-1.260000
70.102344,-0.083936,0.035624,0.911584,1.680000,19.600000,-0.280000
70.110431,-0.033184,0.135176,0.955504,1.960000,23.240000,-3.500000
70.118519,-0.033672,0.005856,0.827648,3.500000,13.300000,-0.140000
70.126606,-0.109800,0.087352,0.874984,-1.960000,4.060000,-1.540000
70.134693,0.038552,0.067832,0.952576,2.240000,1.260000,0.140000
70.142780,0.010248,-0.004392,0.873520,-0.420000,10.220000,-0.840000
70.150868,-0.148840,0.143472,0.957944,1.120000,0.420000,-1.400000
70.158955,0.026352,-0.026840,0.859368,1.400000,-7.700000,-2.100000
70.167042,-0.025376,0.099552,0.917928,2.100000,-10.780000,1.540000
70.175130,0.000000,0.065392,1.025288,1.120000,0.840000,-3.080000
70.183217,-0.021960,0.043432,0.843264,2.520000,3.920000,-0.420000
70.191304,-0.004880,0.034160,0.916464,2.240000,-2.940000,0.980000
70.199391,-0.047336,0.115656,1.014552,1.400000,3.920000,-2.520000
70.207479,0.031232,0.000000,0.890600,2.520000,7.140000,-1.960000
70.215566,-0.063440,0.074664,0.903776,1.680000,0.420000,0.840000
70.223653,-0.056120,0.073688,1.039928,1.680000,3.920000,-2.100000
70.231741,0.091256,0.040992,0.831064,2.660000,3.080000,-0.280000
70.239828,-0.158112,0.046848,0.991128,2.100000,2.800000,-1.400000
70.247915,0.028792,0.119560,0.934520,1.540000,4.200000,-2.100000
70.256003,-0.047336,-0.034160,0.905240,0.980000,-0.140000,0.700000
70.264090,-0.049776,0.130296,0.989176,2.100000,-0.140000,-1.400000
70.272177,0.002928,0.028792,0.943792,0.980000,4.760000,-3.360000
70.280264,-0.024400,0.024888,0.856440,1.120000,0.000000,0.560000
70.288352,-0.087840,0.106872,1.046272,0.420000,0.420000,-2.660000
70.296439,0.064416,0.025864,0.865224,1.400000,2.940000,-1.120000
70.304526,-0.117120,0.031232,0.954528,1.120000,0.000000,-0.280000
70.312614,0.017568,0.132248,0.959896,0.700000,0.560000,-1.540000
70.320701,0.018056,-0.035136,0.899872,1.680000,3.640000,-1.120000
70.328788,-0.020496,0.104432,0.962824,0.140000,5.880000,-1.820000
70.336875,-0.087352,0.068320,1.030656,1.960000,16.520000,-3.220000
70.344963,0.104920,-0.024400,0.872056,3.080000,16.520000,-0.560000
70.353050,-0.174704,0.099064,1.026752,2.940000,19.180000,-0.280000
70.361137,0.094184,0.044896,0.954040,7.980000,18.900000,-2.800000
70.369225,-0.071248,-0.008784,0.983320,7.140000,16.240000,-0.700000
70.377312,-0.040504,0.144936,1.036512,6.860000,23.379999,-4.060000
70.385399,-0.041480,-0.068808,1.016992,9.380000,18.059999,0.560000
70.393487,-0.029768,0.173728,1.079456,8.960000,18.059999,-1.680000
70.401574,-0.064416,-0.078568,1.115080,12.180000,18.480000,-1.260000
70.409661,0.012688,0.155184,1.094096,9.520000,13.440001,0.560000
70.417748,-0.039040,0.047824,1.239520,7.980000,21.559999,-4.200000
70.425836,-0.101504,0.047824,1.092144,2.520000,16.100000,0.000000
70.433923,0.016104,0.042456,1.264896,3.780000,17.219999,-2.660000
70.442010,-0.188368,0.207400,1.208288,-2.660000,2.100000,3.080000
70.450098,0.057096,-0.126880,1.293200,1.960000,6.020000,-2.240000
70.458185,-0.257664,0.223016,1.386408,-0.700000,-9.520000,0.700000
70.466272,0.213256,-0.058560,1.195112,-2.800000,-7.840000,-2.100000
70.474359,-0.198616,0.087352,1.545984,-0.840000,0.420000,-0.420000
70.482447,-0.019032,0.155184,1.305888,-0.560000,-5.740000,0.560000
70.490534,0.005368,-0.115168,1.313208,0.980000,2.380000,-1.680000
70.498621,-0.083448,0.153720,1.449360,0.280000,-4.760000,-0.560000
70.506709,0.021472,0.102480,1.343952,-3.220000,5.320000,-1.960000
70.514796,-0.110776,0.012688,1.345904,0.420000,0.700000,-0.420000
70.522883,-0.072712,0.094672,1.447408,-0.980000,-2.800000,-0.420000
70.530971,0.007808,-0.000976,1.329312,-0.700000,5.320000,-1.820000
70.539058,-0.073200,0.117120,1.397632,0.000000,-0.700000,-1.260000
70.547145,-0.037576,0.089792,1.448384,-1.960000,0.700000,-1.960000
70.555232,-0.065392,-0.020984,1.280024,0.980000,2.660000,-1.120000
70.563320,-0.067832,0.109312,1.380064,-1.120000,-1.400000,0.700000
70.571407,0.006344,0.009760,1.349808,1.540000,1.400000,-0.840000
70.579494,-0.028304,0.127856,1.257088,1.960000,3.780000,-2.380000
70.587582,-0.142008,0.030256,1.241960,-1.680000,-2.520000,-0.700000
70.595669,0.035136,-0.004392,1.237568,4.900000,4.760000,-1.400000
70.603756,-0.124440,0.201544,1.192184,-2.660000,0.700000,-0.980000
70.611843,0.011224,-0.112728,1.164368,3.220000,-3.360000,-0.140000
70.619931,-0.101992,0.198616,1.251232,0.980000,3.780000,-0.840000
70.628018,0.054656,-0.046360,1.088240,2.520000,3.220000,-1.960000
70.636105,-0.208864,0.163968,1.239032,-0.560000,-3.360000,0.560000
70.644193,0.128344,-0.096624,1.090192,0.560000,2.100000,0.000000
70.652280,-0.170312,0.289872,1.328336,0.840000,2.520000,-3.640000
70.660367,0.021472,-0.222528,0.963800,-0.700000,1.540000,-0.280000
70.668455,-0.161528,0.334280,1.347856,1.120000,0.000000,-1.960000
70.676542,0.073688,-0.174704,0.977952,-1.680000,-7.280000,-1.400000
70.684629,-0.277184,0.188856,1.264408,0.420000,-14.700000,-1.120000
70.692716,0.125416,-0.033672,1.054080,1.540000,-25.760000,0.700000
70.700804,-0.155184,0.169336,1.249768,-0.140000,-11.760000,-1.960000
70.708891,0.029768,-0.097112,1.087752,1.820000,-24.360001,0.420000
70.716978,-0.085400,0.234728,1.241472,0.000000,-7.000000,-3.920000
70.725066,-0.089792,-0.116144,1.031144,-2.100000,-27.020000,0.000000
70.733153,0.020496,0.176656,1.296616,5.040000,-14.700000,-0.560000
70.741240,-0.083448,0.023912,1.017968,-3.780000,-17.080000,-1.400000
70.749327,-0.076128,0.037088,1.287832,3.640000,-11.900000,-1.680000
70.757415,-0.040016,0.111264,0.987224,-3.500000,-19.320000,0.420000
70.765502,-0.066856,0.010736,1.311256,3.500000,-16.799999,-2.380000
70.773589,-0.063928,0.082960,1.022848,-3.640000,-14.700000,0.980000
70.781677,0.025376,0.058072,1.281976,2.520000,-14.000000,-4.340000
70.789764,-0.177632,0.053680,1.038464,-4.340000,-11.060000,2.380000
70.797851,0.042944,0.065392,1.247816,2.940000,-6.860000,-4.340000
70.805938,-0.146400,0.123464,1.072136,-1.820000,-16.799999,1.260000
70.814026,0.020984,-0.065880,1.240008,0.280000,-2.520000,-4.620000
70.822113,-0.163480,0.207400,1.057496,-1.540000,-15.260000,0.840000
70.830200,0.033184,-0.098088,1.159976,-0.700000,-6.020000,-2.800000
70.838288,-0.170312,0.218624,1.180960,2.240000,-14.280000,1.120000
70.846375,0.177144,-0.111264,1.081896,-2.660000,4.060000,-6.160000
70.854462,-0.379664,0.181048,1.230736,0.140000,-13.860000,1.820000
70.862550,0.239608,-0.014640,1.014064,0.140000,-6.020000,-2.800000
70.870637,-0.293288,0.101504,1.333704,1.820000,-5.040000,-0.280000
70.878724,0.203984,0.045384,0.946720,-0.140000,7.980000,-3.640000
70.886811,-0.362096,0.046848,1.338096,-0.420000,-4.760000,0.840000
70.894899,0.240096,0.057584,0.975512,4.200000,1.400000,-1.120000
70.902986,-0.312808,0.123464,1.298568,-1.820000,4.760000,-2.240000
70.911073,0.132736,-0.074176,0.972096,5.460000,0.700000,0.280000
70.919161,-0.192760,0.263520,1.277096,-4.060000,3.220000,-3.500000
70.927248,-0.029280,-0.199104,1.002352,4.620000,-3.640000,2.660000
70.935335,-0.006832,0.347456,1.242448,0.420000,5.460000,-5.040000
70.943422,-0.162016,-0.232776,0.894016,0.980000,1.260000,1.400000
70.951510,-0.036112,0.335744,1.227320,2.240000,-3.220000,-2.100000
70.959597,-0.046848,-0.192272,0.976976,-0.280000,3.080000,1.400000
70.967684,-0.082960,0.258152,1.159976,2.240000,-1.400000,-1.260000
70.975772,-0.001464,-0.108824,0.957944,-0.700000,0.980000,-2.100000
70.983859,-0.200080,0.249856,1.158512,1.400000,3.220000,-1.680000
70.991946,0.072712,-0.133712,0.937936,1.820000,-3.920000,0.000000
71.000034,-0.161528,0.221552,1.193160,-0.560000,2.520000,-0.980000
71.008121,0.045872,-0.093208,0.837896,1.400000,0.420000,-2.520000
71.016208,-0.232288,0.213256,1.171688,1.680000,-0.980000,0.560000
71.024295,0.101504,-0.098576,0.815448,0.000000,2.520000,-0.980000
71.032383,-0.158112,0.170800,1.094096,1.120000,-2.100000,0.980000
71.040470,-0.053680,-0.009272,0.924760,0.420000,5.180000,-3.080000
71.048557,-0.053192,0.068808,0.929152,1.260000,-12.740000,1.540000
71.056645,-0.086864,0.102968,1.056032,-1.820000,-1.540000,-2.660000
71.064732,-0.037088,-0.036600,0.885232,1.680000,-14.420000,0.280000
71.072819,-0.117120,0.176656,1.082872,-0.980000,-2.520000,-0.560000
71.080906,0.021472,-0.057584,0.904264,1.680000,-13.440001,-1.260000
71.088994,-0.126880,0.124440,1.016992,-1.400000,-11.340000,1.120000
71.097081,0.003416,0.045872,0.927200,0.980000,-7.980000,-3.220000
71.105168,-0.049288,0.016104,0.916464,1.680000,-4.620000,-0.560000
71.113256,-0.162016,0.089792,0.899384,-0.840000,-10.080000,0.560000
71.121343,0.035136,0.036112,0.955992,2.240000,-11.480000,-1.120000
71.129430,-0.015128,0.043432,0.783728,-1.260000,0.840000,-0.280000
71.137518,-0.100040,0.076616,0.867176,0.560000,-3.500000,-1.260000
71.145605,-0.036600,0.068320,0.882304,0.980000,3.780000,-2.240000
71.153692,0.005368,-0.001952,0.704672,1.120000,-2.520000,0.420000
71.161779,-0.073688,0.073200,0.866200,0.840000,1.260000,-1.260000
71.169867,-0.110288,0.075152,0.811544,-0.560000,7.420000,-2.380000
71.177954,0.022448,0.011224,0.742248,1.540000,-1.820000,0.000000
71.186041,-0.101504,0.050752,0.737856,0.000000,0.140000,0.980000
71.194129,-0.077592,0.080520,0.827160,1.120000,1.120000,-2.240000
71.202216,-0.057584,0.050752,0.781776,-1.120000,6.020000,-1.820000
71.210303,0.016104,0.017568,0.653920,1.120000,-0.140000,0.140000
71.218390,-0.057584,0.037576,0.734440,0.140000,-0.280000,0.280000
71.226478,-0.074664,0.072224,0.774944,-0.140000,1.820000,-2.940000
71.234565,-0.057584,0.063928,0.763720,0.140000,3.080000,-2.100000
71.242652,-0.019520,0.014152,0.676368,1.540000,-1.260000,0.140000
71.250740,-0.049288,0.038064,0.737856,0.560000,2.240000,-0.140000
71.258827,-0.074176,0.054656,0.712968,0.980000,-0.140000,-1.540000
71.266914,-0.054656,0.081496,0.763720,-0.280000,1.820000,-1.820000
71.275002,-0.044896,0.040504,0.715408,0.420000,1.960000,-1.680000
71.283089,-0.013176,0.004880,0.685640,1.400000,-0.280000,-0.980000
71.291176,-0.057584,0.042944,0.703696,-0.280000,0.280000,-1.680000
71.299263,-0.109312,0.083936,0.733952,-0.840000,1.260000,-1.120000
71.307351,-0.050264,0.059536,0.729072,0.420000,-0.840000,-0.980000
71.315438,0.004392,0.037576,0.646112,0.840000,1.120000,-1.960000
71.323525,-0.063928,0.001952,0.647088,0.560000,2.380000,-1.120000
71.331613,-0.043920,0.024400,0.669048,1.260000,-1.960000,0.000000
71.339700,-0.051728,0.073200,0.639768,-0.280000,1.680000,-1.120000
71.347787,-0.100528,0.069784,0.668560,1.400000,0.560000,-1.120000
71.355874,-0.008784,0.051240,0.700280,1.260000,-0.560000,-2.800000
71.363962,-0.049776,0.025376,0.662704,0.840000,3.780000,-2.100000
71.372049,-0.060512,-0.002440,0.630008,1.680000,-1.960000,0.280000
71.380136,-0.016104,0.058560,0.654408,1.540000,-0.560000,-0.420000
71.388224,-0.174216,0.063928,0.662704,0.560000,-1.120000,-1.260000
71.396311,-0.041480,0.077592,0.686128,2.380000,-11.480000,-1.260000
71.404398,-0.050752,0.008784,0.699304,-0.420000,-7.980000,-1.260000
71.412486,-0.008296,0.026840,0.610000,1.540000,-10.780000,-0.560000
71.420573,-0.082472,0.030256,0.650504,0.560000,-12.880000,0.560000
71.428660,-0.078080,0.074664,0.705648,1.120000,-14.000000,-0.840000
71.436747,-0.072224,0.068320,0.678320,0.560000,-9.240000,-1.540000
71.444835,-0.015616,0.025376,0.747128,2.380000,-12.040000,-1.400000
71.452922,0.004880,0.037576,0.626104,0.840000,-7.140000,-0.840000
71.461009,-0.106384,0.010248,0.659288,0.980000,-13.160000,0.420000
71.469097,-0.072712,0.071736,0.755424,2.100000,-12.740000,0.000000
71.477184,-0.010248,0.074664,0.726632,2.240000,-5.180000,-2.520000
71.485271,-0.045872,0.055632,0.762744,0.420000,-2.100000,-2.520000
71.493359,-0.038552,0.000488,0.742736,0.000000,-3.500000,-0.980000
71.501446,-0.045872,0.046848,0.742736,0.700000,-0.700000,-0.700000
71.509533,-0.096624,0.082472,0.855952,1.540000,4.200000,-1.680000
71.517620,-0.063928,0.043920,0.819840,-0.140000,3.080000,-2.380000
71.525708,0.017080,0.025376,0.761768,1.400000,0.980000,-0.700000
71.533795,-0.119560,0.048312,0.879376,0.840000,2.100000,-0.560000
71.541882,-0.067344,0.094184,0.947696,-0.700000,-0.140000,-2.240000
71.549970,-0.025376,0.010736,0.820816,1.540000,-0.280000,0.140000
71.558057,-0.144936,0.068808,0.996496,0.280000,-0.980000,-1.400000
71.566144,-0.024888,0.109312,0.942816,0.280000,1.820000,-1.680000
71.574232,-0.051728,-0.051240,0.975024,0.700000,-1.400000,-1.680000
71.582319,-0.126392,0.190320,1.077016,0.840000,2.940000,-2.520000
71.590406,-0.046848,-0.084424,0.989176,1.680000,-2.100000,-0.840000
71.598493,-0.115168,0.215696,1.118496,-0.280000,0.140000,-0.700000
71.606581,0.007320,-0.097112,1.058960,2.380000,1.680000,-1.960000
71.614668,-0.193736,0.208376,1.165832,0.140000,-1.960000,-1.260000
71.622755,0.051240,-0.071248,1.048224,0.980000,3.360000,-2.800000
71.630843,-0.222040,0.162504,1.232200,1.260000,-3.080000,-0.560000
71.638930,0.064904,0.007808,1.035048,3.080000,1.260000,-2.100000
71.647017,-0.232288,0.144936,1.220000,-1.260000,1.960000,-2.660000
71.655104,-0.039040,-0.050752,1.071160,1.680000,0.980000,0.140000
71.663192,-0.086864,0.223016,1.198040,-1.260000,-3.500000,-1.260000
71.671279,-0.038552,-0.145912,1.087264,2.240000,3.920000,-2.240000
71.679366,-0.207400,0.328424,1.211704,-0.140000,-2.940000,-0.840000
71.687454,0.074664,-0.210816,1.005280,-0.560000,2.520000,-1.680000
71.695541,-0.303048,0.302072,1.391776,1.400000,-3.500000,0.840000
71.703628,0.173728,-0.124440,0.846680,-0.280000,2.940000,-2.660000
71.711716,-0.348920,0.204960,1.374696,1.540000,-0.700000,-0.420000
71.719803,0.141032,-0.037088,0.781288,0.280000,0.700000,-0.420000
71.727890,-0.247904,0.147864,1.260992,-0.700000,1.260000,-1.120000
71.735977,0.076616,-0.054656,0.931104,2.800000,1.400000,-0.700000
71.744065,-0.211792,0.197640,1.083848,-1.120000,-0.140000,-2.100000
71.752152,0.006832,-0.051240,0.942816,1.120000,3.500000,-1.120000
71.760239,-0.113704,0.143960,0.960384,1.400000,-0.280000,0.140000
71.768327,-0.061976,-0.012200,1.115568,-0.420000,3.080000,-1.680000
71.776414,-0.085400,0.078080,0.820328,0.560000,-0.840000,0.140000
71.784501,-0.154696,0.107360,1.176568,1.820000,1.540000,-1.400000
71.792589,0.087840,-0.026840,0.786656,-0.700000,1.960000,-0.140000
71.800676,-0.239120,0.110288,1.105320,0.560000,-2.660000,0.560000
71.808763,0.033672,0.070760,0.957944,0.980000,4.200000,-2.100000
71.816850,-0.144936,0.015616,0.946232,1.680000,-0.980000,0.980000
71.824938,-0.038552,0.147376,1.117032,-0.420000,0.700000,-2.100000
71.833025,-0.081008,-0.054656,0.974536,1.820000,0.840000,-0.840000
71.841112,-0.142984,0.197640,1.167296,0.700000,-1.540000,-0.560000
71.849200,0.006832,-0.096624,1.031632,0.280000,-0.280000,-0.280000
71.857287,-0.255712,0.231312,1.292224,4.060000,0.980000,0.420000
71.865374,0.150304,-0.061976,1.002352,1.260000,1.120000,-0.560000
71.873462,-0.310856,0.144448,1.507432,0.840000,-1.260000,-2.100000
71.881549,0.112728,0.031232,1.014552,-0.280000,1.820000,-0.420000
71.889636,-0.236680,0.110776,1.334680,-0.560000,1.540000,-2.520000
71.897723,-0.078568,0.030744,1.331264,3.360000,-7.560000,1.680000
71.905811,-0.059048,0.126392,1.231224,0.140000,12.460000,-4.340000
71.913898,-0.181048,0.068320,1.272216,-1.260000,-9.660000,-0.140000
71.921985,0.058072,-0.060024,1.292224,1.820000,7.000000,-1.680000
71.930073,-0.264008,0.289872,1.267824,-0.840000,-3.220000,1.120000
71.938160,0.085888,-0.102968,1.154608,-0.280000,2.520000,-0.700000
71.946247,-0.220088,0.146400,1.314672,2.380000,2.520000,-2.800000
71.954335,-0.054168,0.091744,1.037000,-5.740000,-4.340000,0.560000
71.962422,0.005368,-0.052216,1.257576,4.200000,9.800000,-3.920000
71.970509,-0.285480,0.212768,1.196576,-0.700000,-0.840000,0.560000
71.978596,0.124440,-0.076128,0.978928,1.400000,-0.420000,-0.560000
71.986684,-0.272792,0.183000,1.300520,-3.360000,2.100000,-0.280000
71.994771,0.106872,-0.025864,0.956480,3.640000,1.540000,-1.400000
72.002858,-0.221552,0.147864,1.207800,-2.520000,0.560000,-1.400000
72.010946,-0.008784,-0.029768,1.042368,2.100000,3.780000,-1.260000
72.019033,-0.130296,0.178120,1.133136,-1.540000,-3.220000,0.280000
72.027120,-0.031232,-0.080032,1.172176,3.080000,4.480000,-1.260000
72.035207,-0.141520,0.269864,1.145336,-1.820000,0.980000,-0.560000
72.043295,-0.013664,-0.186904,1.184376,0.560000,2.660000,-2.100000
72.051382,-0.205936,0.294752,1.311256,0.840000,-1.960000,1.400000
72.059469,0.077104,-0.089792,1.159000,-1.960000,4.200000,-2.660000
72.067557,-0.286944,0.122976,1.451800,2.660000,-3.080000,0.280000
72.075644,0.103944,0.168848,1.147776,-3.640000,3.220000,-2.100000
72.083731,-0.161040,-0.087840,1.361032,1.400000,-2.520000,-2.660000
72.091819,-0.157624,0.166896,1.329800,-0.420000,1.260000,-0.560000
72.099906,-0.019520,0.092720,1.266848,-0.980000,2.660000,-1.960000
72.107993,-0.137616,-0.023424,1.332240,1.820000,-1.960000,-0.140000
72.116080,-0.101016,0.146400,1.363472,0.140000,2.380000,-0.420000
72.124168,-0.062464,0.068320,1.292712,0.280000,0.840000,-1.120000
72.132255,-0.118096,0.039528,1.220488,-0.420000,3.500000,-1.680000
72.140342,-0.069296,0.057096,1.256112,1.820000,0.560000,-1.820000
72.148430,-0.067832,0.108824,1.142896,1.680000,0.700000,0.000000
72.156517,-0.120048,0.062952,1.172176,-2.380000,0.560000,-0.140000
72.164604,0.030744,0.015616,1.098976,3.500000,4.760000,-2.240000
72.172692,-0.262056,0.159576,1.054568,-1.540000,-2.520000,0.840000
72.180779,0.154696,-0.052216,0.939400,1.820000,5.460000,-2.240000
72.188866,-0.303536,0.176656,1.035536,-0.840000,-0.980000,0.980000
72.196953,0.161040,-0.068808,0.865224,3.640000,3.220000,-2.520000
72.205041,-0.231800,0.151768,0.920368,-1.260000,-1.260000,0.700000
72.213128,-0.024888,0.064904,0.883280,1.680000,5.460000,-3.500000
72.221215,-0.017568,-0.012200,0.795440,-0.420000,-0.840000,0.000000
72.229303,-0.090280,0.112728,0.884256,1.540000,1.680000,-0.560000
72.237390,-0.065392,0.061000,0.905728,1.540000,1.540000,-2.380000
72.245477,-0.013664,-0.000488,0.805200,-0.840000,-0.420000,0.560000
72.253565,-0.121512,0.128832,0.931592,1.400000,1.680000,-0.140000
72.261652,-0.025864,0.012688,0.979416,0.840000,2.520000,-1.540000
72.269739,-0.057096,0.050752,0.922808,0.700000,-2.380000,0.280000
72.277826,-0.160552,0.101992,1.158512,1.820000,0.840000,-2.660000
72.285914,0.080520,0.002440,0.866688,0.420000,-0.280000,-0.700000
72.294001,-0.255224,0.134688,1.270264,1.400000,0.560000,-0.700000
72.302088,0.154208,0.001952,0.884744,0.980000,3.360000,-2.240000
72.310176,-0.332816,0.109800,1.271728,0.560000,-1.540000,-0.700000
72.318263,0.155184,0.040504,0.889624,0.700000,1.400000,-0.140000
72.326350,-0.302560,0.090768,1.259040,0.280000,-1.260000,0.560000
72.334438,0.179584,0.052704,0.942816,1.680000,3.080000,-1.400000
72.342525,-0.297680,0.084912,1.240008,-0.560000,-1.540000,-2.940000
72.350612,0.112240,0.037576,0.928176,2.240000,3.220000,0.000000
72.358699,-0.250344,0.106872,1.203408,-1.540000,-2.800000,-0.980000
72.366787,0.119072,0.001464,0.943792,1.680000,6.300000,-1.120000
72.374874,-0.271816,0.105408,1.081408,-2.100000,-3.220000,0.000000
72.382961,0.117608,0.031232,0.913536,3.500000,5.040000,-1.680000
72.391049,-0.183976,0.061976,0.933544,0.420000,-1.540000,0.280000
72.399136,-0.043920,0.103456,0.939400,0.000000,3.220000,-1.820000
72.407223,-0.017080,-0.011224,0.861320,2.800000,0.000000,0.000000
72.415311,-0.118584,0.079056,0.871568,-0.700000,0.980000,-0.700000
72.423398,-0.021472,0.094184,0.862784,0.840000,2.520000,-2.240000
72.431485,-0.065880,-0.004880,0.851560,1.120000,0.980000,0.280000
72.439572,-0.098576,0.081984,0.886696,0.280000,-0.420000,-0.700000
72.447660,-0.018056,0.097112,1.004792,2.520000,2.940000,-2.100000
72.455747,-0.055632,-0.036112,0.915976,0.280000,1.120000,-0.700000
72.463834,-0.117608,0.181048,1.155096,0.700000,1.820000,-1.680000
72.471922,-0.002928,-0.079056,1.021384,-0.980000,0.000000,-1.260000
72.480009,-0.191784,0.220576,1.323944,1.260000,-0.840000,-1.260000
72.488096,0.043432,-0.064416,1.077016,-2.660000,-0.280000,-1.820000
72.496184,-0.194712,0.089304,1.441064,2.800000,0.000000,-1.260000
72.504271,-0.039040,0.198616,1.246352,-3.780000,-3.780000,-1.260000
72.512358,-0.055632,-0.123952,1.310280,1.540000,3.080000,-2.660000
72.520445,-0.174704,0.189832,1.491328,1.820000,-1.540000,0.140000
72.528533,-0.046360,0.131272,1.315160,-1.400000,1.680000,-1.400000
72.536620,-0.083448,-0.052216,1.313208,1.540000,0.420000,0.840000
72.544707,-0.079056,0.106384,1.432768,-0.840000,2.520000,-0.700000
72.552795,-0.082960,0.119560,1.410808,0.560000,-1.540000,-2.100000
72.560882,-0.102480,0.029280,1.300520,-0.280000,0.980000,-1.680000
72.568969,-0.089304,0.078568,1.394216,0.140000,-2.100000,-0.420000
72.577057,-0.077104,0.097600,1.454728,0.140000,4.200000,-0.140000
72.585144,-0.098576,0.048800,1.312720,3.360000,-0.560000,-0.840000
72.593231,-0.082960,0.113704,1.251720,-1.820000,0.980000,-0.140000
72.601318,-0.053192,0.011224,1.329312,0.560000,-0.140000,-1.820000
72.609406,-0.088816,0.075152,1.260016,2.800000,3.080000,0.000000
72.617493,-0.116632,0.144448,1.202432,-2.380000,-1.260000,0.280000
72.625580,0.035136,-0.076616,1.216584,1.260000,4.480000,-0.700000
72.633668,-0.169336,0.238632,1.189256,0.560000,1.120000,-1.820000
72.641755,-0.019520,-0.054656,1.128744,-1.260000,-1.260000,-1.960000
72.649842,-0.101992,0.084424,1.170224,3.080000,4.200000,-0.840000
72.657930,-0.112728,0.130296,1.070184,-2.100000,-4.060000,1.400000
72.666017,0.044896,-0.038064,1.085312,5.600000,8.540000,-2.380000
72.674104,-0.227896,0.182024,0.975512,-1.960000,-2.100000,0.140000
72.682191,0.119560,-0.050752,1.004304,3.500000,1.680000,-1.540000
72.690279,-0.199592,0.132736,0.882792,0.560000,0.000000,0.000000
72.698366,0.014640,0.039040,0.925248,0.420000,4.060000,-2.380000
72.706453,-0.087352,0.017568,0.776408,0.280000,1.260000,0.420000
72.714541,-0.046360,0.098576,0.821792,2.660000,1.260000,-0.420000
72.722628,-0.085888,0.073200,0.843264,0.700000,0.840000,-1.680000
72.730715,0.006832,0.001464,0.738832,1.820000,0.840000,-1.120000
72.738803,-0.060024,0.030256,0.729560,-0.420000,3.360000,0.280000
72.746890,-0.116632,0.131272,0.809104,0.840000,0.000000,-0.840000
72.754977,-0.014640,0.027816,0.774944,2.380000,2.520000,-1.820000
72.763064,-0.020984,-0.022448,0.673928,-0.840000,-1.260000,1.540000
72.771152,-0.061976,0.155672,0.856928,1.820000,-1.260000,-0.140000
72.779239,-0.072712,0.031720,0.939400,1.120000,3.780000,-2.940000
72.787326,-0.013176,-0.014640,0.858880,0.280000,-2.100000,-0.980000
72.795414,-0.179096,0.196176,1.097024,1.260000,1.260000,-0.420000
72.803501,0.067344,-0.089792,0.960872,0.700000,0.560000,-2.100000
72.811588,-0.174216,0.236680,1.295152,0.420000,-1.540000,-0.840000
72.819676,0.033184,-0.084424,1.077992,-0.700000,3.080000,-4.340000
72.827763,-0.284992,0.174216,1.456192,2.100000,-4.060000,1.260000
72.835850,0.142008,0.071248,1.153632,-0.560000,1.960000,-0.980000
72.843937,-0.222528,-0.025864,1.418616,-0.140000,-2.520000,-0.980000
72.852025,-0.034160,0.160552,1.423984,0.840000,0.000000,-1.960000
72.860112,-0.068808,0.068808,1.248304,-1.260000,2.240000,-3.640000
72.868199,-0.115656,0.009272,1.268312,0.560000,-0.980000,-0.560000
72.876287,-0.087352,0.107360,1.324920,1.120000,0.420000,-1.400000
72.884374,0.004880,0.077592,1.057496,0.420000,5.320000,-1.820000
72.892461,-0.200568,0.053680,1.120448,0.140000,-2.100000,-0.280000
72.900549,0.150792,0.061976,0.860344,1.820000,5.740000,-1.680000
72.908636,-0.326472,0.081984,1.001864,-0.420000,-0.840000,-0.420000
72.916723,0.124440,0.019520,0.705160,2.660000,3.780000,-1.400000
72.924810,-0.113704,0.084424,0.757864,2.100000,0.420000,0.560000
72.932898,-0.055632,0.036600,0.672464,-0.420000,0.980000,-0.700000
72.940985,-0.062464,0.054168,0.738344,0.000000,2.940000,-1.820000
72.949072,0.011224,0.037088,0.520208,2.240000,-0.700000,0.000000
72.957160,-0.024888,0.046848,0.654408,1.820000,4.060000,-1.260000
72.965247,-0.095648,0.050264,0.572424,0.560000,0.140000,-0.280000
72.973334,-0.058560,0.050752,0.716872,0.980000,-0.700000,-0.840000
72.981422,-0.052704,0.065880,0.713944,-0.420000,3.360000,-2.800000
72.989509,-0.020496,0.032696,0.715896,0.420000,1.820000,-1.820000
72.997596,-0.058072,0.016592,0.792512,1.260000,-2.520000,0.560000
73.005683,-0.143960,0.103456,0.988200,0.280000,-2.100000,-0.980000
73.013771,0.057584,0.050752,0.947208,2.380000,2.380000,-1.820000
73.021858,-0.155672,0.018056,1.104344,0.980000,-2.240000,0.420000
73.029945,-0.020496,0.109312,1.147288,2.240000,1.400000,-1.400000
73.038033,-0.116144,0.052216,1.189256,-1.680000,-4.340000,0.140000
73.046120,0.001952,0.030256,1.301984,4.900000,1.960000,-3.780000
73.054207,-0.215696,0.208864,1.203408,-5.320000,0.420000,-0.700000
73.062295,0.079544,-0.146400,1.278560,3.220000,0.840000,-2.240000
73.070382,-0.211304,0.226432,1.384456,0.420000,0.140000,-0.980000
73.078469,-0.041968,0.076616,1.203408,-3.360000,-1.540000,-0.280000
73.086556,-0.048800,-0.076128,1.359568,2.380000,3.780000,-0.980000
73.094644,-0.168848,0.219112,1.313696,0.280000,-2.660000,0.700000
73.102731,0.015616,0.037576,1.172664,-1.400000,-0.980000,-0.840000
73.110818,-0.087352,-0.032208,1.280512,2.100000,7.420000,-1.820000
73.118906,-0.165920,0.226920,1.153632,-0.840000,-4.760000,-0.280000
73.126993,0.092232,-0.112728,0.951112,0.700000,3.920000,-0.560000
73.135080,-0.229360,0.201544,1.109712,1.400000,-0.840000,0.560000
73.143168,0.097600,-0.024888,0.759816,0.000000,5.040000,-1.680000
73.151255,-0.120048,0.058560,0.757864,0.980000,0.000000,1.400000
73.159342,-0.030744,0.088816,0.714432,0.280000,0.000000,-1.120000
73.167429,-0.057096,0.050264,0.653432,0.420000,5.460000,-1.540000
73.175517,-0.004392,0.017568,0.631960,2.520000,-0.420000,-0.420000
73.183604,0.001464,0.044408,0.522648,0.140000,4.200000,-0.980000
73.191691,-0.059536,0.026352,0.503128,0.700000,0.700000,0.000000
73.199779,-0.012688,0.050752,0.549000,1.400000,1.260000,0.000000
73.207866,-0.034648,0.042944,0.481656,0.840000,2.520000,-0.700000
73.215953,-0.027816,0.059536,0.503616,1.260000,1.120000,-1.120000
73.224041,-0.065392,0.039040,0.524600,0.560000,2.660000,0.420000
73.232128,-0.014152,0.035136,0.582672,1.540000,-2.520000,-0.280000
73.240215,-0.041968,0.060024,0.615368,-0.140000,1.960000,-2.240000
73.248302,-0.095648,0.032696,0.646112,0.280000,0.000000,-1.960000
73.256390,0.004880,0.041968,0.673928,0.420000,-1.960000,-1.680000
73.264477,-0.008784,0.038064,0.669048,0.140000,2.380000,-1.960000
73.272564,-0.017568,0.033184,0.682224,2.240000,0.560000,-0.700000
73.280652,-0.073688,0.041968,0.797392,1.120000,1.120000,-0.980000
73.288739,-0.118096,0.082472,0.832040,-0.140000,0.420000,-1.960000
73.296826,0.027328,0.070272,0.866688,1.960000,-2.380000,-1.680000
73.304914,-0.042456,-0.009272,0.876448,-0.140000,2.100000,-1.540000
73.313001,-0.147376,0.141520,0.988200,-0.560000,2.800000,-2.380000
73.321088,0.011224,-0.014152,1.030168,1.540000,0.280000,-2.380000
73.329175,-0.078080,0.092720,1.002352,-2.660000,-1.400000,-1.120000
73.337263,-0.104432,0.052216,1.134600,4.200000,1.680000,-1.120000
73.345350,0.017568,0.064904,1.007720,-0.700000,-1.540000,-1.680000
73.353437,-0.163968,0.062952,1.184864,2.520000,3.220000,-1.960000
73.361525,0.004392,0.044408,0.921344,-2.240000,-2.940000,0.420000
73.369612,-0.131272,0.084424,1.301496,4.060000,0.140000,-1.260000
73.377699,0.036112,0.043432,0.870104,-0.840000,1.680000,-1.400000
73.385787,-0.217160,0.093696,1.253184,2.520000,0.980000,-2.660000
73.393874,0.075152,0.018544,0.787144,1.120000,-2.800000,1.120000
73.401961,-0.183000,0.100040,1.239520,1.260000,0.560000,-2.520000
73.410048,0.075152,0.015128,0.726144,1.120000,1.960000,-1.960000
73.418136,-0.210328,0.117120,1.027240,0.980000,0.000000,-1.260000
73.426223,0.007320,0.025864,0.806664,0.140000,0.000000,-1.260000
73.434310,0.008784,0.015128,0.748104,0.420000,1.960000,0.280000
73.442398,-0.155672,0.112240,0.873032,0.280000,0.140000,0.420000
73.450485,-0.026352,0.041968,0.817888,0.840000,1.260000,-3.080000
73.458572,0.000976,0.011712,0.695888,0.280000,1.540000,-0.560000
73.466660,-0.099064,0.049288,0.702232,0.560000,1.820000,-0.140000
73.474747,-0.075640,0.079544,0.707600,0.140000,-0.140000,-0.840000
73.482834,-0.026352,0.053680,0.749568,0.700000,3.080000,-2.240000
73.490921,-0.052216,0.024888,0.676368,0.980000,0.560000,-0.560000
73.499009,0.014640,0.034160,0.618296,1.120000,-0.700000,-0.420000
73.507096,-0.122488,0.048800,0.717848,0.280000,2.380000,-0.700000
73.515183,-0.071736,0.069784,0.741760,2.240000,0.140000,-1.540000
73.523271,-0.011712,0.059048,0.763232,1.120000,2.660000,-1.680000
73.531358,-0.035624,0.005368,0.734440,0.840000,-0.700000,-0.420000
73.539445,-0.074176,0.052704,0.822280,1.260000,-1.680000,-0.140000
73.547533,-0.087352,0.109312,0.896456,1.820000,1.400000,-2.520000
73.555620,-0.020496,0.006832,0.873032,0.560000,2.660000,-2.100000
73.563707,-0.094672,0.060024,0.880840,1.120000,-1.680000,0.980000
73.571794,-0.091744,0.073200,1.110200,-0.420000,1.260000,-1.120000
73.579882,0.014152,0.033672,0.953064,1.260000,-0.840000,-0.980000
73.587969,-0.185928,0.094672,1.189744,0.420000,0.700000,-2.940000
73.596056,0.034160,0.037088,1.031632,-0.280000,-0.420000,-1.120000
73.604144,-0.236680,0.072712,1.332240,-0.700000,-1.120000,-1.540000
73.612231,0.090280,0.034160,1.145824,3.920000,-1.260000,0.420000
73.620318,-0.197152,0.163968,1.273680,-3.500000,3.640000,-3.500000
73.628406,-0.043920,-0.090280,1.293200,2.380000,-4.480000,0.000000
73.636493,-0.039528,0.206424,1.283440,-0.280000,4.760000,-1.400000
73.644580,-0.183976,0.049776,1.285392,-3.780000,-4.900000,0.700000
73.652667,-0.018544,-0.025376,1.385920,6.580000,6.860000,-1.680000
73.660755,-0.148840,0.260592,1.258552,-1.540000,-1.680000,-1.120000
73.668842,0.007320,-0.090280,1.282464,-2.240000,-0.980000,-2.800000
73.676929,-0.185928,0.060512,1.414224,2.520000,3.080000,-0.840000
73.685017,-0.025376,0.236192,1.255624,-2.100000,-3.780000,-0.280000
73.693104,-0.043920,-0.120536,1.304424,0.140000,5.180000,-1.680000
73.701191,-0.208864,0.118584,1.405928,3.640000,0.140000,0.560000
73.709279,-0.004880,0.213744,1.284904,-4.900000,-3.360000,-0.840000
73.717366,-0.053192,-0.092720,1.257576,-4.760000,5.740000,-1.680000
73.725453,-0.162016,0.119072,1.433256,0.420000,-3.080000,-0.420000
73.733540,-0.017080,0.164456,1.283928,-4.200000,1.960000,-1.260000
73.741628,-0.073688,-0.037576,1.240008,-5.600000,3.360000,-1.120000
73.749715,-0.122488,0.104920,1.444480,-7.980000,-1.680000,-0.560000
73.757802,-0.069784,0.093208,1.367376,-5.320000,2.800000,-1.960000
73.765890,-0.093208,0.047824,1.230248,-1.680000,-0.840000,-0.560000
73.773977,-0.078568,0.076616,1.401536,-8.820000,1.820000,-0.420000
73.782064,-0.090280,0.050752,1.389824,-3.920000,-0.560000,-0.700000
73.790152,-0.088328,0.104920,1.253184,-5.040000,1.540000,-1.820000
73.798239,-0.060024,0.058072,1.368840,-7.700000,1.820000,-2.940000
73.806326,-0.104920,-0.001952,1.463512,-2.240000,2.380000,-0.980000
73.814413,-0.141032,0.122976,1.259528,1.400000,-0.840000,0.140000
73.822501,0.020984,0.063928,1.365912,0.000000,2.100000,-2.240000
73.830588,-0.128832,0.010248,1.390312,2.940000,3.360000,-2.240000
73.838675,-0.156160,0.158600,1.284904,-0.420000,-0.700000,-0.980000
73.846763,-0.012200,0.043432,1.347368,-1.960000,1.260000,0.000000
73.854850,-0.066368,-0.012200,1.431304,3.920000,3.920000,-1.400000
73.862937,-0.178120,0.173728,1.266360,0.000000,-2.240000,-0.280000
73.871025,0.012688,0.062464,1.326384,-1.120000,-1.820000,-1.120000
73.879112,-0.066368,-0.021960,1.398608,2.940000,6.720000,-2.800000
73.887199,-0.202032,0.192760,1.306376,0.700000,-1.260000,-0.840000
73.895286,0.018544,0.027816,1.263920,-1.260000,0.980000,-0.420000
73.903374,-0.096624,-0.019032,1.380552,3.080000,5.040000,-1.680000
73.911461,-0.172264,0.212280,1.320040,0.560000,-3.080000,0.560000
73.919548,0.050264,0.002440,1.253184,0.560000,0.000000,-1.540000
73.927636,-0.115656,0.008296,1.315648,1.960000,4.620000,-1.400000
73.935723,-0.167872,0.217648,1.282952,-0.420000,-3.780000,0.140000
73.943810,0.021472,-0.054656,1.123376,0.560000,5.460000,-0.700000
73.951898,-0.173728,0.110288,1.346880,2.660000,-0.840000,-0.700000
73.959985,-0.031720,0.098088,1.162904,-0.840000,-2.800000,-0.560000
73.968072,-0.002440,-0.001952,1.158512,1.120000,7.700000,-2.940000
73.976159,-0.236680,0.144448,1.178520,0.420000,-4.760000,1.540000
73.984247,0.079056,0.000976,1.053592,2.240000,3.920000,0.980000
73.992334,-0.173728,0.142496,1.164368,-1.680000,0.560000,-1.820000
74.000421,0.035624,-0.029768,1.032120,2.520000,0.420000,-1.400000
74.008509,-0.201544,0.164456,1.128744,-2.100000,-0.700000,-1.120000
74.016596,0.037576,-0.048800,0.960384,2.940000,-1.400000,1.260000
74.024683,-0.164456,0.223504,1.101416,-1.260000,5.880000,-1.820000
74.032771,0.019032,-0.113216,0.904752,2.100000,-0.980000,0.420000
74.040858,-0.128344,0.216184,1.044320,-1.960000,-0.280000,-1.960000
74.048945,0.032696,-0.047336,0.861320,2.240000,3.920000,-1.540000
74.057032,-0.135176,0.073688,0.908656,-1.680000,-1.960000,0.700000
74.065120,-0.075640,0.117608,0.925248,2.240000,6.160000,-2.100000
74.073207,0.027816,-0.015616,0.781288,1.260000,-0.140000,-0.980000
74.081294,-0.109800,0.089792,0.795928,-0.420000,2.240000,-2.100000
74.089382,-0.057096,0.083936,0.822280,2.100000,1.960000,-1.680000
74.097469,-0.046848,0.006344,0.778360,1.400000,2.100000,0.000000
74.105556,-0.050752,0.028792,0.728584,6.300000,1.400000,-0.560000
74.113644,-0.088816,0.071736,0.764208,6.580000,1.820000,-0.700000
74.121731,0.022448,0.081496,0.687104,6.580000,-0.840000,-0.700000
74.129818,-0.024888,0.020496,0.723704,4.340000,2.520000,-0.840000
74.137905,-0.110776,0.020008,0.688568,3.640000,-0.700000,0.000000
74.145993,-0.073688,0.114680,0.796416,5.180000,1.120000,-1.540000
74.154080,-0.026352,0.056608,0.707112,5.600000,2.520000,-1.120000
74.162167,0.007808,-0.005368,0.677832,5.180000,-1.540000,-0.700000
74.170255,-0.072224,0.054656,0.740296,4.060000,0.980000,-0.840000
74.178342,-0.118096,0.101992,0.763232,4.620000,1.680000,-1.120000
74.186429,-0.011224,0.035136,0.761280,5.740000,-1.540000,-1.120000
74.194517,0.001952,0.001464,0.677832,3.920000,2.660000,-0.140000
74.202604,-0.068808,0.079056,0.726632,5.600000,-2.660000,0.700000
74.210691,-0.084912,0.122000,0.873032,1.400000,3.080000,-2.660000
74.218778,-0.054656,0.015616,0.719800,-2.800000,3.500000,-2.940000
74.226866,0.022448,0.008784,0.690032,0.840000,-0.980000,0.140000
74.234953,-0.108336,0.110776,0.869128,1.260000,0.280000,-0.560000
74.243040,-0.032696,0.058072,0.863272,0.000000,1.960000,-3.360000
74.251128,-0.008784,0.008784,0.730536,-0.140000,2.380000,-1.400000
74.259215,-0.132736,0.092232,0.899384,0.140000,-1.400000,0.140000
74.267302,-0.031720,0.054168,0.905240,-0.420000,0.420000,-2.100000
74.275390,0.010736,0.023424,0.791048,0.140000,1.680000,-0.280000
74.283477,-0.179584,0.090768,0.960872,0.840000,-0.140000,-1.120000
74.291564,0.057584,0.038552,0.920856,0.700000,0.140000,-3.080000
74.299651,-0.123464,0.041968,0.850584,-0.560000,1.960000,0.280000
74.307739,-0.106384,0.107360,0.994056,0.420000,-0.420000,-2.380000
74.315826,0.071736,0.009272,0.822280,0.980000,1.960000,-0.140000
74.323913,-0.165432,0.088816,0.949648,0.560000,0.000000,-0.560000
74.332001,0.030744,0.045872,0.940864,1.540000,0.560000,-2.520000
74.340088,-0.091744,0.025864,0.888160,0.700000,0.560000,-0.280000
74.348175,-0.135664,0.118584,0.989176,0.700000,2.100000,-2.940000
74.356263,0.035136,0.000976,0.847168,0.980000,-0.280000,0.140000
74.364350,-0.152256,0.091744,0.955504,0.980000,-0.140000,-0.140000
74.372437,0.035136,0.055632,0.912072,1.820000,1.960000,-2.380000
74.380524,-0.063440,0.011712,0.899872,0.280000,-1.260000,-0.140000
74.388612,-0.181536,0.116144,0.988688,0.140000,3.500000,-1.820000
74.396699,0.065880,-0.017568,0.879864,2.100000,-1.260000,0.140000
74.404786,-0.145912,0.108824,0.894992,-0.280000,-1.120000,0.980000
74.412874,0.025864,0.065880,0.938912,1.120000,2.100000,-2.940000
74.420961,-0.063928,0.017568,0.865224,-0.280000,-1.120000,-0.420000
74.429048,-0.154696,0.100040,0.975024,-0.140000,2.100000,-1.260000
74.437136,0.022936,0.000976,0.932080,1.120000,-0.420000,-0.280000
74.445223,-0.100040,0.078080,0.884256,0.840000,-0.700000,0.700000
74.453310,-0.029280,0.073688,0.995032,-0.140000,2.380000,-2.940000
74.461397,-0.041480,0.015128,0.805688,-0.560000,1.400000,-0.280000
74.469485,-0.126392,0.099064,0.945744,1.400000,-1.680000,0.280000
74.477572,0.006344,0.028304,0.944768,-0.140000,1.260000,-1.260000
74.485659,-0.104432,0.058072,0.873032,2.380000,1.120000,-0.420000
74.493747,-0.065880,0.056608,1.005280,-0.420000,0.980000,-1.960000
74.501834,0.022448,0.030256,0.795928,-0.140000,-0.560000,-0.840000
74.509921,-0.119072,0.088816,0.939400,1.820000,1.400000,-1.260000
74.518009,-0.057584,0.051728,0.949648,-1.260000,2.100000,-2.940000
74.526096,-0.026840,0.014640,0.842776,2.100000,-1.260000,0.000000
74.534183,-0.140056,0.086864,0.998936,-0.280000,1.960000,-1.400000
74.542270,0.034648,0.044896,0.875472,0.420000,0.840000,-1.120000
74.550358,-0.109312,0.031720,0.915976,1.120000,1.540000,-0.560000
74.558445,-0.065880,0.104920,0.964288,0.000000,1.540000,-2.940000
74.566532,0.019032,-0.001464,0.831552,2.240000,-1.400000,0.000000
74.574620,-0.143960,0.069784,1.012600,-0.280000,2.520000,-1.680000
74.582707,-0.026352,0.078080,0.915976,1.680000,1.400000,-1.540000
74.590794,-0.069784,-0.012688,0.917440,1.260000,-0.840000,0.560000
74.598882,-0.089792,0.144448,0.960872,0.140000,2.520000,-1.680000
74.606969,0.013664,-0.026840,0.879376,3.360000,-2.380000,0.560000
74.615056,-0.109800,0.082960,0.949160,-0.420000,-0.560000,-1.400000
74.623144,-0.007320,0.075640,0.908656,1.960000,3.780000,-1.820000
74.631231,-0.114192,-0.011224,0.863272,1.400000,-2.100000,1.400000
74.639318,-0.073688,0.118584,0.934032,-0.140000,0.700000,-1.400000
74.647405,-0.028304,0.035624,0.877424,-0.840000,2.520000,-1.260000
74.655493,-0.078080,0.007808,0.811544,-1.400000,-2.100000,0.140000
74.663580,-0.054168,0.129808,0.934520,-0.700000,2.100000,-1.400000
74.671667,-0.034160,0.004392,0.834968,0.140000,0.980000,-0.560000
74.679755,-0.036600,0.032208,0.822768,-0.560000,-0.420000,-0.420000
74.687842,-0.088816,0.110776,0.915000,-2.240000,2.940000,-1.960000
74.695929,-0.046360,-0.004392,0.832528,0.140000,-0.840000,-1.400000
74.704017,-0.028304,0.039040,0.856928,-0.420000,0.560000,0.280000
74.712104,-0.096136,0.093696,0.902312,-1.260000,0.980000,-1.540000
74.720191,0.000976,0.014640,0.841800,-0.420000,2.660000,-2.100000
74.728278,-0.064416,0.023912,0.829600,0.000000,2.240000,-0.840000
74.736366,-0.127856,0.100040,0.925736,-0.700000,-3.500000,0.000000
74.744453,0.034160,0.015616,0.853512,1.120000,4.900000,-1.400000
74.752540,-0.114680,0.022448,0.859368,1.260000,1.820000,-0.420000
74.760628,-0.107848,0.113216,0.969656,1.260000,-4.620000,-1.400000
74.768715,0.055632,0.019520,0.836432,0.840000,4.480000,-1.540000
74.776802,-0.137128,0.064904,0.898408,-0.700000,1.120000,-0.700000
74.784890,-0.059048,0.087352,1.000888,2.240000,1.540000,-1.260000
74.792977,0.003416,-0.046360,0.865712,2.240000,-0.420000,0.140000
74.801064,-0.136152,0.164944,0.964288,-0.280000,1.120000,-1.400000
74.809151,0.010248,-0.012200,0.920856,2.380000,0.980000,-1.820000
74.817239,-0.089304,0.054656,0.914024,-1.120000,1.680000,-0.700000
74.825326,-0.081496,0.109312,0.997960,2.800000,0.700000,-1.680000
74.833413,0.036600,-0.048800,0.859368,1.120000,-0.560000,-0.420000
74.841501,-0.202032,0.174216,1.006744,0.980000,0.700000,-0.420000
74.849588,0.049288,-0.034160,0.951112,2.100000,1.680000,-2.520000
74.857675,-0.066856,0.080520,0.864248,-1.400000,1.540000,-0.560000
74.865763,-0.108336,0.095160,1.046272,2.940000,0.840000,-1.820000
74.873850,0.026840,-0.027816,0.806176,1.400000,2.520000,0.560000
74.881937,-0.089792,0.138104,1.082384,1.820000,7.700000,0.560000
74.890024,0.030256,0.042944,0.951112,-1.260000,28.559999,-3.920000
74.898112,-0.032696,-0.001952,0.827160,2.240000,26.880001,-1.540000
74.906199,-0.193736,0.121024,0.996496,0.700000,13.020000,-0.280000
74.914286,0.045384,0.007808,0.890112,1.400000,17.219999,-2.380000
74.922374,-0.103944,0.063928,0.979416,1.540000,18.200001,-0.280000
74.930461,-0.112240,0.098576,0.944280,0.280000,21.139999,-2.660000
74.938548,0.026840,-0.014152,0.834480,1.960000,9.660000,0.000000
74.946636,-0.132248,0.132736,1.020408,-0.560000,16.240000,-1.400000
74.954723,0.009272,0.013664,0.894016,0.420000,18.480000,-3.220000
74.962810,-0.103456,0.034160,0.961360,0.700000,13.860000,-0.840000
74.970897,-0.160064,0.105896,0.949648,0.560000,9.100000,-2.520000
74.978985,0.022448,-0.007808,0.895968,2.240000,-0.280000,0.420000
74.987072,-0.196176,0.147864,1.003328,-1.400000,5.180000,-2.240000
74.995159,0.015128,-0.039040,0.886208,3.220000,-5.600000,-1.260000
75.003247,-0.147864,0.082960,0.942816,0.420000,-16.379999,2.100000
75.011334,0.066856,0.078080,1.065304,2.520000,-2.240000,-1.820000
75.019421,-0.105408,0.015616,0.872544,1.120000,6.020000,-0.560000
75.027509,-0.078568,0.100040,1.012112,1.400000,-0.840000,-1.400000
75.035596,-0.033672,0.004392,0.958920,1.540000,0.280000,-1.260000
75.043683,-0.115168,0.097112,1.030168,1.540000,-3.220000,1.120000
75.051770,0.012688,0.050264,1.124352,0.700000,5.040000,-2.800000
75.059858,-0.163968,0.036112,1.054568,1.120000,0.560000,0.000000
75.067945,0.010248,0.106872,1.161440,0.980000,1.260000,-2.660000
75.076032,-0.188856,0.015616,1.151192,-0.560000,-1.400000,1.400000
75.084120,0.061000,0.095160,1.178032,1.400000,4.060000,-2.520000
75.092207,-0.207400,0.059536,1.227320,-1.120000,-2.660000,-0.560000
75.100294,0.016592,0.033672,1.246840,3.920000,0.700000,-1.820000
75.108382,-0.134688,0.187880,1.246352,-4.760000,3.220000,-2.240000
75.116469,-0.076616,-0.150304,1.243424,2.520000,2.660000,-1.120000
75.124556,-0.092232,0.264008,1.246352,1.400000,-2.800000,0.420000
75.132643,0.002440,-0.015616,1.196576,-3.500000,2.660000,-3.220000
75.140731,-0.241072,0.010736,1.357616,2.660000,1.680000,0.420000
75.148818,0.043432,0.236192,1.172664,-1.960000,-3.780000,-0.560000
75.156905,-0.104432,-0.159088,1.307352,0.980000,5.460000,-2.520000
75.164993,-0.170800,0.226432,1.319064,1.820000,0.140000,0.840000
75.173080,0.053192,0.059536,1.092632,-2.520000,-0.840000,-3.080000
75.181167,-0.190320,-0.063928,1.394704,3.640000,-1.260000,-0.140000
75.189255,-0.046848,0.252296,1.237080,-1.820000,0.280000,-1.120000
75.197342,-0.020984,-0.082960,1.212192,0.000000,5.180000,-3.780000
75.205429,-0.270840,0.093696,1.360544,2.380000,-1.260000,0.560000
75.213517,0.084424,0.153720,1.178520,0.700000,0.140000,-0.700000
75.221604,-0.142008,-0.065392,1.243424,-0.980000,4.760000,-0.700000
75.229691,-0.091256,0.141032,1.298080,2.240000,-3.640000,0.420000
75.237778,0.003904,0.075640,1.215608,1.260000,3.780000,-3.360000
75.245866,-0.226432,0.002440,1.254648,-1.540000,0.280000,-0.980000
75.253953,0.007320,0.094672,1.289296,2.520000,0.140000,-0.420000
75.262040,-0.127368,0.062464,1.200968,1.120000,1.120000,-0.560000
75.270128,-0.036112,0.064904,1.227320,-0.280000,1.680000,-0.840000
75.278215,-0.054168,0.044896,1.260504,2.520000,4.060000,-3.360000
75.286302,-0.222528,0.125904,1.206336,-0.420000,-2.100000,0.280000
75.294390,0.063928,-0.021960,1.213168,0.140000,3.920000,-1.260000
75.302477,-0.207888,0.101016,1.293688,3.220000,0.280000,-0.980000
75.310564,0.007320,0.109800,1.112152,-1.960000,0.140000,-0.980000
75.318651,-0.083936,-0.036600,1.280512,2.100000,1.960000,-3.080000
75.326739,-0.236680,0.180072,1.252696,-0.280000,-3.640000,2.240000
75.334826,0.157624,-0.031232,1.127280,0.840000,7.420000,-2.800000
75.342913,-0.307440,0.098576,1.312720,3.360000,-3.920000,-0.560000
75.351001,0.075640,0.121512,1.070184,-3.220000,2.520000,1.400000
75.359088,-0.117120,-0.047824,1.272216,2.100000,4.760000,-2.800000
75.367175,-0.195688,0.170800,1.251720,0.420000,-3.920000,2.520000
75.375263,0.157136,-0.004880,1.029192,0.420000,4.620000,-4.200000
75.383350,-0.373320,0.096624,1.405440,-1.120000,-1.120000,0.420000
75.391437,0.123952,0.054168,1.007720,1.400000,-0.980000,0.560000
75.399524,-0.149816,0.064904,1.339072,-1.120000,5.600000,-3.360000
75.407612,-0.134688,0.061488,1.149728,1.960000,-7.980000,1.540000
75.415699,0.047336,0.094672,1.119472,-1.680000,11.200000,-4.060000
75.423786,-0.302560,0.025864,1.334680,1.960000,-10.500000,1.400000
75.431874,0.189832,0.052704,1.055544,0.140000,10.920000,-0.560000
75.439961,-0.273280,0.151768,1.247816,-0.560000,-5.600000,-1.120000
75.448048,0.039040,-0.092720,1.014064,1.260000,5.180000,0.140000
75.456136,-0.126880,0.259616,1.186328,-0.280000,-1.680000,-3.220000
75.464223,-0.069784,-0.159088,0.897920,1.400000,-1.120000,2.240000
75.472310,-0.028304,0.297192,1.134600,-0.140000,4.760000,-3.640000
75.480397,-0.103944,-0.150304,0.763720,0.560000,3.080000,1.120000
75.488485,-0.092720,0.188856,0.986248,1.260000,-1.680000,-1.820000
75.496572,-0.019032,0.011224,0.775920,0.000000,2.800000,-0.560000
75.504659,-0.039040,0.015616,0.749568,1.820000,0.840000,0.420000
75.512747,-0.065880,0.058072,0.725656,0.840000,2.380000,-0.560000
75.520834,-0.054656,0.082960,0.628544,0.280000,2.800000,-1.680000
75.528921,-0.046848,0.046360,0.699792,1.120000,-0.420000,-1.120000
75.537009,-0.004880,0.058560,0.536800,1.400000,2.660000,-0.560000
75.545096,-0.061488,0.007808,0.604144,2.520000,1.540000,-0.700000
75.553183,-0.038552,0.039040,0.524600,1.260000,1.400000,-0.560000
75.561270,-0.049776,0.028304,0.521184,1.400000,0.560000,-0.560000
75.569358,-0.051240,0.031232,0.575352,0.980000,0.420000,0.140000
75.577445,-0.026352,0.056608,0.541680,1.120000,0.280000,-1.400000
75.585532,-0.043920,0.071248,0.523624,0.700000,2.940000,-2.100000
75.593620,-0.072224,0.047336,0.521184,0.560000,0.980000,-1.120000
75.601707,-0.022448,0.046848,0.589992,1.820000,-0.980000,-1.260000
75.609794,-0.034648,0.058560,0.515328,0.420000,3.220000,-1.820000
75.617882,-0.034648,0.043432,0.572912,2.380000,-1.260000,-1.680000
75.625969,-0.061976,0.022448,0.615856,1.120000,2.940000,-1.540000
75.634056,-0.038064,0.025376,0.531432,0.560000,0.000000,-0.980000
75.642143,-0.025376,0.007808,0.592920,0.700000,-0.840000,-0.280000
75.650231,-0.065392,0.058072,0.623176,0.560000,0.700000,-0.980000
75.658318,-0.076128,0.084424,0.648552,1.120000,-0.420000,-1.960000
75.666405,-0.065880,0.075152,0.692472,-0.280000,1.820000,-2.660000
75.674493,-0.054656,0.019032,0.701744,1.120000,1.400000,-1.680000
75.682580,0.037088,0.010248,0.630496,1.120000,0.000000,-0.980000
75.690667,-0.088328,0.030744,0.696376,0.280000,0.420000,-0.560000
75.698755,-0.124928,0.084424,0.804224,0.980000,0.280000,-1.260000
75.706842,-0.047336,0.056608,0.816424,1.400000,-0.560000,-2.660000
75.714929,0.009760,0.018056,0.685640,-0.420000,2.240000,-0.280000
75.723017,-0.077592,0.052704,0.822280,2.380000,-2.800000,0.000000
75.731104,-0.145912,0.096136,0.871568,-0.280000,0.700000,-2.660000
75.739191,-0.007808,0.037088,0.809104,1.680000,0.840000,-1.680000
75.747278,-0.036112,-0.006344,0.805200,0.980000,0.420000,-0.420000
75.755366,-0.164456,0.113704,0.903288,0.840000,-0.280000,-1.680000
75.763453,0.002440,0.037088,0.888160,1.680000,0.700000,-2.100000
75.771540,-0.063928,0.005856,0.792024,-0.420000,-0.140000,0.000000
75.779628,-0.133712,0.125904,0.948672,1.120000,-3.360000,-0.420000
75.787715,0.015616,0.000488,0.880840,-0.140000,2.660000,-3.220000
75.795802,-0.071248,0.051240,0.784704,0.980000,0.840000,-0.980000
75.803890,-0.137616,0.090768,0.960872,1.120000,-2.800000,-0.420000
75.811977,0.030744,0.009760,0.873520,0.280000,1.400000,-2.100000
75.820064,-0.076616,0.062464,0.793488,0.700000,2.520000,-0.140000
75.828151,-0.104432,0.094184,1.001376,0.700000,-1.260000,-2.660000
75.836239,0.005856,0.000000,0.787144,-0.140000,4.340000,-2.240000
75.844326,-0.132736,0.053680,0.877424,2.100000,-2.520000,1.400000
75.852413,-0.060512,0.095160,0.974536,0.140000,0.980000,-2.240000
75.860501,0.040016,-0.011224,0.767136,1.400000,4.900000,-1.960000
75.868588,-0.180560,0.076128,0.904752,0.700000,-1.960000,-0.140000
75.876675,-0.040504,0.077592,0.952088,1.400000,0.560000,-2.800000
75.884763,-0.009272,-0.017568,0.789584,1.120000,2.240000,-0.700000
75.892850,-0.124440,0.103456,0.897920,0.980000,-0.420000,-1.120000
75.900937,-0.047824,0.060024,0.901824,0.980000,4.620000,-1.820000
75.909024,-0.063928,-0.015128,0.767624,1.820000,-2.520000,0.840000
75.917112,-0.090280,0.127856,0.939888,1.680000,0.140000,-0.700000
75.925199,-0.047824,0.028304,0.884744,-0.700000,4.620000,-2.800000
75.933286,-0.032208,0.016104,0.783240,2.520000,-2.380000,-0.140000
75.941374,-0.133712,0.101504,0.935984,0.700000,2.660000,-0.140000
75.949461,-0.060024,0.033184,0.874984,0.140000,-0.560000,-1.820000
75.957548,-0.000976,0.022936,0.791048,2.100000,0.280000,0.140000
75.965636,-0.119072,0.090280,0.932568,1.400000,-0.980000,-1.540000
75.973723,-0.070272,0.073688,0.837896,-0.980000,4.200000,-1.960000
75.981810,-0.035136,0.001952,0.795440,0.420000,-0.980000,0.420000
75.989897,-0.118096,0.065880,0.893528,-4.200000,0.700000,0.140000
75.997985,-0.047336,0.091744,0.880840,-0.140000,-0.700000,-2.380000
76.006072,-0.041480,0.017080,0.792512,-3.780000,0.560000,-0.560000
76.014159,-0.081008,0.061000,0.834480,-5.320000,1.260000,-1.260000
76.022247,-0.135664,0.078568,0.926712,-5.600000,0.140000,-0.560000
76.030334,0.005368,0.019032,0.829112,-2.800000,-0.420000,-0.980000
76.038421,-0.036112,0.039040,0.798368,-3.360000,1.960000,-0.420000
76.046509,-0.148840,0.089304,0.902312,-5.740000,0.700000,-0.700000
76.054596,-0.016592,0.041480,0.826184,-3.080000,-0.280000,-0.560000
76.062683,0.001952,-0.004392,0.809592,-3.080000,1.540000,0.280000
76.070770,-0.171776,0.098576,0.886696,-4.340000,-0.280000,-1.120000
76.078858,-0.010736,0.057584,0.883768,-0.420000,2.660000,-1.260000
76.086945,-0.001952,-0.044408,0.817400,1.960000,-0.420000,0.140000
76.095032,-0.101016,0.112240,0.869128,0.280000,0.140000,-0.420000
76.103120,-0.058560,0.067344,0.865224,0.700000,2.380000,-1.820000
76.111207,0.009272,-0.024888,0.804224,0.280000,-1.820000,-0.980000
76.119294,-0.117120,0.085888,0.865712,-0.980000,1.960000,0.560000
76.127382,-0.092720,0.054656,0.917440,1.120000,-0.700000,-0.420000
76.135469,0.044408,0.005856,0.847168,0.700000,3.220000,-1.960000
76.143556,-0.086376,0.051728,0.802272,0.000000,0.980000,-0.140000
76.151644,-0.132248,0.082472,0.968192,0.700000,-1.540000,-1.540000
76.159731,0.007808,0.024888,0.806664,-0.700000,5.740000,-0.700000
76.167818,-0.046848,0.026352,0.867664,2.240000,-2.240000,0.840000
76.175905,-0.133224,0.083448,0.911584,-1.680000,5.320000,-2.100000
76.183993,-0.028792,0.047336,0.837896,0.560000,1.120000,-0.980000
76.192080,-0.021960,-0.004880,0.856440,1.820000,-4.060000,2.100000
76.200167,-0.063440,0.087352,0.884744,-0.420000,3.360000,-1.680000
76.208255,-0.054168,0.060512,0.868152,0.700000,2.240000,-2.240000
76.216342,-0.025864,-0.005856,0.831064,0.000000,0.560000,-0.560000
76.224429,-0.100040,0.067344,0.854976,0.000000,1.260000,-0.560000
76.232517,-0.048312,0.074664,0.929152,0.420000,0.840000,-1.400000
76.240604,-0.011224,-0.008296,0.832040,-0.280000,1.820000,-0.700000
76.248691,-0.108824,0.070272,0.844728,-0.560000,1.680000,0.140000
76.256778,-0.047336,0.064904,0.977464,1.680000,-1.680000,-1.400000
76.264866,-0.010736,-0.002928,0.803736,-0.280000,2.940000,-0.560000
76.272953,-0.089304,0.078080,0.855464,0.840000,-1.960000,-0.560000
76.281040,-0.113216,0.078080,0.971608,-0.420000,2.240000,-2.240000
76.289128,0.018056,-0.014152,0.788608,1.540000,0.000000,-0.700000
76.297215,-0.085400,0.065392,0.855464,0.700000,-0.980000,0.420000
76.305302,-0.101992,0.102480,0.921832,0.840000,1.820000,-2.940000
76.313390,0.035624,-0.000488,0.785192,0.980000,-0.840000,-0.980000
76.321477,-0.076128,0.041968,0.875960,-0.280000,-0.280000,0.420000
76.329564,-0.118584,0.105408,0.956968,1.400000,0.560000,-2.100000
76.337652,0.046848,-0.009760,0.948184,2.100000,0.000000,-3.080000
76.345739,-0.141032,0.075152,0.941840,-1.260000,1.120000,-0.700000
76.353826,-0.044896,0.054656,1.070672,3.220000,-2.520000,-2.100000
76.361913,0.007320,0.030744,0.987712,0.560000,2.660000,-0.840000
76.370001,-0.196176,0.093208,1.153632,2.380000,2.660000,-2.940000
76.378088,0.065392,0.024400,1.005280,2.100000,0.840000,-0.420000
76.386175,-0.197640,0.100040,1.204872,0.280000,0.840000,-3.080000
76.394263,0.045872,0.022448,1.043832,0.420000,1.260000,-0.280000
76.402350,-0.167384,0.111264,1.265872,0.280000,-1.120000,-2.660000
76.410437,0.014640,-0.041968,1.124352,2.660000,2.800000,-0.280000
76.418525,-0.151280,0.215208,1.220488,-1.120000,-0.420000,-1.680000
76.426612,0.022936,-0.115656,1.156560,1.960000,-0.140000,-1.260000
76.434699,-0.195200,0.264984,1.263432,2.520000,5.740000,-1.820000
76.442787,0.065880,-0.102480,1.043832,1.120000,-0.140000,-0.840000
76.450874,-0.227408,0.114680,1.335656,2.100000,0.980000,0.700000
76.458961,0.089304,0.124440,1.031632,-0.280000,0.140000,-1.540000
76.467048,-0.176168,-0.051728,1.326872,3.920000,3.360000,-3.780000
76.475136,-0.061488,0.186904,1.122400,-0.140000,-3.780000,1.400000
76.483223,0.039528,-0.013176,1.193160,-2.240000,7.280000,-5.180000
76.491310,-0.279624,0.050752,1.277096,1.400000,-7.140000,2.380000
76.499398,0.223992,0.117120,1.102880,0.980000,8.960000,-3.920000
76.507485,-0.329400,0.041968,1.229272,-3.640000,-5.880000,0.420000
76.515572,0.142984,-0.004880,1.127768,3.220000,6.440000,-0.840000
76.523660,-0.222040,0.200080,1.223416,-4.200000,-0.840000,-1.680000
76.531747,0.083936,-0.153720,1.157048,3.220000,2.660000,-0.420000
76.539834,-0.198616,0.278160,1.263432,-1.540000,1.820000,-2.240000
76.547921,0.020496,-0.103456,1.034560,-2.100000,-2.240000,-0.280000
76.556009,-0.117608,0.115656,1.380064,2.800000,3.920000,-0.980000
76.564096,-0.056120,0.129808,1.111176,-1.120000,-3.220000,-0.280000
76.572183,0.000976,-0.132736,1.333216,3.780000,5.460000,-1.540000
76.580271,-0.210328,0.291824,1.311256,2.800000,-6.580000,0.700000
76.588358,0.121512,-0.099064,1.120936,-0.840000,5.600000,-1.960000
76.596445,-0.236192,0.093696,1.400560,2.380000,0.840000,-0.560000
76.604533,0.033184,0.111264,1.279048,1.540000,-4.200000,-0.420000
76.612620,-0.132248,-0.014640,1.326384,1.400000,5.040000,-1.260000
76.620707,-0.034648,0.124928,1.324432,0.700000,-2.660000,-0.280000
76.628795,-0.041968,0.022936,1.415200,0.560000,3.920000,-2.380000
