Time [s],lsm6dsv16x_acc_x [g],lsm6dsv16x_acc_y [g],lsm6dsv16x_acc_z [g],lsm6dsv16x_gyro_x [dps],lsm6dsv16x_gyro_y [dps],lsm6dsv16x_gyro_z [dps]
42.209304,-0.025864,0.012688,0.792512,1.120000,2.940000,0.000000
42.217392,-0.131272,0.093208,1.002840,2.100000,-4.060000,0.280000
42.225479,0.024888,0.070760,0.913536,-0.420000,4.340000,-3.500000
42.233566,-0.064416,-0.014640,0.843264,1.680000,0.140000,0.000000
42.241653,-0.114192,0.131760,1.010648,0.280000,-3.640000,-1.120000
42.249741,0.042944,0.013176,0.833016,1.820000,2.660000,-0.420000
42.257828,-0.057584,0.036112,0.930616,0.980000,-0.420000,-0.560000
42.265915,-0.079544,0.141520,0.960872,-0.700000,0.980000,-3.220000
42.274002,0.000000,-0.070272,0.862784,1.400000,0.420000,-0.980000
42.282090,-0.089792,0.139568,0.948672,-0.140000,1.400000,-0.700000
42.290177,-0.048800,0.044408,0.943304,1.540000,4.480000,-2.660000
42.298264,-0.049288,-0.019032,0.876936,0.000000,-1.540000,-0.560000
42.306352,-0.071736,0.172752,0.997960,0.420000,1.960000,-1.820000
42.314439,-0.005856,-0.060024,0.915488,0.980000,1.960000,-2.380000
42.322526,-0.118584,0.119072,0.927200,-0.840000,2.100000,-0.700000
42.330613,-0.027816,0.042456,0.969168,1.960000,-0.560000,-1.120000
42.338701,-0.021472,0.014152,0.847656,-0.840000,2.660000,0.000000
42.346788,-0.101504,0.138592,1.032608,0.560000,-1.820000,-1.260000
42.354875,0.038552,-0.029280,0.854488,0.000000,2.100000,-1.260000
42.362962,-0.143960,0.120048,0.955992,-0.280000,0.840000,-0.840000
42.371050,-0.001952,0.018544,0.960872,0.280000,0.140000,-0.840000
42.379137,-0.042456,0.043432,0.888160,-0.280000,1.120000,0.000000
42.387224,-0.102968,0.116632,1.018944,-0.280000,1.260000,-2.100000
42.395312,0.004880,-0.015128,0.877424,0.000000,0.280000,-1.400000
42.403399,-0.120048,0.109312,0.967216,-1.260000,-0.420000,-0.280000
42.411486,0.056120,0.011712,0.986248,2.800000,-1.120000,-2.100000
42.419573,-0.114680,0.051240,0.949160,-0.560000,4.620000,-0.280000
42.427661,-0.094672,0.091256,0.961360,3.360000,-0.980000,-0.420000
42.435748,0.038552,-0.024888,0.970144,1.260000,-2.940000,0.980000
42.443835,-0.137616,0.185440,1.000888,-0.420000,4.900000,-2.100000
42.451922,0.035136,-0.098576,0.913048,2.660000,-0.280000,-0.980000
42.460010,-0.121024,0.200568,0.998936,-0.140000,-1.400000,0.280000
42.468097,0.036600,-0.055632,0.970144,3.360000,2.380000,-2.380000
42.476184,-0.075640,0.111752,0.963800,-1.680000,-0.700000,-0.560000
42.484272,-0.109800,0.056608,1.049688,3.920000,3.080000,-2.660000
42.492359,0.027816,-0.007808,0.865224,-1.260000,-1.120000,0.560000
42.500446,-0.126880,0.168360,1.138016,1.120000,2.100000,-0.280000
42.508533,0.082960,-0.108824,0.830576,0.700000,1.540000,-1.120000
42.516621,-0.214232,0.224968,1.170712,1.540000,-1.960000,-0.700000
42.524708,0.122488,-0.098088,0.847656,-0.280000,3.640000,-3.500000
42.532795,-0.203496,0.160064,1.031632,0.420000,-0.840000,1.540000
42.540883,0.065880,0.001952,1.030168,1.260000,0.560000,-2.800000
42.548970,-0.122976,0.080032,0.973560,2.380000,2.380000,1.540000
42.557057,-0.051728,0.041480,1.057984,-1.960000,0.700000,-2.100000
42.565144,0.016104,0.049288,0.920368,2.940000,-2.940000,1.260000
42.573232,-0.131760,0.089304,1.147776,-0.140000,7.140000,-3.360000
42.581319,0.039040,0.001952,0.868640,2.520000,-3.220000,0.700000
42.589406,-0.154696,0.097112,1.170224,-0.980000,2.100000,-0.700000
42.597493,0.078568,0.039528,0.914024,2.800000,1.400000,-0.840000
42.605581,-0.161528,0.030256,1.089216,1.260000,-0.140000,-1.260000
42.613668,0.020496,0.121512,0.962336,-0.420000,3.780000,-1.680000
42.621755,-0.112240,-0.052216,1.024800,0.140000,-0.420000,0.980000
42.629843,-0.018544,0.179584,1.032608,0.840000,1.400000,-0.420000
42.637930,-0.030256,-0.090768,0.996984,0.000000,-0.700000,-0.280000
42.646017,-0.083448,0.228384,1.058472,-1.680000,2.380000,-2.520000
42.654104,0.018056,-0.130296,0.961848,0.280000,0.420000,-1.400000
42.662192,-0.159576,0.245952,1.099464,-0.980000,1.260000,-0.700000
42.670279,0.077592,-0.134200,0.967704,1.400000,-0.140000,-0.840000
42.678366,-0.171288,0.222040,1.085312,-0.560000,2.380000,-0.140000
42.686453,0.032208,-0.093208,0.999424,1.820000,0.560000,-1.680000
42.694541,-0.059536,0.176656,1.022848,-1.120000,-0.840000,0.280000
42.702628,-0.046848,-0.044896,1.089704,1.960000,6.160000,-3.920000
42.710715,-0.047336,0.110288,0.942816,-0.280000,-2.240000,0.980000
42.718803,-0.100528,0.045384,1.171200,3.080000,0.560000,-2.520000
42.726890,0.075152,0.019032,0.895480,0.140000,-0.280000,0.980000
42.734977,-0.212280,0.093208,1.236592,1.960000,2.940000,-2.380000
42.743064,0.131272,0.020496,0.835944,0.420000,0.560000,1.120000
42.751152,-0.277184,0.095648,1.227320,1.260000,-1.400000,-0.700000
42.759239,0.212768,0.002928,0.904264,1.680000,-1.960000,0.140000
42.767326,-0.264496,0.104432,1.176080,0.280000,1.960000,-2.520000
42.775413,0.165920,0.029768,0.921832,0.840000,3.640000,-1.960000
42.783501,-0.286944,0.069784,1.142896,-0.140000,0.000000,0.280000
42.791588,0.175680,0.029280,0.967704,0.700000,2.240000,-1.680000
42.799675,-0.256200,0.074664,1.126304,0.980000,1.680000,-0.140000
42.807763,0.084424,0.042944,0.971120,-0.140000,1.260000,-1.960000
42.815850,-0.122976,0.035624,1.070672,0.560000,-3.500000,1.120000
42.823937,-0.001952,0.109800,1.087264,0.420000,7.280000,-4.200000
42.832024,-0.107848,-0.035136,0.994056,1.680000,-0.980000,0.280000
42.840112,-0.033184,0.134688,1.105320,0.140000,-0.420000,-1.400000
42.848199,-0.016592,-0.047336,1.016992,2.100000,0.980000,-0.140000
42.856286,-0.127856,0.173728,1.100928,0.700000,4.200000,-1.960000
42.864373,0.026352,-0.071248,0.939888,1.400000,-0.980000,-0.420000
42.872461,-0.162016,0.177632,1.215120,0.280000,1.400000,-0.840000
42.880548,0.050752,-0.064416,0.884256,1.960000,1.680000,-0.140000
42.888635,-0.150792,0.164456,1.197552,0.280000,-2.520000,0.140000
42.896723,0.056120,-0.040016,0.945744,0.140000,5.180000,-1.960000
42.904810,-0.187880,0.122000,1.118496,-1.400000,-6.300000,0.980000
42.912897,0.102968,0.002928,1.049688,1.540000,5.460000,-2.380000
42.920984,-0.213256,0.073200,1.050664,-0.140000,-4.620000,1.120000
42.929072,0.102968,0.050264,1.055544,1.960000,4.620000,-3.080000
42.937159,-0.171288,0.006832,1.019432,-1.680000,-2.240000,1.540000
42.945246,0.050752,0.126880,1.111176,2.520000,2.520000,-2.940000
42.953333,-0.108824,-0.071736,0.977464,-1.400000,3.360000,-0.420000
42.961421,-0.091256,0.191296,1.105320,1.400000,-2.940000,-0.700000
42.969508,0.057584,-0.115656,1.028216,-0.560000,-0.840000,-0.140000
42.977595,-0.191784,0.218136,1.152656,2.100000,4.620000,-0.560000
42.985683,0.089304,-0.134688,0.912072,0.420000,-1.960000,-0.280000
42.993770,-0.200568,0.231312,1.234152,0.840000,-0.700000,1.400000
43.001857,0.132248,-0.121512,0.929152,-1.120000,2.660000,-2.660000
43.009944,-0.266448,0.202032,1.194624,3.360000,-0.840000,1.260000
43.018032,0.191296,-0.072224,0.936960,-2.940000,3.500000,-3.920000
43.026119,-0.292312,0.126880,1.206824,0.700000,-1.400000,1.820000
43.034206,0.192760,-0.021472,0.992592,0.000000,5.740000,-4.620000
43.042293,-0.325008,0.101992,1.145336,1.120000,-1.400000,2.520000
43.050381,0.184464,-0.023424,1.062864,-0.420000,1.820000,-1.680000
43.058468,-0.235216,0.120048,1.175104,0.420000,-0.280000,1.680000
43.066555,0.126392,-0.076616,1.077016,4.760000,4.900000,-2.940000
43.074643,-0.245952,0.149816,1.186328,5.460000,-5.740000,1.120000
43.082730,0.131760,-0.103456,1.135576,15.400000,8.120000,-1.960000
43.090817,-0.188368,0.195200,1.092144,12.180000,-4.340000,-0.280000
43.098904,0.077104,-0.137616,1.165344,11.900000,7.140000,-1.400000
43.106992,-0.188368,0.186416,1.073600,12.600000,-3.080000,1.680000
43.115079,0.073688,-0.087352,1.128744,19.879999,2.240000,-0.560000
43.123166,-0.128344,0.162504,1.063840,10.220000,-1.960000,0.840000
43.131253,0.032208,-0.038552,1.177056,12.040000,2.660000,-3.640000
43.139341,-0.190808,0.067832,1.094584,12.600000,-3.780000,3.780000
43.147428,0.101992,0.068320,1.184864,14.560000,4.340000,-2.660000
43.155515,-0.165920,0.012200,1.052616,8.680000,-6.020000,2.240000
43.163603,0.085888,0.075640,1.218048,16.240000,7.840000,-3.920000
43.171690,-0.162504,0.010248,0.977464,9.240000,-6.580000,1.820000
43.179777,0.037576,0.046848,1.313208,17.219999,4.200000,-0.980000
43.187864,-0.047824,0.048312,0.893040,8.120000,0.980000,0.000000
43.195952,-0.105408,0.049776,1.298080,16.240000,-1.400000,-1.540000
43.204039,0.038064,0.028792,0.970632,5.460000,3.640000,-0.280000
43.212126,-0.176656,0.123952,1.264408,11.900000,-1.960000,-2.240000
43.220213,0.072712,-0.068808,0.993568,5.040000,-2.100000,1.260000
43.228301,-0.156648,0.196176,1.301984,7.980000,5.600000,-3.080000
43.236388,0.020008,-0.107360,0.904752,4.340000,-2.520000,1.820000
43.244475,-0.123952,0.180560,1.362496,6.580000,-1.260000,-0.980000
43.252563,0.123952,-0.003416,0.896944,-1.820000,3.780000,-2.240000
43.260650,-0.264496,0.084912,1.335656,0.420000,0.000000,-1.960000
43.268737,0.159576,-0.027328,0.959408,1.960000,1.120000,0.980000
43.276824,-0.218624,0.170800,1.307352,-0.980000,1.260000,-3.220000
43.284912,0.133712,-0.119560,0.955992,1.260000,2.800000,-0.840000
43.292999,-0.264008,0.223016,1.345416,-2.520000,-2.100000,-1.400000
43.301086,0.159088,-0.130784,0.948672,1.400000,-0.560000,-0.420000
43.309173,-0.215696,0.194712,1.336632,1.120000,4.620000,-2.380000
43.317261,0.129320,-0.079544,0.921344,0.980000,0.280000,-1.960000
43.325348,-0.251320,0.109800,1.305888,-1.120000,-2.240000,0.280000
43.333435,0.195200,0.013176,1.018456,2.100000,2.800000,-1.820000
43.341523,-0.270840,0.099552,1.270264,0.140000,-1.820000,-1.120000
43.349610,0.146888,-0.036600,1.018944,0.000000,6.160000,-0.700000
43.357697,-0.234728,0.172752,1.240008,0.000000,-3.080000,-0.840000
43.365784,0.172752,-0.099064,1.024800,0.980000,1.680000,-0.980000
43.373872,-0.250832,0.169824,1.226344,-0.840000,0.980000,-1.260000
43.381959,0.149328,-0.013176,1.017968,0.840000,-0.980000,-2.940000
43.390046,-0.244488,0.045872,1.247328,-1.400000,0.280000,0.420000
43.398133,0.168360,0.088816,1.054568,1.260000,3.640000,-3.500000
43.406221,-0.270840,-0.010248,1.228784,-1.680000,-1.540000,-0.980000
43.414308,0.168360,0.070272,1.042856,4.060000,1.680000,-1.960000
43.422395,-0.242048,0.083936,1.186328,-1.540000,-3.640000,-0.420000
43.430483,0.114680,-0.027816,1.053104,3.640000,8.120000,-2.100000
43.438570,-0.145424,0.137128,1.207312,-0.700000,-2.240000,-2.240000
43.446657,0.049776,-0.062464,1.100440,2.380000,3.780000,-2.520000
43.454744,-0.166408,0.152744,1.146800,1.540000,-3.080000,-0.420000
43.462832,0.077592,-0.005856,1.111176,3.780000,1.400000,-2.940000
43.470919,-0.147376,0.048800,1.122888,-0.840000,1.120000,-0.560000
43.479006,0.027816,0.095648,1.112152,3.920000,2.240000,-3.640000
43.487093,-0.140544,0.001464,1.091656,-1.120000,-1.680000,0.980000
43.495181,0.076616,0.064904,1.139480,3.640000,2.660000,-2.940000
43.503268,-0.144936,0.056120,1.078968,-1.680000,-1.540000,-0.140000
43.511355,0.039040,0.038064,1.151680,5.320000,4.760000,-4.060000
43.519443,-0.112728,0.106384,1.111664,-3.920000,-4.340000,-2.240000
43.527530,0.027328,-0.057584,1.258552,4.340000,8.540000,-3.500000
43.535617,-0.158112,0.228872,1.157536,0.980000,-2.660000,-0.840000
43.543704,0.069296,-0.229360,1.254648,3.500000,3.360000,-1.540000
43.551792,-0.184464,0.343064,1.340536,-0.980000,-0.840000,0.560000
43.559879,0.126880,-0.110776,1.252696,0.560000,0.840000,-4.060000
43.567966,-0.278648,0.041968,1.440576,2.800000,3.220000,-0.980000
43.576053,0.037088,0.171776,1.272704,0.560000,-5.320000,0.140000
43.584141,0.053680,-0.037088,1.349808,1.260000,2.520000,-2.940000
43.592228,-0.211792,0.051240,1.360544,2.380000,1.960000,-0.980000
43.600315,-0.035624,0.144936,1.263920,-1.820000,-2.100000,-1.260000
43.608403,0.035624,-0.050752,1.123376,-0.420000,4.340000,-1.680000
43.616490,-0.220088,0.104920,1.231224,2.240000,-3.220000,0.840000
43.624577,0.180072,0.034160,0.882304,0.000000,1.820000,-0.700000
43.632664,-0.214232,0.062952,1.006256,-1.540000,5.740000,-3.220000
43.640752,0.116632,-0.011712,0.664168,2.660000,-6.440000,1.260000
43.648839,-0.102480,0.109312,0.821304,-0.980000,9.660000,-1.820000
43.656926,-0.095160,0.001464,0.525088,1.680000,-0.840000,0.280000
43.665013,0.059048,0.033672,0.511912,1.260000,2.800000,-2.240000
43.673101,-0.065392,0.026840,0.393328,-0.700000,1.260000,-0.280000
43.681188,0.003416,0.031232,0.366000,1.260000,2.100000,-0.420000
43.689275,-0.014152,0.029280,0.404064,1.260000,0.560000,-0.560000
43.697363,-0.017568,0.026840,0.348432,0.980000,3.920000,-0.140000
43.705450,-0.013176,0.031720,0.372344,2.520000,0.560000,-0.280000
43.713537,-0.018056,0.014640,0.406992,0.980000,1.820000,0.000000
43.721624,-0.012200,0.015128,0.470432,1.960000,-0.420000,-0.840000
43.729712,-0.040504,0.034648,0.547048,1.260000,0.840000,-0.420000
43.737799,-0.046360,0.034648,0.620736,1.540000,-2.800000,-0.840000
43.745886,0.000488,0.049776,0.780800,1.540000,-2.800000,-3.500000
43.753973,0.006832,0.031232,0.813984,-0.980000,4.340000,-2.520000
43.762061,-0.081496,-0.011712,0.974048,2.380000,-2.100000,0.560000
43.770148,-0.037576,0.182024,1.258552,-1.400000,2.520000,-3.780000
43.778235,-0.134688,-0.108336,1.326384,0.420000,-2.660000,-0.140000
43.786323,0.017568,0.172264,1.461072,2.940000,-3.080000,-1.820000
43.794410,-0.086376,0.096136,1.488400,-4.340000,0.700000,-1.540000
43.802497,-0.035624,0.010248,1.635288,2.100000,-1.540000,-3.080000
43.810584,-0.196176,0.042456,1.664568,1.400000,0.840000,-2.240000
43.818672,-0.054656,0.060024,1.514264,1.680000,-1.540000,-0.840000
43.826759,0.029768,0.135664,1.516704,-0.700000,0.140000,-2.100000
43.834846,-0.055144,0.091744,1.397144,-3.360000,3.920000,-1.820000
43.842933,-0.088816,-0.052704,1.453264,1.960000,-1.680000,-0.980000
43.851021,-0.132248,0.080520,1.348344,3.500000,4.060000,0.000000
43.859108,-0.002928,0.201056,1.003328,-3.780000,-1.400000,-0.560000
43.867195,0.015128,-0.171776,1.117032,2.240000,2.660000,-1.120000
43.875283,-0.191296,0.285968,0.998448,0.000000,2.940000,0.000000
43.883370,0.088816,-0.153232,0.713456,1.820000,0.560000,-2.520000
43.891457,-0.084912,0.104432,0.707600,1.260000,2.800000,2.940000
43.899544,-0.004392,0.071736,0.655872,0.420000,-0.700000,-0.560000
43.907632,-0.078080,0.051240,0.648552,-0.560000,5.600000,-1.540000
43.915719,-0.033184,0.041968,0.520696,1.400000,1.400000,-0.140000
43.923806,0.015616,0.005856,0.647576,1.820000,-1.540000,-0.560000
43.931893,-0.007808,0.003416,0.603168,0.000000,2.940000,-0.420000
43.939981,-0.023912,0.028792,0.673440,1.260000,-1.540000,-0.700000
43.948068,-0.138104,0.101504,0.872544,-0.140000,0.000000,0.560000
43.956155,0.021960,0.036600,0.995032,0.560000,-1.400000,-1.260000
43.964243,-0.084912,0.049288,1.211704,-1.120000,-1.540000,0.700000
43.972330,0.013176,0.033184,1.367376,0.000000,2.100000,-3.220000
43.980417,-0.131272,0.097112,1.613328,-1.680000,1.960000,-1.400000
43.988504,-0.074664,0.103456,1.749968,1.540000,-1.400000,-0.840000
43.996592,-0.168360,0.084424,1.896856,0.280000,2.100000,-0.420000
44.004679,-0.085400,0.081008,1.869040,-0.280000,0.840000,-0.840000
44.012766,-0.122976,0.043432,1.895392,-3.640000,-2.100000,-1.820000
44.020853,-0.061976,0.105408,1.976400,0.700000,-1.260000,-1.400000
44.028941,-0.083936,0.055632,1.911496,-1.540000,-0.280000,-0.840000
44.037028,-0.095160,0.059536,1.930040,1.260000,0.280000,0.140000
44.045115,-0.043920,0.093208,1.826584,1.960000,-1.120000,-0.700000
44.053203,-0.024888,0.058072,1.671888,0.000000,0.560000,-0.420000
44.061290,-0.030256,0.105408,1.567944,-2.100000,2.380000,-1.960000
44.069377,-0.010736,0.122000,1.483520,2.940000,2.800000,-1.400000
44.077464,-0.079544,-0.034160,1.359568,1.960000,0.420000,0.700000
44.085552,-0.019520,0.067344,1.201944,4.900000,-0.700000,0.700000
44.093639,-0.035624,0.167384,0.922320,-4.200000,4.200000,-2.380000
44.101726,0.010248,-0.124440,0.895968,6.300000,4.200000,-1.680000
44.109813,-0.096136,0.168848,0.721752,-1.820000,-2.800000,1.120000
44.117901,0.023912,0.043920,0.680272,1.120000,3.360000,-1.540000
44.125988,-0.056608,0.077592,0.665632,0.000000,4.340000,-0.980000
44.134075,0.023912,0.016104,0.532408,1.680000,2.940000,0.280000
44.142163,-0.014152,0.008296,0.553880,1.120000,-0.140000,-0.280000
44.150250,-0.009272,0.030744,0.544120,-0.280000,1.260000,-0.840000
44.158337,-0.040992,0.040016,0.600728,0.280000,1.260000,-0.700000
44.166424,-0.028304,0.093696,0.657824,0.140000,1.400000,-0.840000
44.174512,-0.017568,0.087352,0.728096,0.980000,2.800000,-1.260000
44.182599,-0.004392,-0.014640,0.800320,2.240000,-1.960000,-0.840000
44.190686,-0.003416,0.038552,0.833504,0.140000,-0.140000,-1.260000
44.198773,-0.101016,0.152744,1.029680,2.100000,1.820000,-1.120000
44.206861,0.055632,-0.075152,0.994544,1.680000,-1.540000,-1.120000
44.214948,-0.146888,0.229360,1.226344,1.960000,0.840000,0.140000
44.223035,0.112728,-0.095160,1.067744,-0.280000,1.820000,-3.360000
44.231123,-0.240096,0.199592,1.320528,0.000000,-0.700000,0.280000
44.239210,0.186416,-0.011224,1.118496,-1.680000,0.560000,-1.960000
44.247297,-0.217160,0.096136,1.347856,1.400000,0.280000,-2.380000
44.255384,0.036112,0.107848,1.052128,-3.640000,0.280000,0.280000
44.263472,0.001464,-0.037088,1.107760,1.680000,4.480000,-3.780000
44.271559,-0.164944,0.194712,1.057984,-2.240000,-4.200000,1.260000
44.279646,0.157624,-0.069784,0.849608,1.400000,7.280000,-3.500000
44.287733,-0.205448,0.135176,0.871568,0.420000,-4.060000,0.980000
44.295821,0.091744,0.059536,0.740296,0.000000,7.280000,-3.500000
44.303908,-0.120048,0.047336,0.671488,2.940000,-0.980000,-0.280000
44.311995,0.081008,0.021472,0.577304,1.820000,-1.120000,-0.280000
44.320083,-0.064904,0.048800,0.614880,1.400000,5.600000,-1.680000
44.328170,-0.037576,0.029280,0.502640,0.700000,-1.260000,0.000000
44.336257,0.011224,0.068320,0.531920,0.560000,1.400000,-1.260000
44.344344,-0.039528,0.050752,0.433344,1.120000,3.080000,-0.980000
44.352432,-0.008296,0.040504,0.460184,1.960000,0.140000,-0.840000
44.360519,-0.024400,0.054656,0.472872,1.820000,0.980000,-0.700000
44.368606,-0.027816,0.046848,0.474824,2.380000,0.140000,-1.260000
44.376693,-0.025864,0.051240,0.527040,1.680000,0.140000,-1.680000
44.384781,-0.038552,0.041968,0.559736,1.400000,0.980000,-1.540000
44.392868,-0.001952,0.057584,0.542656,1.680000,-1.260000,-1.820000
44.400955,-0.007320,0.013664,0.656848,1.540000,3.080000,-1.680000
44.409043,-0.023912,0.021960,0.617320,0.700000,0.840000,-0.140000
44.417130,-0.019032,0.053192,0.649040,0.700000,-1.400000,0.280000
44.425217,-0.095648,0.101992,0.778360,-0.700000,1.260000,-0.700000
44.433304,-0.022448,0.052216,0.811544,0.420000,0.140000,-2.660000
44.441392,0.036112,0.004392,0.800320,-2.100000,0.420000,-1.540000
44.449479,-0.154696,0.130296,0.938912,-1.680000,0.700000,-0.700000
44.457566,0.026840,0.000976,0.966240,0.280000,-0.700000,-2.100000
44.465653,-0.034160,0.099552,0.952088,-1.540000,0.700000,0.280000
44.473741,-0.094672,0.055144,1.052616,-0.280000,2.520000,-3.220000
44.481828,0.029768,0.039040,0.922320,-0.980000,-1.540000,-0.280000
44.489915,-0.164944,0.108824,1.104344,-1.400000,0.700000,-0.560000
44.498003,0.069296,-0.010736,0.904752,0.700000,-1.400000,-0.140000
44.506090,-0.133712,0.174704,1.101904,-0.420000,4.200000,-1.960000
44.514177,0.036600,-0.081984,0.784704,1.260000,-3.360000,-0.280000
44.522264,-0.098576,0.191784,1.080920,0.700000,-0.140000,-0.980000
44.530352,-0.044896,-0.001464,0.796904,0.000000,5.040000,-2.240000
44.538439,-0.007320,0.020008,0.820328,2.520000,0.560000,-0.560000
44.546526,-0.116144,0.137128,0.877424,0.840000,0.840000,0.000000
44.554613,0.004880,0.023912,0.781776,1.120000,1.260000,-2.660000
44.562701,0.026352,0.016592,0.710528,0.980000,1.680000,-0.280000
44.570788,-0.114192,0.106872,0.793976,0.420000,2.800000,0.280000
44.578875,-0.072712,0.082960,0.835456,1.820000,-2.100000,-0.700000
44.586963,0.037088,-0.014152,0.799832,1.400000,1.960000,-0.700000
44.595050,-0.073688,0.080032,0.766648,0.000000,-0.140000,0.140000
44.603137,-0.079056,0.098088,0.983808,1.120000,-0.980000,-2.660000
44.611224,0.003416,-0.023424,0.839360,-0.280000,2.660000,-1.400000
44.619312,-0.136152,0.142984,1.034072,2.100000,-3.640000,0.140000
44.627399,0.054656,-0.001464,0.990640,-0.560000,3.220000,-2.100000
44.635486,-0.145912,0.110776,1.124352,0.980000,-0.700000,-0.140000
44.643573,0.037088,0.014640,1.137040,-0.700000,2.240000,-3.080000
44.651661,-0.221552,0.159576,1.314184,0.000000,-2.940000,0.980000
44.659748,0.102480,-0.041968,1.135576,-0.840000,3.080000,-2.800000
44.667835,-0.258152,0.115656,1.473760,2.520000,-4.060000,1.540000
44.675923,0.123464,0.106872,1.152168,0.700000,5.460000,-1.260000
44.684010,-0.167872,0.000976,1.339072,1.400000,-4.900000,-0.700000
44.692097,-0.062464,0.129808,1.368352,0.280000,2.940000,-0.840000
44.700184,-0.019520,0.055632,1.203896,1.680000,2.940000,-2.380000
44.708272,-0.145424,0.020496,1.368352,-0.420000,-2.800000,0.560000
44.716359,-0.047336,0.125904,1.322968,0.840000,0.840000,-0.420000
44.724446,0.036112,0.032696,1.210728,1.120000,3.220000,-2.800000
44.732533,-0.229360,0.068808,1.292224,-1.960000,-0.420000,-0.840000
44.740621,0.036112,0.055632,1.133136,0.840000,-1.120000,2.100000
44.748708,-0.061000,0.074176,1.185352,-1.260000,7.000000,-1.960000
44.756795,-0.140544,0.043920,1.078480,2.660000,-4.340000,3.080000
44.764883,0.131760,0.079544,0.999912,-0.840000,8.540000,-4.200000
44.772970,-0.256200,0.050752,1.018456,0.000000,-5.740000,1.820000
44.781057,0.139568,0.057096,0.954040,-0.140000,10.080000,-3.220000
44.789144,-0.206424,0.022448,0.862784,0.980000,-6.440000,3.360000
44.797232,0.025376,0.106384,0.940376,-0.140000,7.700000,-2.800000
44.805319,-0.049288,-0.006832,0.806176,0.700000,-1.820000,0.140000
44.813406,0.001952,0.044896,0.794952,1.120000,0.420000,0.140000
44.821493,-0.095160,0.123952,0.856440,0.560000,0.840000,-1.260000
44.829581,0.004880,0.002440,0.792024,0.980000,0.280000,-0.980000
44.837668,-0.010248,0.009272,0.762256,2.380000,0.140000,-0.140000
44.845755,-0.086376,0.119072,0.834480,1.400000,1.120000,-0.280000
44.853843,-0.008784,0.038552,0.859856,2.380000,-1.400000,-2.520000
44.861930,0.024888,-0.015616,0.816912,1.820000,4.620000,-2.100000
44.870017,-0.149328,0.102968,0.841312,1.400000,0.280000,1.120000
44.878104,0.018056,0.046360,0.981368,3.500000,-2.660000,-1.120000
44.886192,0.030744,0.007808,0.811544,0.000000,5.600000,-1.120000
44.894279,-0.168360,0.109312,0.984784,1.540000,-1.400000,-1.260000
44.902366,0.013664,0.046360,0.976976,0.980000,0.980000,-2.240000
44.910454,-0.018544,-0.014640,0.880352,1.680000,2.380000,1.260000
44.918541,-0.070272,0.151280,1.071648,1.260000,-1.960000,-1.820000
44.926628,0.010248,-0.037576,0.940864,1.260000,3.220000,-1.820000
44.934715,-0.064416,0.119560,0.976488,1.260000,-2.940000,-1.120000
44.942803,-0.086864,0.043920,1.034560,1.120000,4.340000,-2.520000
44.950890,0.058072,0.020984,0.863272,1.960000,-0.560000,-0.420000
44.958977,-0.155672,0.098088,1.092632,-0.140000,-1.960000,-1.400000
44.967064,0.083448,0.026840,0.908656,0.000000,5.180000,-3.360000
44.975152,-0.123952,0.038552,1.006256,1.960000,-3.920000,0.700000
44.983239,-0.004880,0.111752,1.003328,-0.280000,5.460000,-3.780000
44.991326,-0.025864,-0.034160,0.896456,2.380000,-1.260000,1.120000
44.999414,-0.095160,0.138592,0.981368,-0.280000,1.540000,-1.400000
45.007501,0.030256,0.020496,0.891576,1.120000,1.120000,-0.140000
45.015588,-0.012688,0.028304,0.888648,0.560000,-0.700000,0.140000
45.023675,-0.075640,0.104920,0.908656,0.420000,1.680000,-2.520000
45.031763,0.011712,0.033672,0.825696,1.400000,3.080000,-0.980000
45.039850,-0.018056,0.014640,0.770064,0.420000,-3.220000,0.280000
45.047937,-0.075640,0.102480,0.850096,0.560000,2.100000,-1.820000
45.056024,-0.027328,0.060024,0.789584,0.700000,-1.400000,-2.380000
45.064112,0.051240,0.016104,0.782264,0.840000,-3.640000,-0.420000
45.072199,-0.096624,0.040016,0.757864,-0.280000,0.420000,-0.140000
45.080286,-0.040016,0.078568,0.827160,1.400000,-2.240000,-1.680000
45.088374,0.020008,0.061976,0.749568,-0.840000,1.120000,-2.100000
45.096461,0.028304,0.008784,0.759816,0.980000,-4.200000,-1.260000
45.104548,-0.061488,0.040504,0.752496,-0.980000,5.040000,-1.680000
45.112635,-0.081008,0.072712,0.769576,-0.280000,-3.080000,-1.120000
45.120723,0.043432,0.062464,0.820328,1.400000,-2.380000,-2.100000
45.128810,-0.046848,0.000488,0.681248,0.000000,1.680000,-0.560000
45.136897,-0.009760,0.040992,0.768600,1.120000,-7.980000,-0.700000
45.144984,-0.019032,0.112240,0.822768,0.000000,3.220000,-2.800000
45.153072,-0.044896,0.007320,0.740784,1.260000,-0.980000,-1.960000
45.161159,-0.032696,0.010736,0.735416,0.420000,-11.060000,0.420000
45.169246,-0.050752,0.107848,0.815448,0.840000,-5.320000,-1.960000
45.177334,0.016104,0.050264,0.766648,1.400000,-4.480000,-2.660000
45.185421,0.024400,-0.007320,0.792024,1.540000,-2.940000,-1.400000
45.193508,-0.112728,0.057584,0.734440,0.840000,-3.780000,-0.700000
45.201595,-0.036600,0.089792,0.846192,2.380000,-8.960000,-1.540000
45.209683,0.070760,0.017080,0.745176,0.700000,-2.100000,-1.540000
45.217770,-0.027816,0.026840,0.705648,1.120000,-7.000000,-0.560000
45.225857,-0.057096,0.101016,0.859368,1.120000,0.700000,-2.100000
45.233944,-0.031720,0.044408,0.815936,1.120000,1.960000,-2.100000
45.242032,0.011712,0.006344,0.739320,0.700000,-0.980000,0.000000
45.250119,-0.055144,0.065880,0.816912,1.120000,1.260000,-0.840000
45.258206,-0.053192,0.075640,0.830088,1.120000,2.100000,-1.120000
45.266294,0.038552,0.008296,0.791048,0.980000,-2.940000,-0.700000
45.274381,-0.042456,0.059536,0.886696,1.120000,1.120000,-1.120000
45.282468,-0.116632,0.089792,0.904264,-0.420000,2.940000,-2.380000
45.290555,0.050264,-0.010248,0.899384,1.680000,-3.640000,-0.560000
45.298643,-0.062952,0.086376,0.972096,0.280000,0.560000,0.000000
45.306730,-0.072224,0.067832,1.037000,1.680000,0.280000,-2.520000
45.314817,0.024400,0.018056,0.991128,1.540000,-1.540000,-0.840000
45.322905,-0.113704,0.123952,1.114104,-1.120000,3.080000,-2.660000
45.330992,0.005856,-0.032208,1.028216,1.260000,-3.080000,0.980000
45.339079,-0.043432,0.147864,1.249768,-0.140000,2.940000,-1.960000
45.347166,-0.033184,-0.015128,1.130696,0.840000,2.380000,-1.680000
45.355254,-0.074176,0.109800,1.252696,0.700000,-2.100000,-2.520000
45.363341,-0.028304,0.056608,1.305888,-1.680000,-0.280000,-1.820000
45.371428,-0.102968,0.028304,1.363472,2.380000,-1.260000,-1.400000
45.379515,-0.024888,0.119072,1.339560,0.000000,-0.840000,-0.280000
45.387603,0.018056,0.022448,1.448384,-0.280000,3.500000,-3.080000
45.395690,-0.192760,0.047336,1.460584,1.260000,-2.660000,0.700000
45.403777,0.010736,0.161040,1.389336,-1.680000,0.840000,-1.120000
45.411865,-0.027328,0.005856,1.388360,-1.540000,3.080000,-1.820000
45.419952,-0.030744,0.007320,1.508896,3.640000,-0.840000,-1.540000
45.428039,-0.139080,0.161528,1.426424,-1.120000,-0.140000,-1.120000
45.436126,-0.049288,0.119072,1.415200,-2.380000,1.540000,-0.280000
45.444214,0.035624,-0.045384,1.423496,2.380000,2.800000,-1.540000
45.452301,-0.084424,0.035136,1.464488,2.660000,3.080000,-1.260000
45.460388,-0.135664,0.211792,1.370304,-1.960000,-0.840000,0.000000
45.468475,0.035136,0.008296,1.301496,-0.420000,-3.360000,0.420000
45.476563,-0.008296,-0.046360,1.315160,2.800000,7.840000,-1.820000
45.484650,-0.173240,0.255712,1.234640,-0.140000,-1.960000,-0.560000
45.492737,0.110288,-0.101992,1.035536,-1.680000,2.380000,-0.280000
45.500825,-0.145912,0.134688,1.216584,2.800000,1.400000,-1.260000
45.508912,0.025376,0.050752,0.852048,-2.660000,-0.420000,1.260000
45.516999,-0.040016,0.066856,1.095072,3.220000,5.880000,-3.080000
45.525086,-0.030256,0.003416,0.760792,-1.260000,-1.540000,1.540000
45.533174,-0.042944,0.125904,0.963312,2.380000,3.920000,-2.240000
45.541261,0.024888,-0.021960,0.751032,1.820000,0.560000,-0.140000
45.549348,-0.030744,0.048312,0.771528,-0.840000,3.640000,-1.400000
45.557436,-0.114680,0.104432,0.710528,-0.140000,2.240000,-0.280000
45.565523,0.050752,0.032696,0.733952,2.520000,-1.960000,-0.700000
45.573610,-0.004392,-0.000488,0.729560,0.420000,3.920000,-0.420000
45.581697,-0.040504,0.040016,0.693448,1.540000,0.280000,-0.140000
45.589785,-0.033672,0.104920,0.678320,0.420000,1.260000,-0.560000
45.597872,-0.030744,0.039528,0.671000,0.840000,1.960000,-0.700000
45.605959,0.036112,0.007320,0.624640,2.660000,-1.400000,-0.560000
45.614046,-0.019032,0.021472,0.673440,1.400000,2.520000,-0.840000
45.622134,-0.041968,0.042944,0.624152,0.000000,2.940000,-0.700000
45.630221,-0.050264,0.090280,0.672464,0.980000,-1.820000,-0.980000
45.638308,0.008784,0.082472,0.657824,0.420000,3.780000,-2.240000
45.646396,-0.044896,0.002928,0.630008,1.540000,0.140000,-0.840000
45.654483,0.026840,0.004392,0.610488,1.820000,-1.680000,0.000000
45.662570,-0.034648,0.025376,0.625616,0.700000,-2.660000,-0.280000
45.670657,-0.059536,0.083936,0.670024,0.140000,-0.840000,-1.400000
45.678745,-0.069784,0.068320,0.623176,0.700000,-7.980000,-1.400000
45.686832,0.031720,0.032696,0.644160,2.100000,-14.000000,-0.700000
45.694919,0.012200,0.009272,0.612928,0.420000,-6.300000,-0.280000
45.703006,0.004392,0.012200,0.603656,1.540000,-6.580000,-0.700000
45.711094,-0.054656,0.054656,0.656848,0.280000,-2.940000,-0.980000
45.719181,-0.078568,0.085888,0.675880,1.260000,-7.980000,-0.700000
45.727268,0.007320,0.047336,0.752496,0.140000,-8.120000,-0.420000
45.735356,0.012200,0.007808,0.763720,0.840000,-8.120000,-0.980000
45.743443,-0.021472,0.029280,0.790072,0.840000,-4.480000,-0.420000
45.751530,-0.083448,0.100040,0.949648,2.240000,-6.860000,-1.400000
45.759617,0.061976,0.019032,1.005280,1.120000,-5.040000,-2.520000
45.767705,-0.111264,0.066856,1.021872,0.840000,-4.480000,-0.980000
45.775792,0.016592,0.063440,1.196576,2.380000,-3.640000,-2.940000
45.783879,-0.155184,0.107360,1.154120,-2.100000,-7.700000,1.260000
45.791967,0.137128,-0.046848,1.255136,0.560000,-1.960000,-3.080000
45.800054,-0.266448,0.226432,1.398608,-2.380000,-11.060000,-0.420000
45.808141,0.135664,-0.045872,1.243424,-1.120000,-4.900000,-2.520000
45.816228,-0.154208,0.019520,1.464976,1.680000,-2.100000,0.280000
45.824316,0.001952,0.194712,1.425936,-2.240000,-2.380000,-0.700000
45.832403,-0.075640,0.045872,1.379576,-2.380000,-2.660000,-1.680000
45.840490,-0.030744,-0.024400,1.363472,1.400000,-4.480000,-0.280000
45.848577,-0.059536,0.148352,1.447408,-1.820000,6.020000,-1.120000
45.856665,-0.032696,0.111752,1.389824,-1.260000,3.220000,-0.980000
45.864752,-0.043920,-0.020008,1.278072,-1.960000,-1.400000,-1.120000
45.872839,-0.073688,0.057096,1.377136,-0.420000,-2.240000,-0.280000
45.880927,-0.009272,0.152744,1.332240,-1.400000,6.160000,-1.400000
45.889014,-0.038552,-0.020008,1.168272,-0.140000,3.220000,-2.380000
45.897101,-0.169336,0.087840,1.271240,0.840000,-5.600000,2.520000
45.905188,0.169336,0.107360,1.180472,0.700000,2.380000,-0.980000
45.913276,-0.222040,0.004392,1.225368,0.280000,5.320000,-1.260000
45.921363,0.011224,0.133712,1.184864,2.100000,-6.580000,1.260000
45.929450,0.051728,0.013664,1.175592,-1.960000,8.680000,-4.620000
45.937537,-0.239120,0.081984,1.303448,1.540000,-6.440000,1.540000
45.945625,0.198616,0.061488,1.187792,0.980000,5.600000,-1.820000
45.953712,-0.248880,0.051728,1.347368,1.680000,-3.500000,-0.420000
45.961799,0.022936,0.145912,1.376648,0.980000,-1.540000,0.140000
45.969887,-0.026352,-0.026352,1.297592,1.120000,7.000000,-2.240000
45.977974,-0.101504,0.094184,1.476688,3.780000,-5.040000,1.120000
45.986061,-0.018544,0.163480,1.448384,-0.280000,-1.680000,-1.540000
45.994148,-0.017568,-0.022448,1.406416,2.240000,0.280000,-1.960000
46.002236,-0.044408,0.028792,1.408368,2.520000,5.180000,-1.960000
46.010323,-0.119072,0.188368,1.484008,1.120000,-1.260000,-0.840000
46.018410,-0.030744,0.097112,1.489864,0.700000,0.140000,-1.400000
46.026497,-0.035136,-0.059048,1.350784,1.960000,2.660000,-1.260000
46.034585,-0.073688,0.081008,1.409344,0.700000,0.420000,-0.420000
46.042672,-0.055144,0.196664,1.401536,-0.280000,-1.260000,0.140000
46.050759,0.041480,-0.040992,1.206824,0.560000,5.320000,-1.680000
46.058847,-0.159088,0.060512,1.294664,2.520000,0.280000,-1.540000
46.066934,-0.026352,0.176168,1.131184,-1.260000,-0.700000,0.000000
46.075021,0.060512,-0.061488,1.058472,-0.840000,1.820000,-2.520000
46.083108,-0.196664,0.150792,1.054568,1.960000,0.560000,3.080000
46.091196,0.162504,0.000488,0.869616,-0.420000,4.480000,-5.180000
46.099283,-0.164456,0.063440,0.846192,3.080000,-1.400000,1.820000
46.107370,0.048800,0.103944,0.864248,-2.240000,3.080000,-3.360000
46.115458,-0.067344,-0.013664,0.718336,1.820000,0.420000,0.700000
46.123545,0.035624,0.056120,0.684664,0.140000,4.200000,-0.560000
46.131632,-0.127856,0.095160,0.743712,0.840000,-0.280000,0.000000
46.139719,0.059048,0.036600,0.710528,-1.400000,1.680000,-1.960000
46.147807,-0.019520,0.016592,0.688568,0.980000,2.800000,-1.260000
46.155894,-0.027816,0.027328,0.679784,-0.140000,1.400000,0.140000
46.163981,-0.057584,0.118584,0.794464,0.560000,1.400000,-1.540000
46.172068,0.002928,0.020984,0.813496,0.980000,2.940000,-1.540000
46.180156,0.006344,0.002440,0.808128,-0.140000,-3.220000,0.000000
46.188243,-0.102480,0.144936,1.037488,1.400000,2.800000,-1.960000
46.196330,0.084912,-0.040016,0.944768,2.380000,1.820000,-1.820000
46.204418,-0.176656,0.142008,1.099464,0.420000,-3.780000,-0.280000
46.212505,0.124440,-0.000976,1.077504,1.680000,4.900000,-3.220000
46.220592,-0.208376,0.134688,1.096048,-0.980000,-2.800000,0.140000
46.228679,0.139080,-0.023912,1.107760,3.220000,4.060000,-2.100000
46.236767,-0.218136,0.199592,1.138992,-3.080000,-1.820000,0.280000
46.244854,0.132736,-0.114680,1.084336,2.660000,2.100000,-1.120000
46.252941,-0.179584,0.283040,1.204384,-1.260000,-2.660000,-1.540000
46.261028,0.117608,-0.194712,0.958920,1.820000,4.900000,-0.420000
46.269116,-0.184952,0.328912,1.086776,0.140000,-1.260000,-1.260000
46.277203,0.127856,-0.194712,0.762744,0.700000,1.540000,0.420000
46.285290,-0.155184,0.238632,1.004792,0.280000,-0.980000,-1.960000
46.293378,0.052704,-0.042456,0.671976,0.140000,5.460000,-1.260000
46.301465,-0.009272,0.058072,0.754448,2.240000,-0.280000,0.560000
46.309552,-0.028792,0.038552,0.710528,1.540000,-0.280000,0.420000
46.317639,-0.047824,0.068808,0.580720,-0.980000,3.920000,-1.680000
46.325727,0.009760,0.054656,0.623664,2.380000,-2.240000,-1.120000
46.333814,0.020496,0.045384,0.575352,0.280000,4.620000,-1.540000
46.341901,-0.031720,0.017568,0.606096,2.520000,1.260000,-0.700000
46.349989,-0.005856,0.035136,0.637816,2.100000,-0.700000,0.000000
46.358076,-0.013664,0.029280,0.722240,0.980000,0.420000,-0.840000
46.366163,-0.084912,0.104920,0.798856,0.280000,-0.140000,-1.680000
46.374250,0.002440,0.038064,0.883768,0.980000,0.980000,-1.260000
46.382338,0.032696,0.003904,0.961848,0.840000,-1.680000,0.000000
46.390425,-0.091744,0.148840,1.198528,-1.680000,3.360000,-3.360000
46.398512,-0.005856,0.011224,1.156072,-2.240000,-1.120000,-2.100000
46.406599,-0.038064,0.048312,1.343952,-0.980000,0.420000,-3.220000
46.414687,-0.099552,0.099552,1.444480,-0.560000,-0.980000,-0.700000
46.422774,0.026352,0.055632,1.386408,2.380000,1.680000,-2.240000
46.430861,-0.077104,0.021472,1.294664,0.700000,-1.260000,-0.420000
46.438949,-0.022448,0.117120,1.501088,-0.840000,2.800000,-1.260000
46.447036,-0.050264,0.064904,1.406416,2.380000,2.660000,-1.260000
46.455123,-0.029768,0.060512,1.259040,0.840000,1.260000,-2.380000
46.463210,-0.109312,0.054656,1.407880,0.280000,-4.060000,-0.560000
46.471298,0.042944,0.066368,1.339560,2.520000,2.240000,-0.980000
46.479385,-0.049288,0.084424,1.202920,0.980000,5.040000,-2.380000
46.487472,-0.168848,0.058072,1.165344,0.420000,-5.320000,1.960000
46.495559,0.179584,0.045384,1.067744,2.660000,1.400000,0.280000
46.503647,-0.219112,0.104920,1.192184,-0.280000,3.220000,-2.380000
46.511734,0.127856,-0.026352,0.880352,2.660000,2.100000,0.980000
46.519821,-0.161040,0.187392,1.077504,-0.980000,-0.700000,-2.100000
46.527909,0.090280,-0.082472,0.774944,2.520000,0.140000,0.700000
46.535996,-0.107848,0.171288,1.021872,0.840000,1.400000,-2.660000
46.544083,-0.013176,0.000976,0.778848,0.840000,1.820000,-1.400000
46.552170,0.021472,0.025376,0.796416,0.280000,0.700000,-0.980000
46.560258,-0.111752,0.118584,0.862784,0.840000,-0.140000,0.280000
46.568345,0.025376,0.020008,0.791536,1.120000,2.800000,-2.380000
46.576432,0.000976,0.014640,0.785192,0.980000,-0.840000,-0.280000
46.584519,-0.059048,0.083936,0.812032,-0.560000,3.500000,-0.700000
46.592607,-0.037088,0.075640,0.793000,0.980000,0.280000,-0.980000
46.600694,0.067832,-0.026352,0.736392,1.680000,0.980000,-0.700000
46.608781,-0.075640,0.079056,0.797392,-1.400000,4.340000,-0.840000
46.616869,-0.079056,0.085888,0.774456,1.120000,-0.280000,-0.840000
46.624956,0.061488,0.016592,0.716384,1.400000,0.140000,-0.980000
46.633043,-0.044896,0.009272,0.678808,0.840000,3.360000,-0.560000
46.641130,-0.070272,0.085400,0.711016,0.700000,-0.700000,0.140000
46.649218,0.020496,0.090280,0.747128,0.700000,0.280000,-1.820000
46.657305,-0.027328,0.011712,0.714432,0.420000,2.940000,-0.840000
46.665392,-0.005856,0.000976,0.666120,1.260000,-1.680000,-0.420000
46.673480,-0.027816,0.083936,0.720288,0.840000,2.100000,-0.840000
46.681567,-0.078080,0.081008,0.759328,1.120000,1.960000,-1.260000
46.689654,0.036600,0.017568,0.744688,2.240000,-0.840000,-0.420000
46.697741,-0.003416,0.007808,0.717360,0.140000,1.400000,-0.280000
46.705829,-0.089304,0.120048,0.848632,1.540000,-0.840000,-1.680000
46.713916,0.015128,0.039528,0.877912,0.980000,3.080000,-1.820000
46.722003,-0.013664,-0.010736,0.824232,0.280000,-1.680000,1.120000
46.730090,-0.076616,0.127856,1.046272,3.080000,-0.980000,-1.120000
46.738178,0.080032,-0.019032,0.964776,1.120000,3.080000,-1.680000
46.746265,-0.187880,0.124440,1.090680,-0.840000,-2.520000,0.840000
46.754352,0.133224,0.015128,1.150704,2.100000,2.660000,-3.500000
46.762440,-0.209352,0.087352,1.210240,-2.240000,-3.640000,0.000000
46.770527,0.125904,0.002440,1.275144,4.480000,2.240000,-3.360000
46.778614,-0.203984,0.226920,1.229760,-4.760000,-1.820000,0.980000
46.786701,0.113216,-0.158112,1.326384,1.540000,2.100000,-1.260000
46.794789,-0.160064,0.232776,1.426912,3.640000,0.140000,-1.400000
46.802876,0.060512,0.056608,1.212192,-5.180000,-1.540000,-1.540000
46.810963,-0.106872,-0.064904,1.494744,3.780000,1.260000,-1.260000
46.819050,-0.076616,0.189344,1.308816,0.700000,0.980000,0.700000
46.827138,0.089792,0.092720,1.278560,-3.220000,1.400000,-2.940000
46.835225,-0.130784,-0.066856,1.449848,1.540000,1.680000,-2.520000
46.843312,-0.124440,0.164456,1.252208,0.840000,-1.400000,-0.420000
46.851400,0.119560,0.059536,1.171688,-1.120000,-0.840000,-1.960000
46.859487,-0.115168,-0.010248,1.300032,2.240000,5.460000,-1.260000
46.867574,-0.090280,0.179584,1.028216,0.000000,-2.240000,0.420000
46.875661,0.123464,-0.088328,1.017968,2.940000,1.540000,-2.660000
46.883749,-0.252296,0.210328,1.035048,-0.280000,0.700000,1.260000
46.891836,0.214720,-0.088816,0.776896,1.820000,4.060000,-3.780000
46.899923,-0.231312,0.128344,0.932080,0.560000,-0.140000,1.820000
46.908011,0.088328,0.048312,0.748592,0.980000,1.260000,-2.520000
46.916098,-0.028304,0.038552,0.820816,2.100000,0.560000,-0.560000
46.924185,-0.054656,0.022448,0.776408,-0.140000,2.800000,-0.980000
46.932272,-0.105896,0.111752,0.873520,1.400000,-0.140000,-1.960000
46.940360,0.050752,0.003416,0.726144,1.960000,-1.400000,0.000000
46.948447,-0.050752,0.034160,0.899384,1.960000,-0.280000,-0.420000
46.956534,-0.060512,0.128344,0.959896,0.980000,1.400000,-1.960000
46.964621,0.014640,-0.027328,0.989176,1.960000,-2.240000,-1.680000
46.972709,-0.108336,0.173728,1.133624,-1.960000,2.660000,-2.660000
46.980796,0.028304,-0.100528,1.141920,2.940000,0.280000,-1.400000
46.988883,-0.145424,0.277184,1.313696,-1.540000,0.140000,-1.680000
46.996971,0.060512,-0.155184,1.292224,1.120000,1.120000,-1.820000
47.005058,-0.171776,0.170800,1.545008,4.620000,3.500000,-2.660000
47.013145,-0.069296,0.157624,1.354200,-2.800000,-4.060000,-1.120000
47.021232,0.018056,-0.001464,1.514264,-0.420000,1.820000,-1.680000
47.029320,-0.121024,-0.016104,1.540616,2.660000,1.400000,-1.820000
47.037407,-0.101992,0.103456,1.518656,1.820000,-0.700000,-0.980000
47.045494,-0.024400,0.167872,1.485472,-0.980000,-1.400000,-1.400000
47.053581,-0.033184,0.092720,1.533784,-1.540000,5.460000,-3.780000
47.061669,-0.138592,-0.058072,1.398120,2.380000,2.520000,-1.540000
47.069756,-0.067344,0.053680,1.426912,3.920000,-2.940000,1.680000
47.077843,-0.055144,0.251320,1.367376,-1.960000,3.640000,-0.560000
47.085931,-0.039040,-0.028792,1.178520,-0.980000,0.700000,-0.840000
47.094018,-0.036600,-0.034648,1.369328,5.600000,-1.260000,-1.120000
47.102105,-0.142496,0.283528,1.143872,-3.080000,1.680000,-0.700000
47.110192,0.076128,-0.178120,0.997472,1.400000,0.840000,-0.280000
47.118280,-0.212768,0.253760,1.172664,2.660000,1.120000,0.280000
47.126367,0.148352,-0.092720,0.700768,-0.280000,-1.540000,-0.840000
47.134454,-0.186904,0.164456,1.040416,0.280000,3.360000,-1.120000
47.142542,0.055632,-0.023912,0.728584,0.420000,1.260000,0.420000
47.150629,-0.055632,0.051240,0.847656,0.560000,1.680000,0.420000
47.158716,-0.080032,0.110288,0.862296,-0.420000,1.680000,-1.960000
47.166803,0.006344,-0.007320,0.769576,-0.140000,1.960000,-1.400000
47.174891,0.007808,0.037088,0.889136,0.000000,-2.100000,0.140000
47.182978,-0.139568,0.119072,1.031144,-0.700000,2.940000,-1.540000
47.191065,0.034648,-0.070760,0.949160,1.400000,0.140000,-0.280000
47.199152,-0.153232,0.210328,1.207312,1.680000,0.560000,0.280000
47.207240,0.087840,-0.122976,0.978440,0.980000,-1.400000,-0.420000
47.215327,-0.123952,0.227408,1.367376,1.120000,0.840000,-1.540000
47.223414,0.015128,-0.018056,1.035048,-3.080000,2.940000,-1.960000
47.231502,-0.140056,0.001464,1.362496,3.640000,-1.400000,-1.260000
47.239589,-0.014152,0.223992,1.269288,-0.840000,-3.640000,0.420000
47.247676,0.021960,-0.129808,1.195112,1.680000,7.420000,-3.640000
47.255763,-0.235216,0.187392,1.297592,1.960000,-3.080000,1.260000
47.263851,0.158600,0.061976,1.014064,-1.680000,0.140000,-1.120000
47.271938,-0.178120,-0.029280,1.240984,1.820000,3.500000,-0.840000
47.280025,0.065880,0.153232,0.819840,1.820000,0.700000,-0.280000
47.288113,-0.121512,-0.010736,1.046760,0.700000,3.220000,-3.640000
47.296200,0.051728,0.043432,0.721752,1.120000,-1.680000,1.960000
47.304287,-0.113704,0.093208,0.905728,0.840000,4.200000,-2.380000
47.312374,-0.002928,0.000488,0.647576,1.400000,0.280000,-0.560000
47.320462,0.040504,0.025864,0.573888,-0.140000,2.100000,-1.540000
47.328549,-0.073200,0.051728,0.553392,1.680000,-1.400000,0.420000
47.336636,0.023424,0.037576,0.535336,1.120000,3.220000,-1.260000
47.344723,-0.061000,0.053680,0.533872,1.120000,2.380000,-0.700000
47.352811,-0.016104,0.051240,0.490928,0.420000,0.840000,-0.420000
47.360898,-0.004880,0.051240,0.494344,1.680000,0.000000,-1.540000
47.368985,-0.031232,0.042456,0.510448,-0.420000,2.380000,-1.540000
47.377073,-0.029768,0.019032,0.550464,1.400000,-0.980000,-1.400000
47.385160,0.001464,0.020496,0.688568,1.820000,1.960000,-1.820000
47.393247,0.004880,-0.000488,0.646112,0.980000,2.520000,-1.540000
47.401334,-0.022448,0.034648,0.792024,2.940000,-1.680000,-0.420000
47.409422,-0.143960,0.129808,1.046760,-0.140000,1.960000,-1.960000
47.417509,0.081496,-0.020008,0.963800,0.700000,-0.280000,-2.240000
47.425596,-0.126880,0.101992,1.284416,0.980000,-3.360000,-0.280000
47.433684,0.106872,0.007320,1.150216,1.260000,6.860000,-4.060000
47.441771,-0.282064,0.101992,1.446920,-0.280000,-1.120000,-1.260000
47.449858,0.099064,0.026352,1.301984,2.660000,-2.800000,0.700000
47.457945,-0.032696,0.055632,1.346880,-1.960000,7.000000,-2.520000
47.466033,-0.079056,0.093696,1.448872,-0.420000,-7.560000,-1.960000
47.474120,-0.068320,0.047336,1.403000,-0.980000,3.500000,-1.820000
47.482207,-0.021960,0.020008,1.307352,0.980000,-1.820000,0.280000
47.490294,-0.021960,0.117120,1.383480,-0.140000,1.820000,-1.400000
47.498382,-0.105896,0.047336,1.249280,-0.700000,-1.960000,-0.420000
47.506469,0.056120,0.016592,1.125816,2.520000,3.360000,-1.540000
47.514556,-0.163968,0.128832,1.047736,-2.660000,2.100000,0.000000
47.522644,0.080520,-0.059536,0.875960,4.480000,1.540000,0.000000
47.530731,-0.131760,0.156160,0.878400,-0.420000,0.700000,-0.280000
47.538818,0.028304,-0.002440,0.676856,0.420000,1.960000,-2.240000
47.546905,0.012688,0.019520,0.682712,0.700000,1.120000,-0.420000
47.554993,-0.020008,0.030744,0.570960,1.120000,1.260000,1.540000
47.563080,-0.050752,0.033184,0.621224,1.260000,0.700000,-0.420000
47.571167,-0.037088,0.072224,0.596336,0.980000,-2.520000,-1.260000
47.579255,-0.009272,0.047336,0.630984,0.000000,2.800000,-2.940000
47.587342,-0.047824,0.036600,0.635376,0.420000,0.700000,-0.980000
47.595429,0.048312,0.020984,0.700768,1.960000,-0.700000,-0.840000
47.603516,-0.019032,-0.012688,0.718824,0.420000,3.640000,-0.420000
47.611604,-0.106384,0.083936,0.826184,1.400000,-2.800000,-0.560000
47.619691,-0.008784,0.074176,0.962824,2.240000,0.140000,-1.260000
47.627778,-0.013176,-0.032696,0.941840,0.840000,-2.520000,0.280000
47.635865,-0.073200,0.140056,1.164856,1.400000,-0.700000,-2.380000
47.643953,0.020984,-0.046360,1.038952,0.840000,1.680000,-2.100000
47.652040,-0.168360,0.167872,1.192672,0.840000,-0.840000,-1.540000
47.660127,0.131760,-0.071248,1.110688,0.700000,-0.140000,-2.380000
47.668215,-0.257664,0.192272,1.229272,-0.560000,2.940000,-1.120000
47.676302,0.146400,-0.069784,1.062376,-0.280000,-2.100000,-1.820000
47.684389,-0.214720,0.143472,1.288320,1.960000,0.980000,-2.100000
47.692476,0.111752,-0.005368,0.867664,-1.960000,1.540000,-0.980000
47.700564,-0.203984,0.099064,1.207800,2.940000,2.940000,-2.940000
47.708651,0.095160,-0.029280,0.664656,-1.540000,-2.520000,1.960000
47.716738,-0.168360,0.180560,1.079456,1.540000,4.340000,-3.780000
47.724826,0.029280,-0.089792,0.525576,-0.420000,0.420000,1.120000
47.732913,0.009272,0.080520,0.701256,0.840000,0.280000,-0.840000
47.741000,-0.095648,0.042456,0.640744,0.140000,2.660000,0.420000
47.749087,-0.001464,0.047824,0.527040,-0.700000,4.060000,-2.240000
47.757175,-0.068320,0.056120,0.481168,1.820000,0.140000,-0.280000
47.765262,0.028792,0.006344,0.429928,0.000000,0.980000,-1.400000
47.773349,-0.055632,0.045872,0.422608,-0.140000,3.640000,-0.700000
47.781436,-0.026352,0.033672,0.422608,1.820000,0.280000,-0.560000
47.789524,-0.008296,0.019032,0.437248,0.980000,2.380000,-0.700000
47.797611,-0.051728,0.042944,0.493368,1.260000,0.140000,-0.420000
47.805698,-0.019032,0.035136,0.538752,1.400000,-0.560000,-0.700000
47.813786,-0.034160,0.040016,0.643184,1.400000,0.560000,-1.400000
47.821873,-0.020008,0.012200,0.651480,1.680000,-0.280000,-0.980000
47.829960,0.015128,-0.035624,0.750544,2.240000,-2.520000,-0.420000
47.838047,-0.079544,0.112240,0.858880,1.680000,0.980000,-0.280000
47.846135,-0.085400,0.049776,0.999912,2.800000,1.680000,-1.960000
47.854222,0.043432,-0.008784,0.912560,1.960000,-0.280000,0.140000
47.862309,-0.149328,0.127368,1.259040,1.260000,0.840000,-1.540000
47.870396,0.069784,0.000976,0.966240,0.280000,0.840000,-1.540000
47.878484,-0.162016,0.069784,1.395192,-0.140000,0.280000,-2.100000
47.886571,0.000000,0.078568,1.243912,-0.700000,0.140000,0.000000
47.894658,-0.017568,0.034160,1.249280,0.000000,1.400000,-3.080000
47.902746,-0.138592,0.068320,1.384944,-0.980000,0.280000,0.280000
47.910833,0.007320,0.055632,1.286368,0.980000,3.780000,-0.560000
47.918920,-0.077104,0.060512,1.203408,-1.540000,-2.100000,1.540000
47.927007,-0.012200,0.035624,1.315648,0.420000,-0.420000,-0.840000
47.935095,-0.008296,0.084424,1.188768,0.560000,4.900000,-0.980000
47.943182,-0.147864,0.088328,1.083848,-3.780000,0.280000,-0.840000
47.951269,0.085888,-0.063928,1.027240,3.360000,2.240000,1.540000
47.959357,-0.161040,0.208864,1.028216,-2.240000,3.920000,-1.820000
47.967444,0.114680,-0.110776,0.779336,3.080000,0.280000,0.700000
47.975531,-0.128344,0.167384,0.926224,-2.520000,1.960000,0.140000
47.983618,-0.006344,0.013664,0.769576,1.540000,0.700000,-0.980000
47.991706,0.065392,0.006832,0.701256,1.120000,4.060000,-1.400000
47.999793,-0.081984,0.052704,0.703208,1.120000,-2.520000,2.100000
48.007880,-0.024888,0.084424,0.784704,0.980000,1.820000,-1.400000
48.015967,-0.059536,0.043920,0.777384,0.980000,1.680000,-1.540000
48.024055,0.074664,-0.020496,0.748104,1.400000,-1.260000,-0.840000
48.032142,-0.047336,0.068320,0.875472,1.540000,-0.560000,0.140000
48.040229,-0.125904,0.080032,1.001376,1.540000,-1.260000,-1.820000
48.048317,0.109312,0.014640,0.950136,1.960000,-1.120000,-0.700000
48.056404,-0.167872,0.060024,1.142408,0.980000,0.000000,0.980000
48.064491,0.093696,0.086376,1.093608,1.540000,1.680000,-1.820000
48.072578,-0.146400,0.034648,1.209264,-2.940000,-1.400000,-0.980000
48.080666,0.034648,0.034648,1.178032,3.220000,3.640000,-0.980000
48.088753,-0.113704,0.145424,1.250744,-2.380000,-3.220000,-0.980000
48.096840,0.047824,-0.077104,1.192184,1.260000,2.240000,-1.400000
48.104928,-0.085888,0.172752,1.254648,-3.360000,-0.420000,-1.540000
48.113015,0.021960,-0.041968,1.293200,1.960000,3.220000,-2.520000
48.121102,-0.193248,0.155672,1.235616,-0.420000,-2.240000,-0.420000
48.129189,0.143960,-0.094184,1.235616,2.240000,1.120000,-0.700000
48.137277,-0.196664,0.258640,1.315648,1.540000,2.660000,-2.240000
48.145364,0.082960,-0.131272,1.030168,-1.820000,-1.260000,-0.980000
48.153451,-0.130784,0.168360,1.303936,4.200000,4.620000,-1.680000
48.161538,0.033184,0.000976,0.803248,-1.120000,-0.140000,0.420000
48.169626,-0.076128,0.070272,1.094096,3.080000,1.540000,-1.960000
48.177713,0.070760,0.037088,0.669048,-0.840000,5.180000,0.000000
48.185800,-0.128344,0.042456,0.769576,1.120000,-0.700000,-0.700000
48.193888,-0.004392,0.072712,0.680272,-0.560000,0.840000,-1.540000
48.201975,-0.017568,0.017080,0.577792,0.140000,4.620000,-1.820000
48.210062,-0.004392,0.018544,0.509472,2.100000,-1.400000,-0.700000
48.218149,-0.007808,0.053192,0.471896,0.840000,4.620000,-1.260000
48.226237,-0.056120,0.029768,0.426024,1.120000,0.140000,-0.560000
48.234324,0.016592,0.040016,0.492392,1.540000,-0.700000,-1.120000
48.242411,-0.039040,0.033184,0.431880,0.560000,4.620000,-1.400000
48.250498,-0.020984,0.029768,0.421144,1.260000,-0.700000,-0.280000
48.258586,0.002440,0.035136,0.462624,0.140000,0.140000,-0.700000
48.266673,-0.026352,0.030256,0.501664,0.280000,0.560000,-0.980000
48.274760,-0.026352,0.040504,0.544608,0.980000,-0.420000,-0.700000
48.282848,0.012688,0.039040,0.623176,1.820000,-1.400000,-1.680000
48.290935,-0.023912,0.017080,0.695400,1.400000,2.100000,-1.680000
48.299022,0.018056,-0.020984,0.671000,2.100000,0.140000,-1.400000
48.307109,-0.050752,0.073200,0.824232,1.680000,0.700000,0.140000
48.315197,-0.107360,0.083448,0.957456,1.540000,0.140000,-1.960000
48.323284,0.104920,-0.003904,0.952088,1.120000,-2.380000,-2.940000
48.331371,-0.148352,0.073688,1.090192,1.120000,-0.140000,-0.700000
48.339459,0.015616,0.054656,1.173152,1.820000,2.100000,-2.800000
48.347546,-0.157624,0.069296,1.214144,0.000000,-5.460000,0.840000
48.355633,0.146400,0.005856,1.211704,0.840000,5.320000,-3.220000
48.363720,-0.243024,0.162016,1.328336,-2.240000,-1.540000,-0.280000
48.371808,0.083936,-0.037088,1.201456,-0.280000,0.840000,-1.120000
48.379895,-0.115656,0.111264,1.388848,-0.560000,-0.840000,-0.700000
48.387982,0.059048,0.035624,1.336632,0.000000,4.060000,-2.660000
48.396069,-0.145424,0.099064,1.306864,-0.980000,0.420000,-0.840000
48.404157,0.021472,0.051728,1.255624,-3.500000,-2.380000,-1.260000
48.412244,-0.024888,-0.008296,1.369816,3.780000,5.320000,-2.800000
48.420331,-0.134200,0.194224,1.094096,-1.960000,1.120000,0.280000
48.428419,0.060512,-0.081496,1.142408,-0.140000,-3.500000,-0.420000
48.436506,-0.051728,0.165920,1.090192,0.980000,7.140000,-0.980000
48.444593,0.004392,-0.040992,0.814960,-1.260000,-1.260000,-0.560000
48.452680,-0.114680,0.144448,1.001376,2.520000,1.680000,-0.420000
48.460768,0.077104,-0.023912,0.709552,0.560000,-0.140000,-1.400000
48.468855,-0.042456,0.053192,0.769576,0.700000,-0.280000,0.000000
48.476942,-0.074176,0.109312,0.765184,0.280000,1.680000,-1.820000
48.485030,0.012200,0.031232,0.764208,2.380000,1.260000,-1.260000
48.493117,0.017080,-0.016104,0.669048,1.260000,0.420000,0.280000
48.501204,-0.005368,0.060024,0.772016,0.840000,-1.960000,-0.980000
48.509291,-0.107848,0.106384,0.854488,0.280000,5.180000,-2.520000
48.517379,0.000488,0.009272,0.856440,1.960000,-1.960000,-2.380000
48.525466,0.017568,-0.007320,0.898408,4.060000,0.140000,-0.700000
48.533553,-0.139568,0.111264,1.077016,8.680000,0.280000,-1.820000
48.541640,0.103456,-0.053680,0.962824,16.660000,-1.960000,-2.100000
48.549728,-0.156160,0.142984,1.034560,10.780000,1.820000,0.840000
48.557815,0.059536,0.035624,1.103368,9.660000,-0.980000,-2.940000
48.565902,-0.131272,0.059048,1.135576,7.980000,-1.400000,0.140000
48.573990,0.041480,0.035624,1.201456,15.400000,-0.840000,-3.360000
48.582077,-0.142496,0.129808,1.195112,10.500000,-2.800000,0.700000
48.590164,0.131760,-0.042456,1.183400,11.340000,10.500000,-4.760000
48.598251,-0.301096,0.214720,1.390312,9.380000,-3.920000,0.280000
48.606339,0.156648,-0.129808,1.167784,12.880000,-0.420000,0.140000
48.614426,-0.158112,0.182512,1.449360,9.660000,1.400000,-0.840000
48.622513,-0.029280,0.112240,1.302960,8.540000,0.840000,-1.260000
48.630600,-0.075152,-0.019520,1.282464,6.860000,-1.260000,-0.840000
48.638688,-0.026840,0.118584,1.399584,2.520000,-0.560000,0.280000
48.646775,-0.055144,0.072224,1.358104,2.940000,4.060000,-0.980000
48.654862,-0.086376,0.094184,1.275632,0.420000,0.280000,0.560000
48.662950,-0.047824,0.085400,1.309792,-9.660000,1.260000,0.980000
48.671037,0.008784,0.006344,1.406904,-1.400000,2.520000,-0.980000
48.679124,-0.089304,0.120536,1.199016,1.680000,1.540000,-0.420000
48.687211,-0.070760,0.040992,1.201456,-4.760000,-5.180000,0.420000
48.695299,0.064416,0.040504,1.268312,-0.700000,7.140000,-0.840000
48.703386,-0.181536,0.122976,1.118984,-2.380000,-2.100000,-0.700000
48.711473,0.047336,-0.054168,1.129232,1.680000,-1.680000,2.940000
48.719561,-0.038064,0.203008,1.108248,-0.560000,3.500000,-2.520000
48.727648,-0.035136,-0.094672,1.032608,-0.280000,-1.400000,2.100000
48.735735,-0.016104,0.178608,1.078968,-0.420000,5.460000,-3.500000
48.743822,-0.043432,-0.057584,0.990640,3.080000,-5.040000,2.940000
48.751910,-0.023912,0.181536,1.104832,-0.280000,4.620000,-3.220000
48.759997,0.010736,-0.064904,0.922320,2.520000,0.140000,0.980000
48.768084,-0.087840,0.166896,1.140456,-0.840000,2.660000,-1.680000
48.776171,0.033184,-0.050264,0.970632,1.260000,-1.120000,1.120000
48.784259,-0.099064,0.167872,1.260992,3.080000,-0.700000,-0.560000
48.792346,0.099064,-0.065392,1.061400,6.020000,1.820000,-1.960000
48.800433,-0.162016,0.168360,1.356152,7.700000,1.540000,-0.840000
48.808521,0.120048,0.000000,1.024312,7.140000,3.500000,-2.520000
48.816608,-0.252296,0.100528,1.478640,9.100000,-2.240000,-0.560000
48.824695,0.166408,0.067832,1.170712,7.700000,1.820000,-0.420000
48.832782,-0.127856,0.065392,1.454728,6.720000,2.660000,-2.240000
48.840870,-0.152744,0.114192,1.385920,11.760000,-3.640000,2.240000
48.848957,0.130296,0.016104,1.405440,12.600000,2.940000,-3.780000
48.857044,-0.156160,0.061488,1.573312,9.520000,2.240000,-3.080000
48.865131,-0.069784,0.197152,1.604544,8.680000,-4.060000,-2.100000
48.873219,-0.092232,0.101992,1.679696,8.820000,1.120000,-2.380000
48.881306,-0.107848,0.006344,1.516704,11.900000,1.680000,-1.540000
48.889393,-0.023424,0.071248,1.496696,6.440000,-4.620000,-1.120000
48.897481,-0.056120,0.108824,1.666032,1.540000,0.840000,-2.940000
48.905568,-0.122488,0.093696,1.718736,3.640000,-0.420000,-3.080000
48.913655,-0.101504,0.099064,1.719712,3.080000,-0.840000,-0.980000
48.921742,-0.151768,0.090768,1.590880,1.120000,-1.820000,-0.980000
48.929830,-0.064416,0.110288,1.631872,-2.240000,0.000000,-1.400000
48.937917,-0.104432,0.095160,1.559160,-3.500000,0.420000,-1.820000
48.946004,-0.004880,0.117120,1.616256,-0.280000,-1.260000,-1.540000
48.954092,-0.106384,0.076128,1.606008,-2.940000,4.060000,-1.820000
48.962179,-0.126392,0.027816,1.595760,-0.560000,-0.980000,-1.960000
48.970266,-0.130296,0.073688,1.524024,0.420000,0.140000,-0.980000
48.978353,-0.052216,0.164456,1.366888,0.000000,0.560000,-1.260000
48.986441,-0.017568,0.093208,1.362008,-2.800000,1.540000,-2.380000
48.994528,-0.103456,-0.001464,1.435696,0.840000,0.700000,-2.380000
49.002615,-0.113216,0.089792,1.307352,3.220000,-1.680000,0.280000
49.010702,-0.037576,0.193736,1.208288,0.280000,3.500000,-1.680000
49.018790,-0.061000,-0.057096,1.226344,1.540000,3.780000,-1.960000
49.026877,-0.065880,0.122488,1.212192,4.760000,0.840000,-0.700000
49.034964,-0.110776,0.182024,1.082384,-3.080000,-1.540000,-0.280000
49.043052,0.021472,-0.109312,1.181936,4.620000,5.600000,-0.980000
49.051139,-0.170800,0.274256,1.073112,0.840000,1.540000,-0.420000
49.059226,0.056608,-0.129320,1.015528,0.420000,-3.780000,0.840000
49.067313,-0.106384,0.227896,1.189256,2.520000,3.780000,-0.280000
49.075401,0.010248,-0.018056,0.944280,-0.700000,0.700000,-0.980000
49.083488,-0.075152,0.133224,1.162904,3.360000,5.880000,-2.380000
49.091575,-0.108824,0.066368,0.960384,-4.760000,-0.980000,1.540000
49.099663,0.051728,0.036112,1.133136,5.320000,0.700000,-0.280000
49.107750,-0.140056,0.161528,1.032120,-5.320000,0.840000,-0.140000
49.115837,0.070760,-0.030256,1.059448,4.760000,5.600000,-2.240000
49.123924,-0.206912,0.196176,1.053592,-3.500000,-5.320000,1.400000
49.132012,0.149328,-0.083936,1.036024,3.360000,7.280000,-0.840000
49.140099,-0.248392,0.230336,1.075064,-3.080000,-3.920000,-0.140000
49.148186,0.178120,-0.097600,1.051640,4.340000,3.780000,-1.400000
49.156274,-0.281576,0.248880,1.003328,-4.620000,-0.280000,0.840000
49.164361,0.201056,-0.100040,0.983320,5.320000,-0.560000,0.420000
49.172448,-0.230336,0.208376,1.030656,-4.480000,5.180000,-1.400000
49.180535,0.107848,-0.050264,0.958920,5.040000,0.840000,-2.240000
49.188623,-0.186416,0.139568,0.901336,-4.060000,-1.680000,0.420000
49.196710,0.069784,0.056120,1.004304,3.920000,3.920000,-0.840000
49.204797,-0.082472,0.010248,0.845216,-0.840000,3.500000,0.560000
49.212884,-0.106872,0.146888,0.925248,2.240000,0.140000,-2.240000
49.220972,0.048312,-0.005368,0.776408,0.000000,3.500000,-0.560000
49.229059,-0.122488,0.086376,0.813496,0.140000,1.260000,0.560000
49.237146,-0.031232,0.075640,0.835944,1.820000,1.260000,-2.240000
49.245234,0.034160,0.010248,0.657824,-0.560000,3.360000,0.000000
49.253321,-0.045384,0.059048,0.699304,0.840000,-3.080000,0.840000
49.261408,-0.107360,0.097112,0.768112,-0.140000,3.640000,-0.980000
49.269495,-0.006832,0.038064,0.667096,1.260000,-1.120000,-2.660000
49.277583,0.010248,0.013664,0.653920,0.700000,0.420000,-0.700000
49.285670,-0.038552,0.027816,0.621224,0.560000,-0.700000,-0.140000
49.293757,-0.036600,0.075640,0.679784,0.280000,0.420000,-0.560000
49.301845,-0.090280,0.090768,0.679296,0.700000,1.120000,-1.260000
49.309932,-0.025864,0.026840,0.724680,1.260000,-0.980000,-1.540000
49.318019,0.026840,0.010248,0.608536,0.980000,-0.140000,-0.280000
49.326106,0.002928,0.038064,0.663680,1.260000,-2.100000,-0.280000
49.334194,-0.103944,0.077104,0.714432,0.700000,5.180000,-0.420000
49.342281,-0.049776,0.073200,0.691984,2.100000,-2.520000,-1.400000
49.350368,0.026352,0.045872,0.776408,0.700000,0.980000,-2.240000
49.358455,-0.052216,0.017568,0.687104,0.000000,1.960000,-1.260000
49.366543,-0.047824,0.050264,0.725656,1.960000,-1.680000,0.140000
49.374630,-0.053192,0.079544,0.746152,0.280000,2.940000,-1.120000
49.382717,-0.018056,0.055144,0.744688,0.280000,-0.280000,-1.120000
49.390805,0.014640,0.015616,0.738344,1.400000,-0.560000,-1.400000
49.398892,-0.068808,0.039528,0.756888,1.120000,2.940000,-1.680000
49.406979,-0.090768,0.081496,0.772016,0.840000,0.280000,-1.260000
49.415066,-0.000488,0.065880,0.822768,0.700000,0.140000,-1.820000
49.423154,0.003416,0.003904,0.742736,0.700000,1.680000,-1.540000
49.431241,-0.074664,0.061488,0.803736,1.120000,0.280000,-1.120000
49.439328,-0.085888,0.098576,0.834968,0.560000,-0.560000,-1.260000
49.447416,0.006344,0.012200,0.829112,1.120000,-0.420000,-0.700000
49.455503,-0.030256,0.029280,0.802760,1.260000,0.560000,-0.980000
49.463590,-0.086864,0.122488,0.917440,0.840000,0.700000,-2.520000
49.471677,-0.030744,-0.000976,0.814960,0.980000,-0.980000,-1.680000
49.479765,0.007808,0.043920,0.854488,1.400000,-3.220000,-0.980000
49.487852,-0.119560,0.121512,0.943304,0.000000,5.600000,-2.380000
49.495939,-0.013664,-0.016104,0.808128,2.240000,0.140000,-1.120000
49.504027,-0.013664,0.071736,0.868640,0.700000,-2.100000,0.700000
49.512114,-0.103456,0.094184,0.947208,-0.140000,1.960000,-1.820000
49.520201,0.044408,-0.021960,0.815936,1.540000,-0.280000,-2.100000
49.528288,-0.102968,0.086864,0.887672,-0.280000,0.980000,-0.420000
49.536376,-0.107848,0.079544,0.972584,0.140000,0.000000,-1.960000
49.544463,0.050264,-0.019520,0.782264,2.100000,-0.280000,-0.420000
49.552550,-0.133712,0.123952,0.964776,0.420000,-0.280000,-0.840000
49.560637,-0.032696,0.052704,0.892064,0.420000,3.080000,-2.100000
49.568725,0.015128,-0.007808,0.774944,-0.140000,-0.280000,0.420000
49.576812,-0.113704,0.120048,1.028216,0.560000,1.260000,-1.960000
49.584899,0.013176,0.009272,0.865712,1.260000,3.920000,-3.780000
49.592987,-0.081984,0.042944,0.839360,0.700000,-2.520000,0.140000
49.601074,-0.114192,0.102968,0.974536,-0.280000,-1.960000,-2.100000
49.609161,0.096624,0.002440,0.852048,2.380000,-2.800000,-0.840000
49.617248,-0.148840,0.062464,0.923296,-0.140000,0.980000,-0.280000
49.625336,-0.031232,0.078080,0.934032,0.980000,-0.840000,-1.960000
49.633423,-0.016592,0.000488,0.857416,2.100000,-6.580000,0.980000
49.641510,-0.126392,0.109312,1.007720,0.560000,-0.560000,-2.520000
49.649598,0.050752,0.035624,0.869128,0.840000,0.420000,-1.540000
49.657685,-0.123952,0.014640,0.967216,1.120000,-5.180000,0.840000
49.665772,-0.058072,0.122488,1.022848,0.700000,-1.120000,-2.380000
49.673859,0.007808,-0.029280,0.994056,1.540000,-2.660000,0.700000
49.681947,-0.129808,0.150304,1.112152,0.420000,1.820000,-1.260000
49.690034,0.032208,-0.059536,1.054080,3.500000,0.700000,0.840000
49.698121,-0.159088,0.224480,1.130696,-0.420000,-0.420000,-0.980000
49.706208,0.103944,-0.149328,1.073112,2.660000,1.120000,-2.100000
49.714296,-0.217648,0.283528,1.165832,-2.520000,0.980000,-1.960000
49.722383,0.048312,-0.183000,1.081408,1.540000,0.980000,0.000000
49.730470,-0.147864,0.339160,1.260992,1.400000,0.000000,-0.980000
49.738558,0.081496,-0.226920,1.085800,-1.960000,2.100000,-1.960000
49.746645,-0.221064,0.279624,1.319552,1.400000,-0.700000,-0.980000
49.754732,0.081008,-0.068320,0.952088,-2.660000,1.120000,-0.420000
49.762819,-0.180560,0.086864,1.366400,3.920000,-0.560000,0.000000
49.770907,0.054168,0.135664,1.028704,-3.780000,-1.820000,-0.980000
49.778994,-0.096136,-0.094672,1.293688,4.200000,2.520000,-3.500000
49.787081,-0.089792,0.274256,1.083848,-2.800000,-0.840000,1.120000
49.795169,0.054656,-0.172264,1.155096,1.260000,2.940000,-4.200000
49.803256,-0.213256,0.268400,1.113616,0.560000,-0.140000,1.400000
49.811343,0.136640,-0.125904,0.938424,0.140000,3.920000,-3.780000
49.819430,-0.249368,0.219112,1.081408,0.280000,-4.620000,3.640000
49.827518,0.153720,-0.064416,0.882304,0.140000,9.520000,-4.620000
49.835605,-0.172264,0.076616,0.852536,1.120000,-2.380000,2.100000
49.843692,-0.011712,0.089304,0.901336,0.980000,3.640000,-2.940000
49.851779,-0.026840,-0.007808,0.790560,0.560000,1.120000,-1.120000
49.859867,0.024888,0.040016,0.749080,0.840000,0.560000,-0.420000
49.867954,-0.118584,0.114192,0.801784,0.980000,4.620000,-0.980000
49.876041,0.000488,0.021960,0.726632,1.260000,0.700000,-1.680000
49.884129,-0.011224,0.000976,0.723216,0.560000,-0.560000,-0.280000
49.892216,-0.024888,0.052704,0.700280,1.120000,1.960000,-0.560000
49.900303,-0.083448,0.086376,0.722240,1.120000,4.200000,-0.980000
49.908390,-0.051240,0.038064,0.742736,0.980000,-0.840000,-1.260000
49.916478,0.021472,0.024888,0.621224,0.560000,1.540000,-0.700000
49.924565,-0.023424,0.004392,0.648552,1.820000,0.700000,-0.140000
49.932652,-0.025376,0.067832,0.620736,2.240000,1.120000,-0.840000
49.940740,-0.087352,0.049776,0.615368,0.140000,2.940000,-0.560000
49.948827,-0.013176,0.043432,0.555832,0.840000,-2.380000,-0.840000
49.956914,-0.005856,0.040016,0.523624,0.280000,2.100000,-0.840000
49.965001,-0.026840,0.023424,0.460184,0.700000,0.980000,-0.980000
49.973089,-0.025864,0.036112,0.484584,0.980000,-1.260000,-0.980000
49.981176,-0.011224,0.033672,0.498736,1.260000,1.680000,-1.400000
49.989263,-0.041480,0.035136,0.468968,0.840000,2.660000,-1.260000
49.997350,-0.020984,0.035136,0.489952,1.260000,0.280000,-0.840000
50.005438,-0.017568,0.036600,0.493856,0.980000,2.100000,-0.980000
50.013525,-0.027816,0.037088,0.494344,0.000000,2.240000,-0.700000
50.021612,-0.009760,0.026840,0.533384,2.100000,0.980000,-1.120000
50.029700,-0.038552,0.035136,0.543632,0.000000,2.100000,-1.120000
50.037787,-0.025376,0.033672,0.574376,1.260000,-0.700000,-0.420000
50.045874,0.012200,0.014152,0.615856,0.980000,-0.140000,-0.560000
50.053961,-0.004392,-0.000976,0.632936,0.980000,0.980000,-0.280000
50.062049,-0.053680,0.033672,0.688080,1.400000,0.420000,0.980000
50.070136,-0.105896,0.084424,0.842776,0.840000,-1.540000,-0.140000
50.078223,-0.009272,0.053192,0.891576,2.660000,-0.560000,-2.100000
50.086311,0.065880,-0.019032,0.819840,2.100000,-1.120000,-0.980000
50.094398,-0.184464,0.100040,1.080920,1.540000,-2.100000,-1.120000
50.102485,0.050752,0.066856,0.981856,2.240000,2.520000,-2.940000
50.110572,-0.080032,-0.043920,1.052128,0.560000,-2.660000,-0.420000
50.118660,-0.054168,0.185440,1.100440,1.540000,2.380000,-2.100000
50.126747,-0.037576,-0.102480,1.002352,-0.840000,-3.360000,0.980000
50.134834,-0.092232,0.246440,1.199504,1.960000,3.640000,-0.840000
50.142922,0.053680,-0.115656,0.949160,-2.380000,-1.540000,-2.660000
50.151009,-0.173240,0.202520,1.306376,0.840000,1.400000,-2.380000
50.159096,0.113216,-0.072224,0.784216,-3.220000,2.520000,-2.660000
50.167183,-0.272304,0.156160,1.314672,2.380000,-4.200000,0.700000
50.175271,0.211792,-0.010248,0.818864,-3.640000,6.720000,-3.920000
50.183358,-0.360144,0.095160,1.165832,2.660000,-5.460000,2.100000
50.191445,0.253272,0.042456,0.942816,-1.540000,3.080000,-3.080000
50.199532,-0.258640,0.025376,1.088240,0.420000,1.820000,0.840000
50.207620,0.053680,0.115656,1.023824,0.420000,0.280000,-3.080000
50.215707,-0.106872,-0.023424,1.118008,0.840000,-2.240000,0.980000
50.223794,-0.008296,0.166408,1.154120,-0.980000,3.920000,-3.360000
50.231882,-0.077104,-0.064416,1.229760,1.400000,-2.940000,-0.700000
50.239969,-0.037576,0.169336,1.270264,2.240000,7.420000,-3.360000
50.248056,-0.127856,0.039528,1.329312,-0.140000,-4.340000,-1.120000
50.256143,-0.045384,-0.000976,1.430816,2.380000,0.700000,0.140000
50.264231,-0.051240,0.168360,1.386408,-3.080000,-2.100000,-0.560000
50.272318,0.023424,0.026352,1.550864,-1.120000,2.940000,-3.500000
50.280405,-0.204472,0.054656,1.661640,1.540000,-2.100000,-1.120000
50.288493,-0.102480,0.094672,1.538176,-0.420000,-1.960000,-0.420000
50.296580,-0.056608,0.096624,1.571848,-0.700000,1.820000,-0.840000
50.304667,0.014152,0.056608,1.636752,-0.980000,1.540000,0.280000
50.312754,-0.030744,0.046360,1.691408,-1.120000,3.780000,-0.560000
50.320842,-0.125904,0.048312,1.714344,0.980000,4.060000,-2.380000
50.328929,-0.149816,0.079056,1.663592,0.280000,-0.840000,-0.560000
50.337016,-0.046848,0.115656,1.716784,-1.260000,-3.640000,0.000000
50.345103,-0.028792,0.124928,1.675792,-1.820000,4.620000,-0.700000
50.353191,-0.058072,0.076616,1.581608,0.420000,2.380000,-1.260000
50.361278,-0.078080,-0.006832,1.572824,-0.420000,0.000000,-1.120000
50.369365,-0.123952,0.001464,1.508896,1.820000,1.400000,-0.140000
50.377453,-0.061976,0.217648,1.355664,1.400000,2.800000,0.980000
50.385540,0.026840,0.039528,1.207312,-1.960000,3.500000,-1.820000
50.393627,-0.102968,-0.065880,1.252208,2.520000,1.260000,0.420000
50.401714,-0.067832,0.236680,1.069696,0.000000,-1.540000,0.980000
50.409802,0.097112,-0.124928,0.916952,2.240000,4.620000,-1.820000
50.417889,-0.246928,0.198616,1.000400,0.700000,-2.520000,1.820000
50.425976,0.176168,-0.016104,0.723216,-0.140000,4.340000,-1.960000
50.434064,-0.142984,0.041968,0.781288,2.940000,-3.220000,2.380000
50.442151,0.032696,0.055144,0.774456,-0.280000,4.200000,-1.960000
50.450238,-0.086864,0.067832,0.743224,-1.260000,0.700000,-1.400000
50.458325,0.051240,0.037576,0.659288,0.980000,2.660000,-0.280000
50.466413,-0.014640,0.006832,0.682712,1.960000,0.700000,0.140000
50.474500,-0.029768,0.038552,0.740296,0.840000,1.120000,-0.700000
50.482587,-0.074664,0.073200,0.765184,-0.140000,4.200000,-1.260000
50.490674,-0.026352,0.071736,0.826184,1.820000,0.140000,-0.840000
50.498762,0.055632,-0.020008,0.819352,1.820000,5.180000,-0.700000
50.506849,-0.079056,0.056608,0.816424,0.280000,-0.980000,0.000000
50.514936,-0.056120,0.099552,1.031144,2.800000,0.980000,-2.100000
50.523024,0.076616,-0.012688,0.883280,1.680000,2.380000,-1.400000
50.531111,-0.149816,0.081984,1.125816,2.520000,-2.800000,-0.700000
50.539198,0.064904,0.080520,1.065792,1.680000,7.000000,-4.340000
50.547285,-0.146888,-0.034648,1.108248,0.420000,-3.780000,0.700000
50.555373,0.055144,0.157136,1.179008,2.240000,0.420000,-1.260000
50.563460,-0.083936,-0.016592,1.170224,-1.400000,-0.140000,-0.420000
50.571547,-0.040992,0.096136,1.196576,4.480000,5.040000,-2.240000
50.579635,-0.049776,0.076616,1.170224,-0.980000,-7.700000,-0.840000
50.587722,0.008784,0.003904,1.235128,2.380000,7.280000,-3.360000
50.595809,-0.109312,0.081008,1.150704,0.280000,-0.140000,-1.400000
50.603896,0.030744,0.040016,1.182912,3.360000,3.920000,-2.100000
50.611984,-0.152256,0.044896,1.095072,-0.420000,-5.600000,0.980000
50.620071,0.138592,0.043432,1.027728,4.200000,7.420000,-2.940000
50.628158,-0.219600,0.072712,0.946232,-2.240000,-4.200000,-0.840000
50.636245,0.111752,0.067832,1.019432,3.500000,2.380000,-1.400000
50.644333,-0.087352,-0.019520,0.821792,-1.400000,-0.560000,0.980000
50.652420,-0.056608,0.123952,0.973072,3.080000,0.980000,-0.560000
50.660507,0.050264,0.014640,0.827160,-0.840000,1.820000,-2.660000
50.668595,-0.023424,0.023424,0.801784,0.560000,0.140000,-0.280000
50.676682,-0.111264,0.067832,0.858392,-1.680000,3.360000,-0.980000
50.684769,0.053680,0.059048,0.892064,0.420000,-1.540000,-0.700000
50.692856,-0.020496,-0.034160,0.846680,3.640000,5.320000,-1.260000
50.700944,-0.115168,0.064416,0.868640,10.500000,-2.100000,-1.680000
50.709031,0.055632,0.065880,0.865712,9.800000,0.140000,-1.960000
50.717118,-0.013176,-0.014152,0.839360,9.380000,3.360000,-0.280000
50.725206,-0.084912,0.039040,0.909632,12.040000,-0.280000,0.420000
50.733293,-0.036600,0.075152,0.995032,14.560000,-0.280000,-0.140000
50.741380,0.041968,-0.043432,0.871568,18.200001,-0.840000,1.260000
50.749467,-0.096624,0.160064,1.085312,17.780001,1.820000,-1.540000
50.757555,0.024888,-0.036600,0.935496,15.120000,3.920000,-1.820000
50.765642,-0.113216,0.105408,1.084824,14.140000,-1.680000,1.260000
50.773729,0.014640,0.015128,1.062376,14.700000,-3.220000,-0.700000
50.781816,-0.009760,0.020008,1.100440,16.520000,1.260000,1.680000
50.789904,-0.063440,0.134688,1.092632,12.180000,3.640000,-3.500000
50.797991,-0.054168,-0.072224,1.050176,13.300000,-4.760000,3.220000
50.806078,-0.015128,0.183000,1.208288,13.160000,2.940000,-2.240000
50.814166,-0.020984,-0.096624,1.003816,13.580000,-2.380000,1.540000
50.822253,-0.053680,0.170800,1.267824,13.020000,3.360000,-2.240000
50.830340,0.021472,-0.044896,0.878888,9.240000,-4.060000,0.840000
50.838427,-0.122976,0.120536,1.358104,16.940001,2.380000,-0.420000
50.846515,0.101504,-0.017568,0.861808,10.080000,3.500000,-1.400000
50.854602,-0.247416,0.097112,1.279048,10.920000,-7.280000,1.260000
50.862689,0.204960,-0.022936,1.031632,7.700000,2.660000,-1.260000
50.870777,-0.229848,0.143472,1.148752,12.460000,-1.260000,-0.980000
50.878864,0.133712,-0.060512,1.054080,9.240000,-0.420000,-1.260000
50.886951,-0.122976,0.153720,1.137528,4.620000,0.000000,-0.560000
50.895038,-0.037088,-0.003904,1.146312,8.120000,-0.420000,-2.520000
50.903126,0.055632,0.034160,1.000400,11.200000,0.980000,-0.420000
50.911213,-0.159088,0.122976,1.113616,1.960000,3.640000,-3.220000
50.919300,0.045384,-0.034160,0.975512,2.100000,-4.900000,0.980000
50.927387,-0.067344,0.155672,1.166320,-4.480000,1.540000,-3.220000
50.935475,-0.046360,-0.047824,1.082872,1.400000,1.680000,-1.960000
50.943562,-0.003416,0.059048,1.088728,1.120000,-2.240000,-1.120000
50.951649,-0.089792,0.111752,1.103856,-0.280000,0.280000,-2.380000
50.959737,0.024888,-0.085400,1.028216,0.420000,0.840000,-0.560000
50.967824,-0.087352,0.200568,1.176080,-0.560000,0.420000,-3.500000
50.975911,0.009272,-0.135664,1.002840,2.240000,0.840000,-0.980000
50.983998,-0.096136,0.259616,1.137528,0.000000,0.700000,-2.800000
50.992086,0.008296,-0.154696,1.075552,1.120000,5.600000,-2.520000
51.000173,-0.101992,0.226920,1.145824,-0.420000,-2.800000,-1.400000
51.008260,0.036600,-0.101992,1.174616,1.400000,4.760000,-4.060000
51.016348,-0.176656,0.167384,1.203408,2.520000,-0.420000,-1.120000
51.024435,0.066856,-0.108824,1.236592,8.680000,1.960000,-3.640000
51.032522,-0.212280,0.147864,1.337120,15.820000,-1.960000,1.260000
51.040609,0.130296,-0.014152,1.188280,15.680000,4.200000,-3.500000
51.048697,-0.281576,0.165432,1.280512,8.260000,-3.920000,1.540000
51.056784,0.138104,-0.011224,1.304912,4.620000,-0.840000,-0.980000
51.064871,-0.157624,0.012688,1.532320,16.100000,5.180000,-3.220000
51.072958,-0.083448,0.167384,1.279048,11.900000,-3.640000,-0.140000
51.081046,0.041968,0.043432,1.545984,6.300000,0.420000,-2.240000
51.089133,-0.177144,-0.033184,1.582096,10.780000,0.980000,-1.400000
51.097220,-0.034648,0.095648,1.538176,12.740000,-1.540000,-2.100000
51.105308,-0.059536,0.139080,1.456192,6.300000,2.520000,-1.400000
51.113395,-0.012200,0.095160,1.569408,6.440000,-1.680000,-0.980000
51.121482,-0.135664,0.030744,1.577704,3.780000,2.240000,-1.120000
51.129569,-0.137128,-0.000488,1.561600,3.080000,-1.820000,-1.120000
51.137657,-0.008784,0.103456,1.514752,2.380000,-0.700000,-0.700000
51.145744,0.037088,0.128832,1.521584,-0.420000,3.080000,-2.800000
51.153831,-0.077104,0.061000,1.543544,-0.140000,5.460000,-2.940000
51.161919,-0.180560,0.008296,1.479128,1.120000,-1.960000,-0.420000
51.170006,-0.087840,0.087352,1.456192,-2.240000,-2.380000,0.980000
51.178093,0.024400,0.101016,1.377624,-4.760000,5.460000,0.000000
51.186180,-0.004392,0.043920,1.439112,1.260000,-0.560000,-1.540000
51.194268,-0.132248,0.022448,1.389824,2.380000,1.960000,-0.560000
51.202355,-0.054168,0.103456,1.154120,0.000000,0.280000,-0.280000
51.210442,-0.015616,0.026840,1.195600,-0.560000,0.560000,-0.140000
51.218529,-0.040016,0.055144,1.030656,3.080000,1.680000,-0.140000
51.226617,-0.073688,0.084912,0.965752,0.140000,-0.700000,1.260000
51.234704,0.028792,0.010248,0.916464,0.700000,5.880000,-2.240000
51.242791,-0.063928,0.054168,0.868152,1.540000,-5.320000,1.680000
51.250879,-0.049288,0.070760,0.885720,-0.140000,7.560000,-3.220000
51.258966,0.035624,0.003416,0.694424,1.680000,-0.280000,-0.280000
51.267053,-0.031720,0.056120,0.756888,1.120000,4.200000,1.400000
51.275140,-0.128344,0.078568,0.776408,0.700000,-2.240000,-0.420000
51.283228,0.090280,0.023912,0.771040,0.700000,1.960000,-2.520000
51.291315,-0.051728,0.019032,0.662216,1.680000,5.040000,-0.980000
51.299402,-0.024400,0.041480,0.730048,1.400000,-2.240000,1.680000
51.307490,-0.065880,0.093696,0.839360,0.700000,-0.700000,-1.540000
51.315577,-0.000488,0.027816,0.760792,-0.280000,3.080000,-2.240000
51.323664,0.012200,0.002928,0.762744,0.700000,-0.560000,-0.140000
51.331751,-0.073688,0.077592,0.849120,-0.280000,-1.820000,-0.140000
51.339839,-0.077104,0.078568,0.928664,0.140000,0.840000,-2.100000
51.347926,0.084912,-0.034648,0.832040,2.240000,0.280000,-0.980000
51.356013,-0.094184,0.113704,0.931592,-0.420000,-0.420000,0.840000
51.364101,-0.026840,0.045872,0.993568,0.840000,1.960000,-1.820000
51.372188,0.068808,0.006832,0.946720,-0.560000,0.980000,-0.140000
51.380275,-0.187392,0.101016,1.159976,-0.700000,2.940000,-2.240000
51.388362,0.109312,-0.020496,0.967704,1.960000,-2.380000,0.000000
51.396450,-0.152744,0.111752,1.319552,1.680000,-3.360000,-0.700000
51.404537,0.120536,0.026840,0.982344,1.260000,6.160000,-1.540000
51.412624,-0.219600,0.077104,1.288808,-0.700000,-1.400000,-1.400000
51.420711,0.116144,-0.009760,1.124352,3.220000,0.000000,1.960000
51.428799,-0.140544,0.144936,1.279536,0.560000,0.560000,-2.940000
51.436886,0.034160,-0.073200,1.172176,3.220000,-1.680000,1.120000
51.444973,-0.037088,0.183000,1.258064,0.840000,6.160000,-3.500000
51.453061,-0.122976,-0.008784,1.181448,-1.260000,-4.200000,2.240000
51.461148,0.101504,0.041968,1.253672,6.300000,3.780000,-3.080000
51.469235,-0.186904,0.140544,1.221464,-2.800000,0.980000,-0.140000
51.477322,0.097600,-0.024400,1.078968,2.380000,-0.700000,-1.260000
51.485410,-0.186904,0.088816,1.230736,-0.140000,0.700000,1.540000
51.493497,0.181536,0.025864,0.907192,1.820000,3.780000,-0.980000
51.501584,-0.250344,0.081496,1.116056,0.980000,-2.940000,-0.140000
51.509672,0.197640,0.038064,0.850584,1.260000,6.160000,-2.800000
51.517759,-0.215696,0.020984,0.953552,1.680000,-1.540000,1.960000
51.525846,0.086864,0.078568,0.823744,1.680000,1.820000,-1.400000
51.533933,-0.045384,0.049776,0.792024,1.680000,3.080000,-2.100000
51.542021,0.039528,0.005368,0.695888,-0.140000,-0.700000,0.000000
51.550108,-0.067832,0.060024,0.764208,0.700000,-0.280000,-0.840000
51.558195,-0.067832,0.078080,0.711992,1.400000,1.400000,-0.980000
51.566282,0.023424,0.022936,0.702720,2.240000,1.120000,-2.380000
51.574370,0.006344,0.041968,0.564616,0.140000,1.120000,-0.700000
51.582457,0.006344,0.037088,0.558272,1.260000,-1.120000,0.000000
51.590544,0.013176,0.045872,0.653432,2.100000,2.520000,-1.680000
51.598632,-0.048312,0.058072,0.567544,0.140000,4.480000,-1.960000
51.606719,-0.049288,0.015128,0.598776,1.260000,-0.980000,-0.700000
51.614806,-0.007320,0.035136,0.618296,-0.280000,-0.140000,-0.840000
51.622893,-0.004880,0.047824,0.571936,-0.840000,-0.140000,-1.820000
51.630981,-0.029280,0.061000,0.631960,0.000000,0.000000,-2.240000
51.639068,-0.002440,0.064904,0.678320,0.420000,2.380000,-2.660000
51.647155,-0.037088,0.037088,0.719312,1.540000,1.400000,-0.980000
51.655243,0.037576,-0.012688,0.735904,1.400000,0.280000,-0.420000
51.663330,-0.088328,0.090280,0.840336,0.000000,0.280000,-0.840000
51.671417,-0.048800,0.100040,0.924272,0.840000,1.400000,-2.800000
51.679504,0.062952,-0.012200,0.844728,0.140000,0.840000,-1.820000
51.687592,-0.143960,0.087352,1.025776,-1.540000,-0.140000,-1.680000
51.695679,-0.009272,0.102480,1.016992,-0.420000,2.520000,-3.920000
51.703766,-0.039040,-0.043920,0.996984,-2.100000,-0.280000,-0.980000
51.711853,-0.083448,0.189344,1.078968,-0.280000,1.960000,-2.940000
51.719941,-0.034648,-0.092720,0.986736,0.000000,-0.840000,-0.140000
51.728028,-0.123952,0.231312,1.050664,-0.700000,1.540000,-2.380000
51.736115,0.061488,-0.114192,0.864736,2.520000,-3.780000,1.260000
51.744203,-0.136152,0.199104,1.005280,-2.800000,4.200000,-2.100000
51.752290,-0.007320,0.004880,0.748104,2.240000,0.560000,-0.420000
51.760377,-0.028304,0.039528,0.817400,0.840000,-3.080000,0.560000
51.768464,-0.069296,0.073200,0.760304,-0.840000,1.120000,-0.700000
51.776552,-0.021960,0.076128,0.739320,0.560000,2.940000,-2.380000
51.784639,-0.027328,0.045872,0.623664,2.100000,0.980000,-0.420000
51.792726,0.001464,0.021472,0.632936,2.240000,0.140000,-0.140000
51.800814,-0.074664,0.033672,0.632936,0.840000,0.000000,0.280000
51.808901,-0.017568,0.061488,0.623664,0.560000,-0.560000,-0.980000
51.816988,-0.026840,0.073688,0.641720,0.840000,1.400000,-2.800000
51.825075,-0.051240,0.064416,0.613416,0.980000,3.500000,-1.680000
51.833163,-0.004392,0.072712,0.600240,2.660000,-2.100000,-0.700000
51.841250,0.004880,0.020984,0.723704,1.540000,2.800000,-0.980000
51.849337,-0.031232,0.000976,0.652456,0.420000,0.000000,-1.260000
51.857424,-0.070272,0.122488,0.829600,0.980000,-0.560000,-1.820000
51.865512,-0.067832,0.103944,0.894504,0.980000,3.780000,-1.820000
51.873599,0.037088,-0.049776,0.874984,1.400000,-3.220000,-0.280000
51.881686,-0.138104,0.202032,1.027728,-1.960000,1.120000,-1.120000
51.889774,0.034648,-0.062952,1.047736,0.980000,-1.400000,-2.240000
51.897861,-0.101504,0.222040,1.126304,-3.080000,0.420000,-1.120000
51.905948,0.025376,-0.104432,1.123864,1.120000,3.500000,-2.660000
51.914035,-0.128832,0.270840,1.208776,-1.120000,-2.240000,0.280000
51.922123,0.075640,-0.113216,1.134600,0.560000,3.080000,-3.220000
51.930210,-0.214720,0.266936,1.272216,0.140000,-0.700000,1.400000
51.938297,0.193248,-0.088328,1.082872,-0.420000,1.120000,-3.360000
51.946385,-0.284504,0.193736,1.385920,2.520000,0.980000,-0.140000
51.954472,0.137128,0.032696,1.004792,-1.400000,1.820000,-2.240000
51.962559,-0.174216,0.040992,1.406904,5.180000,-0.840000,-0.840000
51.970646,0.012200,0.182512,1.107760,-0.700000,1.960000,0.140000
51.978734,-0.001952,-0.059048,1.203896,2.520000,5.880000,-3.220000
51.986821,-0.226432,0.220576,1.100928,1.820000,-5.460000,3.360000
51.994908,0.232288,-0.046360,0.977952,0.420000,3.220000,-2.800000
52.002995,-0.375760,0.181048,1.072136,-0.840000,2.380000,1.120000
52.011083,0.306464,-0.058560,0.701256,0.980000,-1.680000,-0.980000
52.019170,-0.283528,0.141032,0.905728,-1.260000,2.380000,1.680000
52.027257,0.090768,0.044408,0.692472,1.120000,-0.280000,-1.260000
52.035345,-0.032696,0.064904,0.666608,-0.700000,4.340000,-0.700000
52.043432,-0.009272,0.029768,0.613904,1.260000,-1.960000,0.420000
52.051519,-0.012688,0.069296,0.611952,0.700000,4.480000,-1.400000
52.059606,-0.075640,0.029280,0.635376,0.700000,2.380000,-0.280000
52.067694,0.011224,0.062464,0.593896,0.840000,-0.840000,-1.260000
52.075781,-0.021472,0.052704,0.543144,-0.840000,4.340000,-0.980000
52.083868,-0.012688,0.016104,0.543632,0.700000,-0.280000,-0.280000
52.091956,0.005856,0.085888,0.582672,0.980000,-0.420000,0.000000
52.100043,-0.026352,0.043432,0.647576,1.960000,4.760000,-0.140000
52.108130,-0.020496,0.042944,0.672464,3.640000,0.000000,1.260000
52.116217,-0.021960,0.028304,0.789584,2.940000,-1.540000,1.120000
52.124305,-0.024400,0.092720,0.749080,0.840000,2.380000,-1.820000
52.132392,-0.013664,0.085400,0.829600,1.820000,2.240000,-2.100000
52.140479,0.052216,-0.014640,0.807640,2.520000,-0.700000,-0.280000
52.148566,-0.062952,0.092232,0.871080,1.260000,-1.260000,-0.280000
52.156654,-0.065880,0.100040,0.960384,0.840000,2.800000,-2.240000
52.164741,0.053680,0.020496,0.805200,0.560000,1.960000,-0.140000
52.172828,-0.146400,0.069784,0.954040,-0.280000,-2.100000,1.260000
52.180916,0.050264,0.118584,0.938912,0.700000,1.400000,-1.960000
52.189003,-0.014152,-0.020984,0.879864,2.100000,1.680000,-0.700000
52.197090,-0.062952,0.106384,0.857416,-1.680000,1.260000,-0.840000
52.205177,-0.079544,0.103944,0.908656,0.560000,0.420000,-0.420000
52.213265,0.100528,-0.024400,0.752984,1.120000,1.120000,-0.980000
52.221352,-0.087840,0.072224,0.729560,-1.400000,0.280000,0.700000
52.229439,-0.056120,0.106384,0.758352,0.980000,-0.700000,-1.960000
52.237527,-0.013664,0.036600,0.732488,-0.420000,5.180000,-2.100000
52.245614,0.008784,0.037088,0.523624,-0.420000,-0.980000,-0.980000
52.253701,-0.003904,0.046360,0.635864,1.400000,0.980000,-0.560000
52.261788,-0.042944,0.061000,0.569984,0.280000,2.940000,-1.260000
52.269876,-0.022936,0.045384,0.609024,0.980000,-0.700000,-0.840000
52.277963,-0.024888,0.050752,0.541192,-0.700000,1.680000,-0.280000
52.286050,-0.001464,0.033184,0.540216,0.980000,-0.980000,-0.560000
52.294137,-0.035136,0.040992,0.595848,0.000000,-0.140000,-0.700000
52.302225,-0.024400,0.079544,0.618784,1.120000,0.420000,-2.100000
52.310312,-0.092720,0.074664,0.752008,1.260000,0.280000,-2.100000
52.318399,-0.016104,0.045872,0.843264,1.960000,0.420000,-2.380000
52.326487,0.039528,0.010736,0.752008,2.520000,-0.280000,-0.420000
52.334574,-0.088328,0.100528,1.001376,3.080000,-2.520000,-0.700000
52.342661,-0.027328,0.106872,0.994056,0.280000,1.960000,-3.920000
52.350748,-0.021960,-0.024400,0.978440,2.380000,0.140000,-0.420000
52.358836,-0.094672,0.217648,1.207800,-1.540000,-1.400000,-2.800000
52.366923,-0.025864,-0.081984,1.112640,1.960000,-1.540000,-0.840000
52.375010,-0.061000,0.259128,1.283928,-0.980000,0.140000,-2.520000
52.383098,-0.051728,-0.069784,1.156560,1.400000,-1.120000,-1.400000
52.391185,-0.094672,0.194712,1.263920,0.560000,-0.560000,-2.240000
52.399272,0.010736,-0.008296,1.206336,0.980000,-1.120000,-1.540000
52.407359,-0.155672,0.203008,1.291736,0.980000,-0.700000,-1.400000
52.415447,0.065392,-0.074664,1.137040,-2.100000,3.780000,-0.420000
52.423534,-0.155184,0.217648,1.357128,3.780000,-1.540000,-1.680000
52.431621,-0.009272,0.063928,1.000400,-3.920000,0.000000,-1.260000
52.439708,-0.107360,0.023912,1.316136,5.600000,2.940000,-3.500000
52.447796,-0.044408,0.224968,0.988200,-2.660000,-6.160000,1.120000
52.455883,0.004392,-0.110288,1.227808,0.280000,7.000000,-4.760000
52.463970,-0.163968,0.242536,0.929152,1.260000,-2.940000,2.660000
52.472058,0.036112,-0.025864,1.104344,-0.140000,0.420000,-3.500000
52.480145,-0.080032,0.119560,0.908656,0.980000,-2.240000,1.680000
52.488232,-0.054168,0.086864,1.069696,-1.260000,6.580000,-5.740000
52.496319,-0.033672,0.014152,0.807152,1.820000,-2.660000,1.960000
52.504407,-0.124928,0.135176,1.084824,1.260000,0.140000,-1.540000
52.512494,0.032208,0.061976,0.881328,0.980000,0.980000,-2.240000
52.520581,-0.067832,0.010736,0.891088,1.540000,2.940000,-0.560000
52.528669,-0.113216,0.158600,0.976488,0.000000,1.400000,-1.260000
52.536756,0.023912,0.016592,0.896944,3.220000,-0.280000,-0.280000
52.544843,-0.083448,0.056120,0.953064,0.840000,-1.540000,-0.840000
52.552930,-0.075640,0.162992,0.975512,1.400000,3.780000,-2.520000
52.561018,-0.029768,-0.037088,0.865712,1.120000,1.400000,-0.700000
52.569105,-0.048312,0.157624,0.919880,-0.140000,-0.840000,-0.980000
52.577192,-0.045384,0.059536,0.966240,1.820000,4.340000,-2.380000
52.585280,-0.055144,0.002440,0.853024,-0.840000,-1.400000,0.140000
52.593367,-0.121512,0.189344,1.049200,0.700000,0.840000,-0.140000
52.601454,0.028304,-0.035624,0.879864,-0.280000,1.820000,-1.680000
52.609541,-0.042456,0.131760,0.907680,-0.280000,-1.260000,-0.700000
52.617629,-0.101992,0.098088,0.996984,0.140000,3.500000,-3.360000
52.625716,0.009760,-0.012688,0.794952,0.140000,0.000000,-0.420000
52.633803,-0.121512,0.169336,1.095072,1.540000,-2.100000,-0.140000
52.641890,-0.023424,0.005856,0.944768,-1.400000,4.620000,-3.220000
52.649978,-0.077592,0.120048,0.984784,1.820000,-2.520000,0.700000
52.658065,-0.056120,0.062464,1.170224,-0.140000,-0.420000,-2.520000
52.666152,-0.024888,0.069296,1.027728,1.260000,0.420000,0.000000
52.674240,-0.101504,0.129808,1.249280,0.980000,1.400000,-4.200000
52.682327,-0.092720,0.013176,1.193160,1.960000,-3.500000,0.700000
52.690414,0.050752,0.183488,1.189256,0.560000,5.600000,-5.740000
52.698501,-0.235704,0.003416,1.370304,-0.280000,-5.040000,-0.280000
52.706589,0.081496,0.091256,1.345416,3.920000,5.180000,-3.780000
52.714676,-0.211304,0.226432,1.265872,-3.360000,-2.240000,-0.840000
52.722763,-0.013176,-0.035136,1.424960,3.360000,-0.560000,-0.840000
52.730851,-0.115168,0.077592,1.409832,4.480000,2.240000,-0.560000
52.738938,-0.050752,0.229360,1.218536,-3.780000,0.980000,-1.960000
52.747025,-0.035136,-0.094184,1.243424,0.280000,-1.680000,-1.120000
52.755112,-0.071736,0.172264,1.339560,4.060000,1.400000,-1.260000
52.763200,-0.089304,0.187392,1.049200,-5.320000,5.180000,-1.540000
52.771287,-0.016104,-0.154696,1.195600,4.200000,0.840000,0.280000
52.779374,-0.152744,0.355264,1.211216,-1.960000,-0.140000,0.000000
52.787461,0.097600,-0.178120,0.895480,-0.140000,2.940000,-2.660000
52.795549,-0.231800,0.314760,1.269288,0.420000,-0.980000,-0.420000
52.803636,0.122000,-0.111264,0.747128,-0.980000,3.220000,-1.400000
52.811723,-0.196664,0.225944,1.201456,1.120000,-1.120000,-0.280000
52.819811,0.093696,-0.029280,0.789096,-0.700000,6.020000,-1.960000
52.827898,-0.201544,0.148840,0.954040,1.260000,-0.980000,0.140000
52.835985,0.021472,0.082472,0.909144,-0.560000,1.540000,-1.540000
52.844072,-0.070760,0.015128,0.802272,0.000000,4.200000,-0.980000
52.852160,-0.086864,0.153720,0.931592,1.120000,-0.280000,-0.980000
52.860247,-0.017080,0.041968,0.895968,1.540000,1.820000,-2.380000
52.868334,-0.013664,0.038552,0.842776,0.140000,1.260000,-0.560000
52.876422,-0.084912,0.155184,1.019432,0.420000,-0.560000,-1.400000
52.884509,0.007808,-0.001464,0.947208,1.960000,1.680000,-0.840000
52.892596,-0.165432,0.144936,1.102880,-1.120000,0.420000,-1.400000
52.900683,0.054656,0.017080,1.021384,3.920000,-2.100000,0.700000
52.908771,-0.170312,0.167872,1.264896,-0.420000,-0.840000,-3.220000
52.916858,0.043920,0.009272,1.070672,2.520000,0.420000,0.140000
52.924945,-0.117608,0.208376,1.276608,-2.100000,3.220000,-4.620000
52.933032,-0.090768,-0.036112,1.258064,0.000000,-3.080000,1.260000
52.941120,-0.023424,0.180560,1.245376,2.100000,4.480000,-2.660000
52.949207,-0.122000,0.090280,1.355176,-2.660000,-1.820000,-1.400000
52.957294,-0.043920,0.001952,1.361520,1.960000,0.000000,-1.400000
52.965382,-0.043432,0.210328,1.302960,-0.280000,-0.560000,-0.980000
52.973469,-0.104920,0.094184,1.353224,-2.800000,3.640000,-2.800000
52.981556,-0.121512,0.028304,1.457168,4.340000,-1.540000,0.140000
52.989643,-0.030744,0.146400,1.286856,0.840000,0.840000,-0.840000
52.997731,-0.045872,0.123464,1.338584,-2.240000,1.540000,-2.660000
53.005818,-0.104920,0.001464,1.426424,0.840000,2.380000,-1.120000
53.013905,-0.072712,0.151768,1.258552,1.960000,-0.280000,0.280000
53.021993,-0.055632,0.148352,1.223416,-2.800000,0.560000,-1.120000
53.030080,-0.063928,-0.000488,1.342000,0.560000,3.080000,-0.980000
53.038167,-0.076128,0.161528,1.138992,-0.280000,1.820000,-0.280000
53.046254,-0.031720,0.079056,1.218536,-2.380000,-1.400000,-0.560000
53.054342,0.006344,0.032208,1.208776,2.800000,5.600000,-2.380000
53.062429,-0.194224,0.182512,1.158024,-1.400000,2.660000,-0.840000
53.070516,0.004880,0.006344,1.175592,0.980000,-2.660000,0.420000
53.078603,-0.027816,0.136640,1.190720,1.400000,4.900000,-1.680000
53.086691,-0.168360,0.076128,1.205360,0.000000,-0.840000,0.700000
53.094778,0.100040,0.073688,1.177544,3.080000,3.500000,-2.800000
53.102865,-0.272304,0.116632,1.203896,-1.960000,-0.560000,-0.700000
53.110953,0.095160,0.057584,1.175592,4.060000,-2.100000,-0.700000
53.119040,-0.093208,0.119560,1.215608,1.540000,3.780000,-1.540000
53.127127,-0.113216,0.075640,1.186328,0.980000,0.420000,-0.420000
53.135214,-0.023424,0.067832,1.135088,1.680000,1.960000,-0.980000
53.143302,-0.146888,0.144936,1.250256,0.560000,-3.500000,0.420000
53.151389,0.069296,0.050752,1.165344,1.680000,3.500000,-3.500000
53.159476,-0.178120,0.106872,1.168760,1.400000,-1.120000,-0.420000
53.167564,-0.035624,0.121512,1.195600,-1.820000,-0.140000,-0.280000
53.175651,-0.055632,0.022936,1.211216,2.240000,2.240000,-1.680000
53.183738,-0.091744,0.166408,1.163880,0.420000,1.820000,-1.120000
53.191825,-0.022448,0.040992,1.138992,-0.140000,-0.280000,-0.700000
53.199913,-0.117608,0.102968,1.224880,1.120000,1.820000,0.980000
53.208000,-0.023424,0.125416,1.175104,0.000000,1.960000,-1.820000
53.216087,-0.084912,-0.008784,1.135088,2.940000,-1.120000,-0.420000
53.224174,-0.002928,0.235216,1.253184,-0.840000,-1.960000,-2.380000
53.232262,-0.060024,-0.076128,1.121424,-0.280000,8.260000,-2.800000
53.240349,-0.124928,0.217648,1.200480,2.940000,0.560000,-0.560000
53.248436,-0.065880,0.046848,1.199504,-0.840000,-3.640000,0.560000
53.256524,0.061488,0.052216,1.218048,2.940000,4.340000,-0.560000
53.264611,-0.162504,0.209352,1.260504,-2.940000,0.140000,-2.100000
53.272698,-0.050264,-0.060024,1.219512,2.800000,0.560000,0.840000
53.280785,0.012688,0.221064,1.213656,1.400000,0.840000,-1.540000
53.288873,-0.179584,0.046848,1.286368,-1.960000,1.540000,0.140000
53.296960,0.062952,0.068320,1.166808,4.200000,1.960000,-0.420000
53.305047,-0.161040,0.184464,1.245864,-3.500000,2.800000,-0.840000
53.313135,0.019520,-0.005368,1.238544,3.640000,-1.400000,0.000000
53.321222,-0.018544,0.158112,1.163880,-0.140000,8.820000,-3.780000
53.329309,-0.233264,0.072712,1.147288,-1.400000,-5.740000,1.400000
53.337396,0.182024,0.062464,1.137528,2.520000,4.620000,-0.700000
53.345484,-0.224968,0.130296,1.203896,-0.140000,5.040000,-3.220000
53.353571,0.061488,-0.004880,0.920856,1.260000,0.140000,1.400000
53.361658,-0.094672,0.175680,1.161928,1.820000,0.140000,-3.080000
53.369745,0.001464,-0.006344,0.889624,0.420000,1.540000,1.400000
53.377833,-0.095648,0.157624,1.010648,1.680000,2.240000,-3.220000
53.385920,-0.012200,-0.015616,0.773968,0.420000,-2.240000,2.520000
53.394007,-0.045872,0.183976,1.074576,1.540000,3.220000,-2.240000
53.402095,0.028304,-0.039040,0.719800,0.700000,0.700000,-0.700000
53.410182,-0.079544,0.117120,0.894016,-0.280000,1.540000,-0.140000
53.418269,-0.081984,0.121512,0.862784,0.280000,0.560000,-0.700000
53.426356,0.064904,-0.011224,0.740296,1.680000,1.260000,-0.700000
53.434444,-0.102968,0.110288,0.843752,-0.840000,0.140000,0.280000
53.442531,0.006832,0.085400,0.830576,0.560000,0.980000,-1.400000
53.450618,0.021960,0.016104,0.746152,-0.140000,2.240000,-0.560000
53.458706,-0.101992,0.101016,0.854000,0.420000,0.980000,0.000000
53.466793,-0.016104,0.096136,0.899384,1.260000,0.840000,-1.540000
53.474880,0.006344,0.011712,0.802272,0.560000,-1.540000,0.140000
53.482967,-0.125904,0.123952,0.972584,1.540000,1.260000,-1.400000
53.491055,0.051728,0.046848,0.924272,1.680000,1.540000,-2.380000
53.499142,-0.082472,0.062464,0.919880,-0.140000,-0.280000,-0.700000
53.507229,-0.080520,0.122976,0.996008,1.680000,2.240000,-2.380000
53.515317,0.082472,0.005856,0.879376,2.520000,-4.900000,0.000000
53.523404,-0.181536,0.162504,1.020408,0.280000,5.040000,-1.400000
53.531491,0.069784,0.016104,0.890600,1.680000,-0.140000,-1.120000
53.539578,-0.068320,0.098088,0.983320,1.680000,-3.360000,-0.140000
53.547666,-0.025376,0.101016,0.949160,0.840000,3.640000,-4.060000
53.555753,-0.001952,0.015128,0.890112,-0.560000,-3.220000,0.840000
53.563840,-0.174216,0.176656,1.019432,-0.280000,2.380000,-1.400000
53.571927,0.106872,-0.015128,0.854488,1.260000,1.820000,-1.960000
53.580015,-0.144936,0.129808,0.905240,-0.140000,-2.100000,0.280000
53.588102,0.002440,0.088328,0.877912,1.540000,1.120000,-3.220000
53.596189,0.005368,0.017080,0.752984,0.140000,3.360000,0.280000
53.604277,-0.083448,0.108824,0.750056,1.960000,-0.700000,0.000000
53.612364,-0.029280,0.120048,0.800808,0.280000,4.200000,-2.100000
53.620451,0.002928,0.023424,0.669536,1.120000,0.420000,-0.420000
53.628538,-0.006832,0.050752,0.729560,2.660000,-2.380000,0.280000
53.636626,-0.083448,0.132248,0.713456,-0.140000,3.640000,-1.400000
53.644713,-0.041480,0.095160,0.776896,1.400000,-0.140000,-1.120000
53.652800,0.040016,0.014152,0.752496,1.680000,-1.680000,-0.280000
53.660888,-0.020008,0.080032,0.716384,0.560000,1.540000,-1.540000
53.668975,-0.103944,0.155672,0.864248,0.420000,2.380000,-2.100000
53.677062,0.049288,0.022936,0.874008,1.260000,1.820000,-2.800000
53.685149,-0.086376,0.086864,0.945744,-1.120000,0.280000,-0.560000
53.693237,-0.103944,0.142496,1.091656,1.820000,0.560000,-1.260000
53.701324,0.043432,0.035136,1.044808,0.280000,-2.660000,0.140000
53.709411,-0.148352,0.146888,1.235616,2.240000,1.540000,-1.260000
53.717498,0.059536,0.132248,1.138992,-0.980000,-5.040000,-1.400000
53.725586,-0.137616,0.014640,1.352736,0.980000,5.040000,-3.780000
53.733673,-0.059536,0.253272,1.210240,-1.400000,-5.180000,0.840000
53.741760,0.027328,-0.024400,1.309792,-1.820000,7.560000,-3.780000
53.749848,-0.282064,0.132736,1.357616,3.080000,-4.480000,1.960000
53.757935,0.161528,0.203496,1.148752,-2.520000,-1.400000,-2.240000
53.766022,-0.131272,-0.054656,1.336632,1.120000,2.240000,-2.800000
53.774109,-0.119560,0.243024,1.232688,2.940000,0.000000,-0.840000
53.782197,0.007808,0.090280,1.063352,-4.760000,3.220000,-2.380000
53.790284,-0.104432,-0.006832,1.260016,6.300000,-4.900000,1.400000
53.798371,0.007320,0.305976,1.017968,-3.220000,4.620000,-1.540000
53.806459,-0.040504,-0.130296,1.003328,2.660000,3.640000,-1.820000
53.814546,-0.131760,0.305976,1.014552,-0.700000,-2.380000,1.680000
53.822633,0.096624,-0.092232,0.879376,1.960000,4.200000,-2.800000
53.830720,-0.203496,0.217160,0.921344,-1.960000,-1.120000,0.980000
53.838808,0.045384,0.063928,0.779336,1.820000,3.920000,-2.100000
53.846895,-0.064416,0.048800,0.785192,0.420000,-0.840000,1.260000
53.854982,-0.028792,0.115168,0.760304,-0.840000,1.120000,-0.840000
53.863069,0.007320,0.113216,0.734440,0.560000,0.420000,-1.820000
53.871157,-0.018544,0.029768,0.694912,0.280000,4.200000,-0.280000
53.879244,-0.130296,0.094672,0.787632,0.840000,0.000000,0.420000
53.887331,-0.006344,0.115168,0.813496,0.280000,-0.420000,-2.100000
53.895419,0.036600,0.054656,0.735904,-1.120000,4.480000,-1.680000
53.903506,-0.106384,0.070760,0.867664,1.120000,-1.820000,0.420000
53.911593,-0.059048,0.168360,1.038952,0.700000,2.660000,-1.960000
53.919680,-0.034648,0.020008,0.955016,0.140000,-0.700000,0.000000
53.927768,-0.119072,0.193736,1.177056,1.400000,-0.280000,-1.260000
53.935855,0.058560,0.016104,1.086288,3.080000,-3.920000,-0.420000
53.943942,-0.126392,0.190320,1.233176,0.560000,6.160000,-3.640000
53.952030,-0.035136,0.036112,1.160952,-0.980000,-2.380000,-0.560000
53.960117,-0.017568,0.137128,1.262456,3.360000,2.380000,-3.640000
53.968204,-0.156160,0.120048,1.196088,-1.540000,-2.660000,0.840000
53.976291,0.064904,0.068808,1.202432,3.080000,1.540000,-2.380000
53.984379,-0.195688,0.170800,1.259528,0.420000,0.000000,0.700000
53.992466,0.074664,0.054656,1.166808,0.840000,0.840000,-0.840000
54.000553,-0.122976,0.114680,1.233664,2.380000,-0.420000,-1.120000
54.008641,-0.020496,0.162992,1.067744,-0.140000,0.420000,-0.980000
54.016728,-0.004880,0.030744,1.124352,-0.280000,3.780000,-2.100000
54.024815,-0.205448,0.187880,1.176568,1.120000,-4.060000,1.260000
54.032902,0.166408,0.032208,0.987712,1.400000,3.780000,-2.100000
54.040990,-0.256688,0.194712,1.125816,1.120000,-0.980000,-0.280000
54.049077,0.151280,0.015616,0.943792,-2.520000,2.940000,-1.120000
54.057164,-0.215696,0.196664,1.070672,2.380000,0.980000,-1.960000
54.065252,0.084424,-0.012688,0.895968,-0.840000,2.380000,0.840000
54.073339,-0.194224,0.215696,1.027728,1.400000,0.140000,-1.400000
54.081426,0.111264,-0.020984,0.920856,1.120000,-0.280000,0.000000
54.089513,-0.155184,0.236192,1.084824,-0.560000,4.620000,-2.800000
54.097601,0.025864,-0.044896,1.043832,3.780000,-0.280000,-0.840000
54.105688,-0.135176,0.256200,1.244400,0.560000,4.760000,-3.220000
54.113775,-0.099064,0.000976,1.254160,2.800000,-5.460000,1.680000
54.121862,0.060512,0.129320,1.393728,4.200000,2.940000,-1.120000
54.129950,-0.138592,0.219600,1.496208,-0.980000,-0.140000,-1.820000
54.138037,-0.111264,0.101016,1.643584,-0.980000,-2.660000,-1.120000
54.146124,-0.122488,0.095160,1.653832,0.280000,-0.420000,-0.700000
54.154212,0.002440,0.068808,1.570384,1.400000,1.960000,-0.840000
54.162299,-0.035136,0.128344,1.600152,-0.980000,2.800000,-0.700000
54.170386,-0.044896,0.163968,1.692384,-1.260000,1.400000,0.700000
54.178473,-0.070760,0.164456,1.756800,-1.680000,1.960000,-0.840000
54.186561,-0.106384,0.145912,1.748016,-0.840000,-0.420000,-2.380000
54.194648,-0.144448,0.144448,1.649928,-2.100000,0.700000,-0.980000
54.202735,-0.081496,0.054656,1.566480,-0.140000,-1.540000,0.980000
54.210823,0.010736,0.053680,1.453752,0.700000,3.080000,0.280000
54.218910,-0.046360,0.150304,1.453752,0.840000,0.280000,-1.120000
54.226997,-0.115168,0.227408,1.422032,-2.520000,2.380000,-1.120000
54.235084,-0.009760,-0.010248,1.200480,-0.420000,1.820000,-1.260000
54.243172,-0.062464,0.066856,1.245864,4.900000,3.080000,-0.140000
54.251259,-0.092232,0.249856,1.041392,-1.260000,-1.400000,-0.420000
54.259346,0.063928,-0.103944,0.947696,1.960000,5.040000,-1.540000
54.267434,-0.189344,0.270840,0.984296,0.000000,-2.800000,0.140000
54.275521,0.128344,-0.041480,0.799344,1.540000,2.380000,-1.540000
54.283608,-0.190320,0.142008,0.888648,1.820000,-0.140000,-0.140000
54.291695,0.017568,0.106872,0.710528,-0.280000,3.500000,-0.980000
54.299783,-0.039040,0.048800,0.741272,3.780000,-1.820000,-0.560000
54.307870,-0.020008,0.066368,0.669536,1.960000,2.240000,-0.980000
54.315957,-0.071736,0.106872,0.718824,1.960000,0.140000,-2.800000
54.324045,-0.055144,0.086376,0.691496,1.120000,1.820000,-0.840000
54.332132,0.006832,0.057096,0.654896,2.660000,-0.700000,-0.700000
54.340219,-0.082472,0.068808,0.672464,0.560000,1.960000,-0.980000
54.348306,-0.092232,0.086376,0.723704,1.260000,-2.380000,-0.980000
54.356394,-0.010248,0.089304,0.732000,-0.140000,0.140000,-1.540000
54.364481,-0.015128,0.051240,0.664656,1.820000,1.680000,-0.420000
54.372568,-0.101016,0.064904,0.724680,1.540000,-0.700000,-0.420000
54.380655,-0.087840,0.115168,0.803736,0.840000,-1.260000,-1.540000
54.388743,-0.024400,0.078080,0.755912,1.260000,2.800000,-1.820000
54.396830,-0.033672,0.030256,0.709064,1.680000,-0.840000,-1.260000
54.404917,-0.087352,0.086376,0.771040,0.980000,3.500000,-1.680000
54.413005,-0.068808,0.111752,0.692472,1.400000,0.700000,-0.980000
54.421092,-0.017080,0.063440,0.717360,0.980000,-1.400000,-0.140000
54.429179,-0.056608,0.033672,0.681736,0.700000,2.520000,-0.560000
54.437266,-0.062952,0.091256,0.692960,1.120000,0.000000,-0.980000
54.445354,-0.083936,0.105896,0.687104,0.420000,0.700000,-0.420000
54.453441,-0.023912,0.062952,0.674904,0.000000,-1.120000,-0.700000
54.461528,0.009760,0.049776,0.577792,-0.140000,1.400000,-0.700000
54.469616,-0.098088,0.044408,0.642208,1.120000,2.100000,-0.140000
54.477703,-0.045872,0.099064,0.621224,1.680000,-0.560000,0.140000
54.485790,-0.063440,0.084424,0.696376,0.420000,0.700000,-1.540000
54.493877,-0.032208,0.083448,0.648552,-0.700000,2.240000,-2.380000
54.501965,-0.034160,0.039528,0.632936,0.420000,-3.640000,-0.840000
54.510052,-0.041480,0.060024,0.754448,0.420000,-0.700000,-0.420000
54.518139,-0.121512,0.109800,0.846192,-0.280000,2.240000,-1.680000
54.526227,-0.043920,0.088328,0.959896,0.840000,0.700000,-2.800000
54.534314,-0.028792,0.042944,0.871080,-0.420000,0.000000,-0.420000
54.542401,-0.207400,0.153232,1.160952,2.240000,-0.140000,-0.840000
54.550488,0.125904,0.007808,0.939400,1.540000,-1.400000,-1.960000
54.558576,-0.327936,0.186416,1.279536,0.000000,1.400000,-1.680000
54.566663,0.184464,0.004880,0.990152,0.420000,1.680000,-3.360000
54.574750,-0.362096,0.177144,1.376648,1.260000,-3.220000,-1.540000
54.582838,0.163480,0.071248,1.027728,0.280000,1.960000,-0.840000
54.590925,-0.273768,0.075640,1.371280,0.420000,-3.080000,-1.960000
54.599012,-0.084912,0.144936,1.283928,1.260000,-2.940000,2.800000
54.607099,0.035624,0.077104,1.156072,-0.840000,5.600000,-4.060000
54.615187,-0.205448,0.081008,1.463024,2.660000,-5.600000,-1.400000
54.623274,-0.024888,0.138104,1.268800,-0.980000,7.840000,-2.800000
54.631361,-0.098088,0.064416,1.193160,2.380000,-4.760000,-0.280000
54.639448,-0.083448,0.126880,1.357128,-1.540000,3.780000,-0.280000
54.647536,-0.040992,0.120536,1.264408,2.100000,-0.420000,-1.820000
54.655623,-0.077592,0.070272,1.159488,0.700000,3.500000,-1.820000
54.663710,-0.185928,0.132248,1.157536,1.260000,0.420000,0.000000
54.671798,0.086376,0.060512,1.005768,0.000000,1.260000,-1.260000
54.679885,-0.238144,0.128832,1.123376,0.140000,0.560000,0.140000
54.687972,0.133224,0.038552,0.846680,2.800000,3.220000,-2.380000
54.696059,-0.297192,0.169336,0.965752,-1.680000,0.560000,0.000000
54.704147,0.131760,0.006344,0.785192,1.260000,1.680000,-1.260000
54.712234,-0.132248,0.080520,0.873520,-0.560000,-0.280000,0.700000
54.720321,-0.074664,0.132736,0.809104,0.840000,2.520000,-2.100000
54.728409,-0.014640,0.051240,0.762744,0.420000,3.080000,-1.120000
54.736496,-0.082472,0.047824,0.728096,0.420000,-2.100000,1.120000
54.744583,-0.097600,0.087352,0.760304,-0.140000,1.540000,-2.380000
54.752670,-0.017080,0.101016,0.676368,0.420000,5.320000,-2.520000
54.760758,-0.016104,0.038064,0.619760,1.960000,1.960000,-0.560000
54.768845,-0.100528,0.058560,0.668560,2.100000,-0.560000,0.280000
54.776932,-0.052216,0.082960,0.597312,0.140000,2.800000,-0.840000
54.785020,-0.073688,0.052704,0.574376,0.700000,0.280000,-0.840000
54.793107,-0.006344,0.055144,0.594872,0.840000,0.000000,-0.980000
54.801194,-0.029280,0.078568,0.482144,1.260000,2.380000,-0.980000
54.809281,-0.061000,0.061000,0.530944,1.260000,0.980000,-0.560000
54.817369,-0.036600,0.050264,0.549000,0.840000,1.120000,-0.140000
54.825456,-0.031720,0.071248,0.526552,1.400000,0.560000,-0.280000
54.833543,-0.034648,0.074176,0.521184,1.120000,0.140000,-0.560000
54.841630,-0.055144,0.050264,0.484096,0.840000,-0.420000,-0.420000
54.849718,-0.054656,0.062464,0.514352,0.980000,-4.340000,-0.700000
54.857805,-0.053680,0.048312,0.494832,-0.560000,-5.320000,-0.420000
54.865892,-0.053680,0.060512,0.531432,1.120000,-8.260000,-0.560000
54.873980,-0.025864,0.064904,0.510448,0.000000,-5.460000,-1.540000
54.882067,-0.070760,0.066368,0.467016,0.420000,-9.800000,-0.980000
54.890154,-0.000976,0.065392,0.514840,1.680000,-11.480000,-0.840000
54.898241,-0.027328,0.067344,0.487512,0.000000,-2.660000,-0.700000
54.906329,-0.050752,0.070760,0.449448,0.700000,-7.000000,-0.560000
54.914416,-0.038064,0.075640,0.515816,0.000000,-7.700000,-0.420000
54.922503,-0.063928,0.059048,0.522160,-0.840000,-6.020000,-0.700000
54.930591,-0.040992,0.066856,0.574864,0.000000,-8.680000,-0.280000
54.938678,-0.010736,0.064904,0.562664,-0.280000,-6.860000,-0.700000
54.946765,-0.017080,0.060512,0.583160,0.420000,-4.900000,-0.840000
54.954852,-0.009272,0.045384,0.631472,0.420000,-2.520000,-0.980000
54.962940,-0.035136,0.038552,0.650016,0.280000,3.360000,-1.400000
54.971027,-0.069784,0.059536,0.646112,0.140000,0.140000,-0.840000
54.979114,-0.100528,0.122488,0.744200,1.400000,0.420000,-0.700000
54.987202,-0.030256,0.097112,0.770064,1.820000,1.680000,-1.960000
54.995289,-0.016104,0.028304,0.741272,0.700000,0.980000,-1.260000
55.003376,-0.031720,0.058560,0.761280,-0.280000,-3.360000,-1.680000
55.011463,-0.071736,0.129808,0.847168,0.560000,2.240000,-3.360000
55.019551,-0.071248,0.064416,0.782264,0.420000,3.080000,-2.100000
55.027638,-0.035136,0.039528,0.824232,0.840000,-2.800000,0.140000
55.035725,-0.087840,0.138592,0.900360,0.280000,3.220000,-1.960000
55.043812,-0.020984,0.044408,0.871080,1.400000,1.540000,-2.100000
55.051900,-0.078080,0.077592,0.894992,-0.980000,0.840000,-0.560000
55.059987,-0.130296,0.112240,0.999912,-0.280000,2.520000,-1.680000
55.068074,-0.006832,0.031232,0.969168,1.400000,-3.360000,0.420000
55.076162,-0.132248,0.159576,1.081408,0.420000,2.660000,-2.800000
55.084249,0.043920,0.011224,0.964776,1.260000,-1.260000,-1.960000
55.092336,-0.213744,0.173240,1.235616,0.840000,-2.520000,-1.680000
55.100423,0.102968,0.030256,1.071648,2.240000,3.640000,-1.960000
55.108511,-0.290848,0.145912,1.299544,1.680000,1.540000,-3.080000
55.116598,0.090768,0.084424,1.121912,2.660000,-3.220000,0.840000
55.124685,-0.119560,0.123464,1.318088,0.140000,2.100000,-3.920000
55.132773,-0.183488,0.077592,1.318088,0.980000,-2.520000,0.980000
55.140860,0.018544,0.159088,1.189744,2.240000,6.580000,-4.480000
55.148947,-0.165920,0.065392,1.250744,0.000000,-5.040000,-0.700000
55.157034,0.029280,0.081984,1.323456,2.240000,2.940000,-1.960000
55.165122,-0.214232,0.169824,1.190232,2.100000,1.820000,-1.260000
55.173209,-0.022448,0.104920,1.159000,-0.700000,-0.980000,0.560000
55.181296,-0.024888,0.040504,1.197064,2.240000,2.100000,-1.400000
55.189384,-0.216184,0.217160,1.159976,1.120000,-1.820000,0.420000
55.197471,0.136152,0.003904,0.993080,-0.140000,2.240000,-2.380000
55.205558,-0.308416,0.174216,1.208288,1.400000,-0.700000,0.140000
55.213645,0.161040,0.048800,0.832040,-1.820000,-0.420000,-0.140000
55.221733,-0.273280,0.153232,1.264896,2.100000,2.240000,-2.520000
55.229820,0.103456,0.040016,0.749080,-0.560000,-2.940000,0.980000
55.237907,-0.230824,0.167384,1.268800,0.000000,4.060000,-3.500000
55.245994,0.097112,-0.019520,0.659288,0.420000,-2.660000,2.100000
55.254082,-0.163968,0.217160,1.209752,0.560000,4.900000,-2.940000
55.262169,-0.006344,0.001464,0.725168,-1.120000,-0.280000,0.000000
55.270256,-0.113216,0.123952,0.952576,1.680000,3.220000,-1.820000
55.278344,-0.080520,0.117608,0.870592,-0.140000,-1.120000,-0.420000
55.286431,0.040992,-0.001464,0.739320,2.660000,3.500000,-0.280000
55.294518,-0.134688,0.136640,0.867176,-1.400000,2.240000,-0.700000
55.302605,-0.016592,0.081984,0.743712,1.260000,3.920000,-0.840000
55.310693,0.010736,0.040016,0.715896,1.260000,-2.520000,0.980000
55.318780,-0.114680,0.108824,0.809592,0.560000,2.100000,-1.540000
55.326867,-0.050752,0.070272,0.793976,-0.280000,3.360000,-2.380000
55.334955,0.010248,0.040992,0.658800,0.000000,-0.840000,0.420000
55.343042,-0.045872,0.083448,0.720776,0.840000,1.540000,0.840000
55.351129,-0.120536,0.103944,0.784704,-0.140000,2.240000,-1.820000
55.359216,0.011712,0.052704,0.776896,0.980000,2.660000,-2.520000
55.367304,0.004880,0.021472,0.625616,-0.560000,1.260000,0.560000
55.375391,-0.052704,0.095648,0.776408,0.840000,-1.820000,-0.420000
55.383478,-0.118096,0.120048,0.823744,0.140000,5.460000,-1.820000
55.391566,0.030744,0.013664,0.777872,3.360000,-1.400000,-1.260000
55.399653,-0.047824,0.053192,0.787144,-0.980000,0.840000,-0.560000
55.407740,-0.102480,0.141032,0.841312,0.980000,1.680000,-1.820000
55.415827,0.055144,0.021472,0.853512,3.080000,0.560000,-1.680000
55.423915,-0.089304,0.050752,0.869616,-0.700000,0.140000,0.000000
55.432002,-0.068808,0.164456,0.966728,3.780000,0.000000,-2.380000
55.440089,0.000000,-0.030744,0.935984,1.400000,0.980000,-1.960000
55.448176,-0.188368,0.218136,1.015040,-1.820000,0.700000,-0.980000
55.456264,0.071248,-0.037576,1.018944,4.900000,-0.420000,-2.100000
55.464351,-0.170312,0.208376,1.028216,-2.100000,1.680000,0.000000
55.472438,0.033672,-0.031232,1.063352,3.780000,-1.680000,-1.400000
55.480526,-0.142496,0.233752,1.081408,-1.120000,0.700000,-0.560000
55.488613,0.047336,-0.090280,1.091656,2.380000,1.960000,-2.520000
55.496700,-0.206424,0.239608,1.097024,-3.780000,-5.040000,1.260000
55.504787,0.125904,-0.014152,1.068720,3.220000,6.160000,-2.100000
55.512875,-0.284992,0.217648,1.213656,0.560000,-0.840000,0.000000
55.520962,0.200568,-0.028792,0.935496,-0.420000,1.400000,-2.380000
55.529049,-0.346968,0.191784,1.268800,-2.240000,-0.980000,0.000000
55.537137,0.234728,0.017080,0.951600,3.640000,0.140000,-0.420000
55.545224,-0.331352,0.145424,1.276120,-1.260000,6.720000,-2.240000
55.553311,0.143960,0.024888,0.860832,3.640000,-4.760000,1.680000
55.561398,-0.203008,0.181536,1.230248,-1.960000,2.240000,-1.820000
55.569486,0.083448,-0.021472,0.884744,3.080000,-0.700000,1.820000
55.577573,-0.185928,0.223992,1.183400,-1.820000,2.800000,-3.080000
55.585660,0.083936,-0.021960,0.859368,0.560000,0.700000,0.980000
55.593748,-0.176656,0.198616,1.095072,-6.020000,0.000000,-2.520000
55.601835,0.076128,0.010736,0.965752,-3.780000,0.560000,-0.980000
55.609922,-0.208864,0.192760,1.087264,-8.120000,3.360000,-1.680000
55.618009,0.068808,-0.041968,0.962336,-7.280000,0.140000,0.140000
55.626097,-0.200568,0.237656,1.150216,-5.880000,-1.680000,0.560000
55.634184,0.143960,-0.063440,0.945744,-6.020000,5.880000,-1.260000
55.642271,-0.217160,0.237168,1.086776,-6.440000,-1.680000,0.420000
55.650358,0.123464,-0.052704,1.002840,-5.600000,6.160000,-3.640000
55.658446,-0.209840,0.206912,1.089704,-8.400000,-3.640000,1.680000
55.666533,0.112728,-0.017568,1.118984,-4.200000,5.740000,-3.780000
55.674620,-0.226920,0.223016,1.160464,-8.260000,0.420000,1.120000
55.682708,0.132736,-0.058072,1.161440,-5.600000,2.240000,-4.200000
55.690795,-0.279624,0.227408,1.361032,-5.180000,-2.520000,2.100000
55.698882,0.213256,-0.027816,1.152168,-0.560000,5.600000,-3.220000
55.706969,-0.321592,0.094184,1.450824,8.400000,-3.080000,0.140000
55.715057,0.183000,0.196176,1.084824,4.060000,4.060000,-0.840000
55.723144,-0.122000,-0.004392,1.281488,3.500000,-2.660000,-2.520000
55.731231,-0.144448,0.205936,1.324920,-1.260000,-0.420000,1.120000
55.739319,0.151280,0.044896,1.140944,0.140000,8.260000,-3.640000
55.747406,-0.237656,0.073200,1.369328,1.680000,-3.080000,2.100000
55.755493,0.022448,0.183000,1.284904,-1.120000,0.840000,-0.280000
55.763580,0.039528,0.042456,1.275144,-0.840000,5.180000,-3.500000
55.771668,-0.189344,0.125416,1.330776,-0.420000,-1.400000,-1.260000
55.779755,-0.029768,0.119560,1.339560,-0.280000,-1.540000,0.140000
55.787842,0.059536,0.049776,1.275144,0.420000,7.840000,-2.100000
55.795930,-0.196176,0.181048,1.342000,-2.800000,1.820000,-1.400000
55.804017,-0.007808,0.053192,1.391776,0.140000,-5.180000,1.260000
55.812104,0.070760,0.075152,1.271240,0.560000,8.120000,-1.820000
55.820191,-0.133224,0.175680,1.357616,-2.380000,0.560000,-2.660000
55.828279,-0.087840,0.050752,1.356640,-1.540000,0.700000,0.000000
55.836366,0.038552,0.070760,1.279536,1.680000,1.260000,-0.840000
55.844453,-0.094184,0.186416,1.446920,-1.260000,4.620000,-2.100000
55.852541,-0.076616,0.065880,1.348832,0.840000,-1.400000,-1.400000
55.860628,0.023424,0.038064,1.310768,0.280000,2.380000,-0.840000
55.868715,-0.112728,0.156648,1.403976,0.420000,0.700000,-0.980000
55.876802,-0.063928,0.146888,1.364448,-0.280000,-1.120000,-0.560000
55.884890,0.014640,0.023912,1.302472,-0.140000,4.200000,-1.820000
55.892977,-0.097112,0.107360,1.404952,0.840000,1.820000,-1.960000
55.901064,-0.079544,0.186416,1.370304,0.140000,0.280000,-1.960000
55.909151,0.007808,0.039040,1.338096,0.140000,3.080000,-1.820000
55.917239,-0.082472,0.035136,1.366400,3.360000,0.140000,-0.700000
55.925326,-0.122976,0.212768,1.375672,-1.400000,0.000000,0.280000
55.933413,0.035136,0.107848,1.360056,-0.700000,-2.380000,-1.680000
55.941501,-0.039528,-0.027816,1.376648,1.540000,7.000000,-3.220000
55.949588,-0.154208,0.163480,1.362008,2.100000,-2.520000,-0.140000
55.957675,-0.020008,0.201544,1.397144,-0.140000,-2.380000,0.000000
55.965762,-0.004392,-0.025376,1.353224,-0.280000,7.140000,-1.680000
55.973850,-0.103944,0.087352,1.407880,3.780000,1.680000,0.560000
55.981937,-0.079544,0.212768,1.338096,-0.560000,-4.060000,0.980000
55.990024,0.061488,0.036600,1.370792,-1.680000,3.640000,-1.960000
55.998112,-0.084912,0.004880,1.403000,3.780000,0.560000,-0.980000
56.006199,-0.105408,0.234728,1.371768,0.000000,-1.400000,0.980000
56.014286,-0.010736,0.095160,1.278560,-3.640000,1.120000,0.000000
56.022373,0.009760,-0.034160,1.399096,2.800000,1.820000,-0.980000
56.030461,-0.122976,0.177144,1.320040,3.220000,-2.240000,-0.700000
56.038548,-0.037088,0.173728,1.176080,-2.660000,-0.420000,-0.140000
56.046635,0.021960,-0.081984,1.265384,0.560000,6.440000,-0.840000
56.054723,-0.106384,0.226432,1.243912,1.960000,0.280000,-0.840000
56.062810,-0.019032,0.048312,1.125816,-3.360000,-3.080000,-1.680000
56.070897,-0.029280,-0.007320,1.265872,2.660000,4.060000,-1.820000
56.078984,-0.117120,0.288896,1.128744,-5.180000,-0.560000,-0.280000
56.087072,0.030744,-0.111264,1.276120,0.000000,1.680000,-0.560000
56.095159,-0.067832,0.185928,1.260504,3.220000,3.220000,0.000000
56.103246,-0.069784,0.100040,1.126792,-4.060000,-0.980000,0.420000
56.111334,0.025376,-0.000976,1.277584,3.360000,1.120000,0.000000
56.119421,-0.115168,0.235216,1.105320,-3.080000,4.340000,-1.540000
56.127508,-0.021472,-0.050752,1.144360,3.500000,-2.660000,1.400000
56.135595,-0.015128,0.205448,1.153144,1.680000,2.940000,-0.980000
56.143683,-0.097112,0.027328,1.114104,-1.400000,-0.560000,-0.980000
56.151770,0.064416,0.075152,1.073112,4.060000,5.180000,-1.680000
56.159857,-0.189832,0.170800,1.032120,-0.700000,-5.320000,1.680000
56.167945,0.066856,-0.011224,1.008696,3.500000,-0.420000,-0.560000
56.176032,-0.195200,0.228384,1.076040,1.120000,-14.140000,0.420000
56.184119,0.084424,-0.110776,0.861320,0.560000,-17.500000,-1.260000
56.192206,-0.105408,0.274256,1.050176,-0.700000,-27.580000,1.120000
56.200294,0.105408,-0.050752,0.907680,0.560000,-10.360000,-1.680000
56.208381,-0.123464,0.173728,0.973072,2.100000,-6.860000,-1.260000
56.216468,-0.045872,0.044896,0.876936,-0.560000,-11.620000,0.280000
56.224556,0.055144,0.023912,0.845216,-0.280000,-17.639999,0.700000
56.232643,-0.079544,0.226432,0.988688,1.540000,-2.660000,-0.560000
56.240730,0.029768,-0.054168,0.817400,-0.420000,-10.640000,-1.400000
56.248817,-0.012688,0.158600,0.926224,-1.680000,-9.240000,-0.840000
56.256905,-0.061488,0.089304,0.901336,0.980000,-6.580000,-2.240000
56.264992,0.075152,-0.012200,0.913048,0.840000,-5.320000,-0.280000
56.273079,-0.107848,0.188856,0.945256,-0.840000,5.320000,-1.680000
56.281166,0.079056,-0.005856,0.938424,3.220000,4.620000,-2.100000
56.289254,-0.033672,0.114680,0.927688,-0.700000,5.740000,-1.400000
56.297341,-0.087840,0.098576,1.009672,3.080000,7.000000,-2.800000
56.305428,0.036112,0.015616,0.871568,0.000000,1.960000,0.560000
56.313516,-0.109312,0.177632,1.083360,0.700000,0.280000,-0.980000
56.321603,0.092720,0.004392,0.829112,0.280000,1.820000,-0.420000
56.329690,-0.132736,0.159576,1.123376,0.000000,-0.420000,-1.960000
56.337777,0.082472,-0.005856,0.838384,0.700000,0.700000,-1.260000
56.345865,-0.177632,0.192760,1.077992,-0.280000,-1.540000,0.560000
56.353952,0.074664,0.017568,0.854976,0.700000,3.920000,-2.240000
56.362039,-0.038064,0.085400,0.793976,1.260000,-0.980000,-0.560000
56.370127,-0.086376,0.158112,1.002840,-0.980000,-2.380000,-1.820000
56.378214,0.043432,-0.009760,0.764696,-0.840000,1.260000,-2.800000
56.386301,-0.101504,0.120536,0.820816,0.420000,1.540000,-0.420000
56.394388,-0.089304,0.129320,0.825208,1.820000,-1.120000,-0.980000
56.402476,0.017080,0.023424,0.712968,0.560000,-0.420000,-1.540000
56.410563,-0.096136,0.072224,0.638792,0.000000,-1.820000,-0.560000
56.418650,-0.063440,0.132736,0.685640,1.400000,-8.260000,0.000000
56.426738,-0.021472,0.104432,0.680272,0.420000,-4.900000,-1.120000
56.434825,-0.061000,0.044896,0.632936,0.980000,-7.280000,-0.140000
56.442912,0.058072,0.038552,0.588528,0.140000,-5.740000,-0.140000
56.450999,-0.068320,0.059048,0.605608,0.000000,-1.960000,0.280000
56.459087,-0.034160,0.098088,0.577304,0.980000,-6.440000,-0.280000
56.467174,-0.060024,0.113704,0.674416,0.840000,-4.340000,-1.120000
56.475261,-0.022936,0.092232,0.605120,0.840000,-3.640000,-1.260000
56.483349,-0.013664,0.067832,0.689056,2.380000,-6.160000,-0.980000
56.491436,0.027816,0.026352,0.627080,0.140000,2.940000,-0.280000
56.499523,-0.038064,0.074664,0.628056,0.560000,-0.700000,-0.560000
56.507610,-0.087352,0.125904,0.788120,1.120000,3.080000,-2.520000
56.515698,-0.090768,0.102480,0.752984,0.140000,3.500000,-2.100000
56.523785,0.066368,0.018544,0.706624,3.220000,-5.880000,0.280000
56.531872,-0.024888,0.091256,0.756888,0.000000,0.280000,-0.420000
56.539960,-0.122976,0.157624,0.844728,0.700000,2.240000,-1.680000
56.548047,0.011712,0.064904,0.820328,2.240000,-0.560000,-1.820000
56.556134,-0.020008,0.062464,0.777872,0.420000,-0.560000,-1.120000
56.564221,-0.132248,0.152744,0.935008,0.840000,3.920000,-1.960000
56.572309,0.008784,0.036600,0.820328,2.100000,-0.420000,-0.840000
56.580396,-0.053680,0.082960,0.873520,-0.140000,-2.240000,0.700000
56.588483,-0.111752,0.169824,0.998448,0.280000,4.060000,-2.100000
56.596570,0.049288,0.006344,0.803248,1.260000,-0.560000,-2.100000
56.604658,-0.119072,0.149816,0.961360,-1.120000,-0.980000,-0.280000
56.612745,-0.013664,0.081008,0.958920,1.540000,1.540000,-1.540000
56.620832,-0.042456,0.059048,0.918416,1.120000,-0.840000,0.700000
56.628920,-0.107360,0.195200,1.022360,-0.840000,2.940000,-2.240000
56.637007,0.058560,-0.016104,0.883280,-2.100000,0.700000,-0.840000
56.645094,-0.217160,0.213744,1.115080,-2.100000,-1.680000,-0.560000
56.653181,0.120536,-0.001952,0.939888,0.420000,3.080000,-2.660000
56.661269,-0.245952,0.189832,1.040904,-2.380000,-2.100000,-0.280000
56.669356,0.118584,0.035136,1.033584,-1.540000,1.540000,-1.960000
56.677443,-0.181048,0.132736,1.067256,-5.600000,0.700000,-0.420000
56.685531,0.046360,0.099552,1.121424,0.560000,3.080000,-3.920000
56.693618,-0.187880,0.114192,0.978440,-8.260000,-1.540000,0.140000
56.701705,0.038552,0.125904,1.186816,-2.940000,0.280000,-1.960000
56.709792,-0.115168,0.166896,0.999912,-14.000000,1.960000,-1.400000
56.717880,0.012688,0.042944,1.149728,-18.900000,5.460000,-3.640000
56.725967,-0.173728,0.270840,1.172664,-23.660000,-2.240000,-1.120000
56.734054,0.052216,-0.152744,1.183888,-14.000000,3.640000,-4.340000
56.742142,-0.202520,0.395768,1.262456,-19.180000,-3.780000,-1.680000
56.750229,0.086376,-0.157624,1.050664,-20.160000,4.340000,-2.520000
56.758316,-0.249856,0.276696,1.358592,-14.560000,-1.820000,-0.420000
56.766403,0.076616,0.061000,1.010160,-19.040001,0.280000,-0.700000
56.774491,-0.072712,0.016104,1.330776,-13.720000,3.780000,-2.940000
56.782578,-0.189344,0.288896,1.200968,-20.440001,-2.520000,-1.400000
56.790665,0.092232,-0.098088,1.112152,-15.540000,2.940000,-1.960000
56.798753,-0.206912,0.282552,1.310280,-18.059999,1.260000,-1.120000
