Time [s],lsm6dsv16x_acc_x [g],lsm6dsv16x_acc_y [g],lsm6dsv16x_acc_z [g],lsm6dsv16x_gyro_x [dps],lsm6dsv16x_gyro_y [dps],lsm6dsv16x_gyro_z [dps]
30.980458,0.148352,0.000976,0.825696,-0.700000,-5.320000,-1.120000
30.984523,0.239120,0.032696,0.980880,0.420000,-0.280000,-0.140000
30.988589,0.250344,-0.005368,1.138992,-2.240000,2.100000,0.420000
30.992655,0.128832,-0.000976,0.790560,-0.420000,-4.340000,-0.420000
30.996721,0.161040,0.143472,1.118496,0.560000,1.540000,-1.400000
31.000787,0.230824,-0.097600,0.992592,-2.520000,-1.120000,0.560000
31.004853,0.179096,0.076128,0.857904,0.420000,-3.920000,0.560000
31.008919,0.199592,0.120536,1.178520,0.280000,2.240000,-0.980000
31.012985,0.246440,-0.123464,0.931104,-4.060000,-1.400000,-0.560000
31.017051,0.184952,0.062464,0.885720,1.400000,-3.220000,0.420000
31.021117,0.167872,0.040016,1.205848,0.840000,2.940000,-1.120000
31.025183,0.182024,-0.106384,0.809104,-2.240000,-3.080000,-1.120000
31.029249,0.208376,0.096136,0.980392,0.840000,-2.100000,0.280000
31.033315,0.181536,0.027816,1.020408,-0.420000,2.660000,-0.980000
31.037381,0.224968,-0.014640,0.837896,-1.680000,-1.680000,0.000000
31.041447,0.196176,0.132736,1.128256,-0.280000,0.280000,0.140000
31.045513,0.177632,-0.025864,1.008696,-2.100000,0.420000,-0.980000
31.049579,0.178608,0.009272,0.915488,0.000000,-1.400000,-0.280000
31.053644,0.264984,0.047824,1.111176,-1.260000,1.960000,0.280000
31.057710,0.171288,-0.061488,0.866688,-1.120000,-1.820000,-1.120000
31.061776,0.132736,0.113704,1.032608,1.120000,-1.400000,-0.420000
31.065842,0.248392,0.001464,1.052616,-2.800000,2.380000,-0.140000
31.069908,0.223504,-0.051240,0.853512,-1.120000,-1.540000,-0.420000
31.073974,0.142984,0.091744,1.051640,2.380000,-0.280000,-1.260000
31.078040,0.221064,-0.011712,1.027728,-2.660000,1.540000,0.700000
31.082106,0.172264,0.032208,0.880352,-0.140000,-0.280000,0.280000
31.086172,0.204960,0.107848,1.136552,1.960000,0.700000,-0.560000
31.090238,0.214720,-0.082960,0.826672,-3.220000,-0.980000,-0.840000
31.094304,0.242536,0.005368,1.031144,-1.540000,0.420000,-0.700000
31.098370,0.150304,0.073688,1.118984,1.260000,2.940000,-0.280000
31.102436,0.120536,-0.035136,0.815448,-1.400000,-0.840000,0.700000
31.106502,0.257664,0.103456,1.077992,0.140000,0.980000,-0.560000
31.110568,0.180560,-0.026840,1.043832,-0.280000,-1.820000,-1.120000
31.114634,0.156160,0.021960,0.815448,-1.120000,-3.920000,-0.840000
31.118700,0.275232,0.092720,1.189744,-1.820000,3.780000,-0.420000
31.122765,0.216184,-0.049776,1.016992,-1.680000,0.700000,0.140000
31.126831,0.081984,0.082472,0.818864,0.840000,-1.680000,-0.700000
31.130897,0.267424,0.012688,1.171200,-1.540000,3.080000,-0.980000
31.134963,0.185440,-0.138592,0.814472,-1.400000,-3.500000,0.560000
31.139029,0.171288,0.124928,0.952088,2.660000,-1.400000,-0.420000
31.143095,0.245952,-0.012688,1.150704,-2.380000,6.020000,-1.120000
31.147161,0.153720,-0.048800,0.802760,-1.400000,-1.260000,0.420000
31.151227,0.105896,0.157136,1.049688,2.520000,-0.280000,-1.400000
31.155293,0.254736,-0.014152,1.021872,-2.380000,0.560000,-0.980000
31.159359,0.254736,0.014640,0.925736,-2.100000,-2.240000,0.140000
31.163425,0.210816,0.148840,1.159488,1.540000,2.940000,0.560000
31.167491,0.105896,-0.051240,0.928176,-2.100000,3.220000,-0.840000
31.171557,0.284992,-0.042944,0.900848,-1.120000,-0.420000,-0.560000
31.175623,0.161528,0.023424,1.083360,-1.120000,0.280000,-0.420000
31.179689,0.135664,0.004392,0.926224,-0.140000,-0.420000,-0.980000
31.183755,0.201056,0.058560,1.012112,0.980000,0.840000,-0.560000
31.187820,0.215696,-0.000488,1.008208,-2.240000,0.840000,0.140000
31.191886,0.157624,0.014152,0.865712,0.000000,-2.100000,-0.840000
31.195952,0.221552,0.104432,1.141920,0.000000,2.520000,-0.840000
31.200018,0.203984,-0.081008,0.889136,-2.380000,-0.560000,0.700000
31.204084,0.190320,0.088328,0.974048,0.280000,0.000000,-0.700000
31.208150,0.219112,0.021472,1.183400,0.140000,3.640000,-1.120000
31.212216,0.180072,-0.115656,0.774944,-2.380000,-0.420000,0.700000
31.216282,0.170312,0.139080,1.048224,1.540000,0.000000,-0.280000
31.220348,0.174704,0.057096,1.089704,-1.120000,0.560000,-0.980000
31.224414,0.209840,-0.003904,0.758352,-2.100000,-3.220000,-0.280000
31.228480,0.262544,0.106872,1.221952,0.420000,2.240000,-0.700000
31.232546,0.123952,-0.061000,0.983320,-1.120000,0.560000,-1.260000
31.236612,0.200080,0.013664,0.836920,-0.560000,-0.560000,0.560000
31.240678,0.241560,0.041480,1.180960,-1.120000,3.780000,0.000000
31.244744,0.151768,-0.073200,0.852048,-0.560000,-2.520000,-1.400000
31.248810,0.210328,0.090280,0.976000,0.700000,0.000000,-0.140000
31.252876,0.164456,0.004880,1.077504,-1.820000,4.480000,-0.420000
31.256941,0.151768,-0.064416,0.808616,0.140000,-4.060000,-1.120000
31.261007,0.200568,0.165432,1.110688,0.280000,1.400000,0.560000
31.265073,0.208376,-0.022936,1.069696,-2.520000,1.260000,0.140000
31.269139,0.176168,0.010736,0.862784,1.820000,-5.320000,-0.980000
31.273205,0.219600,0.111752,1.096048,-0.700000,1.260000,-0.420000
31.277271,0.242048,-0.107360,0.900360,-4.480000,0.420000,-0.420000
31.281337,0.154208,0.114192,1.050664,1.540000,-0.420000,-0.140000
31.285403,0.130784,0.035624,1.044808,0.700000,1.260000,-0.140000
31.289469,0.276208,-0.114680,0.788120,-2.940000,-1.260000,-0.280000
31.293535,0.195688,0.126880,1.189256,0.700000,1.540000,-0.420000
31.297601,0.127368,0.050752,0.925736,-0.420000,0.280000,-0.980000
31.301667,0.263520,0.016104,0.922320,-2.240000,0.140000,-0.560000
31.305733,0.236192,-0.002440,1.157536,-0.280000,3.360000,0.140000
31.309799,0.091744,-0.047824,0.791536,-0.140000,-2.100000,-0.560000
31.313865,0.301096,0.075152,1.028704,-0.700000,2.100000,-0.420000
31.317931,0.195200,-0.060024,1.115080,-1.820000,5.180000,-0.420000
31.321997,0.073200,-0.001952,0.744688,0.560000,-2.940000,-0.280000
31.326062,0.207400,0.160064,1.084824,0.420000,3.500000,-0.420000
31.330128,0.203008,-0.066368,1.089704,-2.940000,1.540000,-0.560000
31.334194,0.182024,0.071736,0.812032,1.400000,-6.720000,-0.700000
31.338260,0.210816,0.123952,1.205360,-1.400000,4.760000,0.140000
31.342326,0.209352,-0.136152,0.988688,-3.220000,2.380000,-0.420000
31.346392,0.180560,0.122488,0.850096,2.240000,-3.500000,0.140000
31.350458,0.193736,0.083448,1.190232,-0.840000,3.780000,-1.120000
31.354524,0.190320,-0.163968,0.832528,-2.520000,-1.120000,-0.840000
31.358590,0.222040,0.102968,1.003816,2.940000,-1.680000,0.700000
31.362656,0.129320,0.038552,1.038952,-1.120000,4.480000,-0.420000
31.366722,0.201056,-0.042944,0.861808,-1.960000,-1.120000,-0.980000
31.370788,0.212768,0.101992,1.068232,1.820000,-0.560000,0.560000
31.374854,0.153232,-0.044408,1.007232,-1.820000,2.380000,-0.420000
31.378920,0.224480,0.018056,0.890112,-0.280000,0.420000,-0.840000
31.382986,0.239120,0.047824,1.111664,-0.560000,0.560000,-0.140000
31.387052,0.102968,-0.033184,0.864248,-1.820000,-0.560000,-1.680000
31.391118,0.228384,0.105408,1.076528,0.980000,1.960000,0.140000
31.395183,0.276696,-0.023424,0.973560,-1.540000,3.360000,0.000000
31.399249,0.112240,0.007808,0.823256,-0.980000,-0.420000,-0.420000
31.403315,0.149328,0.117120,1.163880,1.120000,3.920000,-1.120000
31.407381,0.273768,-0.070760,0.991128,-2.660000,1.960000,0.560000
31.411447,0.170800,0.058560,0.904264,0.140000,0.140000,-0.420000
31.415513,0.192272,0.087352,1.175104,1.260000,3.220000,-1.680000
31.419579,0.195200,-0.086376,0.867664,-2.380000,-0.420000,0.140000
31.423645,0.181536,0.073688,0.921344,-0.140000,2.100000,0.140000
31.427711,0.193736,0.018056,1.217560,0.140000,3.920000,-0.980000
31.431777,0.169336,-0.092720,0.710040,-2.100000,-0.980000,0.140000
31.435843,0.197640,0.138592,1.089216,0.140000,2.520000,-0.560000
31.439909,0.159576,-0.019520,1.064816,-0.280000,3.220000,-1.260000
31.443975,0.199104,-0.021472,0.780800,-0.700000,-1.820000,-0.280000
31.448041,0.244000,0.136640,1.187304,0.140000,3.640000,0.420000
31.452107,0.154208,-0.028792,1.032608,-1.120000,2.100000,-1.120000
31.456173,0.128344,0.046848,0.833992,0.840000,-1.540000,-1.400000
31.460238,0.314272,0.006832,1.121424,-2.660000,4.340000,-0.140000
31.464304,0.135176,-0.043920,0.886696,-2.240000,1.680000,-0.280000
31.468370,0.107848,0.157624,1.029680,3.220000,-0.700000,0.140000
31.472436,0.236680,-0.044408,1.048712,-1.820000,4.060000,-0.700000
31.476502,0.231800,-0.079056,0.884744,-1.260000,0.000000,-0.420000
31.480568,0.128832,0.133712,1.019920,2.660000,1.120000,-0.560000
31.484634,0.176656,-0.006344,1.038952,-3.360000,4.060000,0.000000
31.488700,0.195200,-0.002928,0.927688,-1.540000,-0.280000,-0.560000
31.492766,0.179096,0.094672,1.106296,1.820000,-0.140000,-0.840000
31.496832,0.163968,-0.079544,0.915976,-2.800000,1.260000,-0.700000
31.500898,0.254248,0.031232,0.964288,-0.700000,1.260000,0.140000
31.504964,0.173728,0.070272,1.096536,0.560000,1.260000,0.000000
31.509030,0.145424,-0.026840,0.779336,-1.680000,0.840000,-0.840000
31.513096,0.273768,0.061488,1.146800,0.420000,1.820000,-0.700000
31.517162,0.123952,0.007808,0.951600,-0.420000,1.960000,-0.700000
31.521228,0.209840,0.056608,0.902312,-0.140000,-0.560000,-0.280000
31.525294,0.216672,0.070760,1.180960,-1.680000,6.580000,-0.420000
31.529359,0.157624,-0.039040,0.948672,-0.840000,-0.980000,0.000000
31.533425,0.123464,0.082960,0.891576,0.700000,-0.560000,-0.560000
31.537491,0.263520,-0.020008,1.203408,-2.240000,5.460000,-1.400000
31.541557,0.163480,-0.116632,0.774944,-0.420000,-3.220000,0.980000
31.545623,0.142984,0.129808,0.998936,2.240000,1.680000,-0.840000
31.549689,0.240096,-0.021960,1.138504,-2.240000,5.600000,-1.400000
31.553755,0.138592,-0.045384,0.722240,-1.820000,-3.220000,0.140000
31.557821,0.147376,0.220576,1.100440,1.400000,1.540000,-0.280000
31.561887,0.234728,-0.033672,1.107760,-2.660000,3.920000,-0.840000
31.565953,0.179096,-0.030256,0.839848,-0.700000,-2.940000,0.280000
31.570019,0.211792,0.143472,1.168272,0.140000,2.380000,-0.420000
31.574085,0.142496,-0.094184,0.976488,-2.660000,0.980000,-1.540000
31.578151,0.232776,0.031720,0.908656,0.140000,-1.260000,0.560000
31.582217,0.157624,0.074664,1.073112,0.420000,2.660000,-0.280000
31.586283,0.156160,-0.066368,0.886696,-0.840000,-0.280000,-1.120000
31.590349,0.205936,0.080520,1.002840,-0.140000,1.120000,-0.420000
31.594415,0.162992,-0.040504,0.995520,-2.240000,3.360000,-0.280000
31.598480,0.197152,0.029768,0.942328,-0.280000,0.140000,-1.260000
31.602546,0.222528,0.130296,1.144848,0.420000,3.080000,0.140000
31.606612,0.183488,-0.103456,0.881328,-1.680000,1.680000,0.280000
31.610678,0.176168,0.085888,0.961360,0.840000,1.400000,-0.980000
31.614744,0.162504,0.040992,1.079456,-1.680000,3.360000,-0.980000
31.618810,0.192272,-0.035624,0.865224,-3.220000,-0.420000,-0.140000
31.622876,0.210328,0.057584,1.056032,2.100000,0.700000,-0.700000
31.626942,0.128344,0.004392,1.093120,-0.700000,2.520000,-0.560000
31.631008,0.194712,-0.003904,0.812520,-1.120000,-1.400000,-0.140000
31.635074,0.234728,0.102480,1.179008,0.840000,3.080000,-0.280000
31.639140,0.114680,-0.007808,0.969656,-0.840000,0.140000,-0.980000
31.643206,0.179584,0.032696,0.815936,-1.540000,-2.800000,-0.140000
31.647272,0.242536,0.054168,1.217560,-1.260000,4.760000,-0.280000
31.651338,0.140056,-0.086864,0.896456,-0.840000,-0.840000,0.000000
31.655404,0.172264,0.074664,0.924272,0.420000,0.700000,-0.140000
31.659470,0.200568,-0.019520,1.171688,-0.980000,4.620000,-0.420000
31.663536,0.146400,-0.071248,0.788608,-0.420000,-4.620000,-0.700000
31.667601,0.149816,0.163968,0.946720,0.980000,1.260000,-0.560000
31.671667,0.298656,-0.011224,1.190720,-3.640000,2.800000,-0.840000
31.675733,0.099064,0.025376,0.803736,-0.700000,-3.640000,-0.420000
31.679799,0.161040,0.179584,1.179496,1.960000,2.100000,-0.140000
31.683865,0.285480,-0.147864,0.939888,-3.780000,3.360000,-0.420000
31.687931,0.173240,0.024888,0.891088,0.560000,-1.680000,0.280000
31.691997,0.117608,0.132248,1.116544,1.120000,2.240000,-0.980000
31.696063,0.245464,-0.121512,0.918416,-3.080000,1.960000,-0.420000
31.700129,0.196176,0.022936,1.004792,1.120000,1.540000,-0.280000
31.704195,0.115656,0.065392,1.016016,0.700000,1.820000,-0.840000
31.708261,0.166896,-0.046360,0.880840,-2.380000,1.540000,-0.700000
31.712327,0.168848,0.096136,1.110200,0.280000,0.980000,0.140000
31.716393,0.133224,0.034160,0.923784,0.840000,-2.100000,-0.840000
31.720459,0.256200,0.020496,0.941352,-2.100000,0.840000,-0.420000
31.724525,0.201056,0.032208,1.191696,-1.540000,4.060000,-0.140000
31.728591,0.104432,-0.013176,0.892552,-1.260000,-2.100000,0.000000
31.732656,0.179584,0.093696,1.009184,-0.140000,-0.140000,-0.560000
31.736722,0.272792,-0.049776,1.094096,-1.960000,1.540000,-0.420000
31.740788,0.157136,-0.046848,0.762256,0.980000,-4.900000,-0.420000
31.744854,0.189344,0.116144,1.085312,1.400000,3.920000,-0.700000
31.748920,0.179584,-0.053192,1.078480,-3.220000,4.760000,-0.980000
31.752986,0.105896,0.040504,0.763720,-0.420000,-2.520000,0.980000
31.757052,0.191296,0.136152,1.203896,1.400000,1.400000,-0.840000
31.761118,0.200568,-0.112240,0.950624,-3.360000,0.420000,-0.980000
31.765184,0.209840,0.060024,0.897432,0.000000,-2.940000,0.840000
31.769250,0.178120,0.090280,1.191208,0.280000,4.060000,-0.700000
31.773316,0.135176,-0.056120,0.895968,-2.520000,-0.280000,-0.980000
31.777382,0.227408,0.059536,0.917928,0.000000,-2.660000,0.140000
31.781448,0.131272,0.033672,1.106784,-0.140000,1.820000,-0.840000
31.785514,0.140544,-0.053192,0.882792,-0.840000,-2.380000,-0.560000
31.789580,0.233752,0.117608,1.025288,0.700000,-0.840000,0.000000
31.793646,0.207888,-0.024888,1.080920,-2.660000,3.780000,-0.140000
31.797712,0.179584,0.026840,0.868152,-0.140000,-3.360000,-0.420000
31.801777,0.151768,0.113704,1.103856,0.140000,1.540000,-0.280000
31.805843,0.196664,-0.119560,0.954528,-2.240000,0.140000,-0.420000
31.809909,0.173240,0.037088,0.918416,1.680000,-3.360000,-0.980000
31.813975,0.213256,0.049288,1.103856,-0.420000,2.240000,-0.420000
31.818041,0.165920,-0.055632,0.888648,-2.940000,2.100000,0.140000
31.822107,0.150304,0.114192,0.998936,1.960000,-1.400000,-0.560000
31.826173,0.119560,0.004392,1.001376,-1.540000,1.120000,-0.980000
31.830239,0.231800,-0.005368,0.907680,-2.800000,-3.080000,-0.140000
31.834305,0.182024,0.115656,1.168760,1.260000,-0.140000,0.280000
31.838371,0.130296,0.003416,0.963312,-0.840000,-0.140000,0.000000
31.842437,0.244488,-0.017080,0.905728,-2.380000,-1.120000,-0.700000
31.846503,0.249368,0.054168,1.159976,0.280000,1.960000,-0.140000
31.850569,0.074664,-0.021960,0.820816,-0.700000,-2.520000,-0.840000
31.854635,0.236192,0.049288,0.981368,-0.560000,1.960000,-0.560000
31.858701,0.164456,-0.032208,1.154120,-1.820000,2.240000,-0.420000
31.862767,0.108336,-0.005856,0.777384,0.700000,-4.760000,0.000000
31.866833,0.239608,0.106872,1.102880,0.420000,2.800000,0.140000
31.870898,0.160064,-0.051240,1.067744,-2.940000,0.700000,-0.420000
31.874964,0.135664,0.042456,0.780312,0.840000,-7.280000,-1.120000
31.879030,0.204960,0.106872,1.148752,-1.120000,2.660000,-1.260000
31.883096,0.239120,-0.077592,1.043832,-3.080000,1.680000,-0.140000
31.887162,0.142984,0.102968,0.873520,2.100000,-4.340000,0.980000
31.891228,0.136640,0.086864,1.203896,0.420000,2.380000,-1.260000
31.895294,0.250344,-0.121512,0.876448,-3.920000,-2.940000,-0.560000
31.899360,0.173240,0.041480,0.895480,0.840000,-2.660000,0.560000
31.903426,0.150304,0.044896,1.126792,-0.560000,2.100000,-0.840000
31.907492,0.192760,-0.053680,0.845216,-2.940000,-1.820000,-0.700000
31.911558,0.145424,0.075152,1.039440,1.820000,-2.660000,0.420000
31.915624,0.129808,-0.013176,1.000400,-0.140000,-0.420000,-1.120000
31.919690,0.277672,0.022936,0.933544,-1.260000,-1.680000,0.140000
31.923756,0.229360,0.123464,1.103368,-0.980000,0.560000,0.000000
31.927822,0.142984,0.006832,0.909144,-1.680000,-1.540000,-0.700000
31.931888,0.168848,0.040016,0.991128,0.560000,-0.840000,-0.280000
31.935953,0.200568,-0.035136,1.111176,-0.980000,1.960000,-0.140000
31.940019,0.156648,-0.049288,0.848144,-1.260000,-2.800000,-0.560000
31.944085,0.143472,0.129808,1.066280,0.560000,-0.700000,-0.280000
31.948151,0.206912,-0.001464,1.068232,-1.120000,-0.140000,-0.420000
31.952217,0.157136,0.001464,0.784216,0.140000,-3.360000,-0.420000
31.956283,0.188856,0.074664,1.158024,0.560000,-0.280000,-1.120000
31.960349,0.184464,-0.033672,0.999424,-3.780000,-0.420000,0.000000
31.964415,0.182024,0.046360,0.911584,0.560000,-2.800000,1.120000
31.968481,0.178120,0.054168,1.113616,0.420000,2.240000,-0.700000
31.972547,0.155672,-0.064904,0.843264,-2.240000,-3.640000,-1.120000
31.976613,0.226432,0.021960,0.978440,0.280000,-3.080000,-0.140000
31.980679,0.177144,0.066368,1.148752,-0.560000,1.820000,-0.840000
31.984745,0.138592,-0.027328,0.767136,-0.700000,-2.660000,-0.280000
31.988811,0.243024,0.130296,1.119472,0.000000,-0.140000,-0.140000
31.992877,0.155672,-0.007320,1.062376,-1.400000,0.140000,-0.280000
31.996943,0.135176,0.017568,0.839360,1.260000,-4.620000,-0.420000
32.001009,0.236680,0.059536,1.084824,-1.400000,1.120000,-0.840000
32.005074,0.239120,-0.084424,1.000888,-3.500000,-0.280000,-0.840000
32.009140,0.124440,0.083936,0.941352,1.680000,-1.960000,-0.140000
32.013206,0.185440,0.019520,1.130696,-0.420000,4.060000,0.000000
32.017272,0.158112,-0.101016,0.882304,-2.380000,-2.800000,-0.700000
32.021338,0.189344,0.136152,0.976976,2.660000,-4.480000,-0.140000
32.025404,0.137616,0.015616,1.080920,-2.800000,2.380000,-1.260000
32.029470,0.215696,-0.059536,0.837896,-1.680000,-2.940000,-0.700000
32.033536,0.137128,0.071248,1.018944,2.100000,-2.660000,-0.420000
32.037602,0.184952,0.015616,1.020408,-2.380000,1.820000,-0.700000
32.041668,0.231800,0.022448,0.996496,-1.820000,-1.820000,-0.140000
32.045734,0.184464,0.113216,1.110200,2.100000,-1.540000,-0.560000
32.049800,0.138104,-0.041968,0.873520,-1.260000,-2.380000,-0.840000
32.053866,0.296704,0.038064,0.988688,-2.800000,-0.840000,-0.280000
32.057932,0.145912,0.038064,1.149240,0.000000,-0.280000,-0.280000
32.061998,0.064416,0.007320,0.789584,0.140000,-3.220000,-0.560000
32.066064,0.285480,0.036600,1.095560,-0.840000,0.560000,0.000000
32.070129,0.109312,-0.071248,0.983320,-1.400000,-0.560000,-0.140000
32.074195,0.207888,0.086376,0.869616,1.260000,-5.600000,-0.280000
32.078261,0.227408,0.063928,1.160952,-1.400000,3.780000,-0.840000
32.082327,0.162992,-0.074176,0.901336,-1.960000,-2.380000,0.280000
32.086393,0.172752,0.093208,0.884744,1.820000,-3.640000,-0.280000
32.090459,0.237656,0.010736,1.206336,-3.080000,5.600000,-1.400000
32.094525,0.180560,-0.098088,0.757376,-2.100000,-3.640000,0.140000
32.098591,0.119072,0.169824,1.016016,2.940000,-0.560000,0.000000
32.102657,0.182512,-0.037088,1.089704,-1.400000,3.920000,-1.260000
32.106723,0.217648,-0.046848,0.856440,-0.980000,-3.080000,0.420000
32.110789,0.193736,0.203008,1.120448,1.680000,0.840000,-0.700000
32.114855,0.194224,-0.051728,1.032120,-2.800000,2.240000,-1.260000
32.118921,0.155184,-0.017568,0.839848,-1.260000,-1.400000,-0.560000
32.122987,0.202520,0.102480,1.184376,0.700000,0.420000,0.420000
32.127053,0.119560,-0.048800,0.914024,-1.820000,0.140000,-1.400000
32.131119,0.245464,0.030256,0.955992,0.560000,-1.540000,0.420000
32.135184,0.167872,0.035136,1.039440,-0.840000,2.240000,0.140000
32.139250,0.157624,-0.035136,0.887672,-0.140000,-1.400000,-1.400000
32.143316,0.212768,0.058560,1.052616,0.140000,0.280000,-0.700000
32.147382,0.157136,-0.006832,1.012112,-2.800000,2.100000,0.420000
32.151448,0.156648,0.062952,0.878888,0.840000,-2.240000,-1.120000
32.155514,0.210328,0.066368,1.118496,0.980000,1.260000,-0.840000
32.159580,0.181536,-0.081984,0.927688,-3.500000,-0.840000,-0.140000
32.163646,0.207400,0.117608,0.966728,-0.140000,-0.700000,-0.280000
32.167712,0.137616,0.038064,1.195112,-0.140000,2.660000,-0.700000
32.171778,0.225944,-0.098088,0.771528,-1.820000,-1.820000,-0.700000
32.175844,0.224480,0.090768,1.076040,0.980000,-1.120000,-0.420000
32.179910,0.068808,0.023912,1.095560,-0.420000,0.980000,-1.260000
32.183976,0.192760,-0.026352,0.749568,-1.260000,-3.080000,0.000000
32.188042,0.238632,0.094184,1.170712,-0.560000,2.940000,-0.140000
32.192108,0.134688,-0.020008,0.978440,-0.700000,-1.820000,-1.680000
32.196174,0.208864,0.056120,0.852048,-0.840000,-2.240000,-0.420000
32.200239,0.203984,0.026840,1.214144,-1.260000,3.920000,0.560000
32.204305,0.108824,-0.071248,0.826184,-0.420000,-1.820000,-0.840000
32.208371,0.235216,0.072224,0.923296,0.700000,-1.400000,0.140000
32.212437,0.206424,0.003416,1.153144,-3.080000,3.780000,-0.840000
32.216503,0.152744,-0.040504,0.838872,0.140000,-3.220000,-0.560000
32.220569,0.118096,0.161040,1.035536,2.240000,0.560000,-0.140000
32.224635,0.258152,-0.041968,1.108736,-3.780000,2.660000,-0.980000
32.228701,0.193248,0.007808,0.837896,0.280000,-4.480000,-0.140000
32.232767,0.145424,0.186904,1.168760,1.680000,0.980000,-0.140000
32.236833,0.207400,-0.118584,0.972096,-3.780000,2.800000,-0.840000
32.240899,0.153232,-0.021960,0.835456,-0.280000,-2.660000,-0.560000
32.244965,0.221552,0.066856,1.151680,1.260000,0.420000,-0.980000
32.249031,0.162504,-0.087352,0.869128,-2.660000,2.520000,-0.280000
32.253097,0.177144,0.079056,1.030656,1.540000,-0.560000,0.000000
32.257163,0.130784,0.055144,1.014064,0.140000,-1.400000,-0.840000
32.261229,0.182024,0.010248,0.846680,-2.940000,-0.840000,-0.980000
32.265295,0.255224,0.063440,1.122400,0.280000,0.420000,0.280000
32.269360,0.131760,-0.002440,0.945256,-0.840000,-0.840000,0.140000
32.273426,0.179584,0.046848,0.977464,-0.980000,-0.420000,-0.840000
32.277492,0.236680,0.057096,1.174616,-0.840000,3.220000,-0.560000
32.281558,0.157624,-0.045384,0.850584,-1.120000,-1.260000,-0.420000
32.285624,0.154696,0.088816,0.925736,0.560000,-1.400000,-1.120000
32.289690,0.213256,0.003416,1.182424,-2.380000,3.080000,-0.980000
32.293756,0.162504,-0.084424,0.828624,-0.560000,-3.360000,0.700000
32.297822,0.178120,0.087352,1.044808,2.380000,1.400000,-0.560000
32.301888,0.188856,-0.069784,1.043832,-2.800000,2.800000,-1.260000
32.305954,0.122000,0.010248,0.778360,-1.540000,-3.500000,0.000000
32.310020,0.149328,0.158112,1.159000,1.260000,0.000000,-0.980000
32.314086,0.228384,-0.005368,1.036512,-1.820000,-0.140000,-1.120000
32.318152,0.211792,0.017568,0.838872,-0.980000,-4.060000,0.280000
32.322218,0.206912,0.107848,1.199992,-0.700000,3.080000,-0.700000
32.326284,0.163968,-0.088816,0.902312,-1.680000,-0.420000,-0.560000
32.330350,0.214720,0.055632,0.940376,-0.420000,-1.540000,0.000000
32.334415,0.175192,0.052216,1.095072,-1.260000,3.360000,-0.700000
32.338481,0.126880,-0.062952,0.892552,-0.700000,-3.220000,-0.280000
32.342547,0.172264,0.105408,0.979416,0.980000,-0.280000,-0.420000
32.346613,0.205936,-0.053192,1.046760,-1.540000,1.960000,-0.560000
32.350679,0.114680,0.003416,0.875472,-0.280000,-3.360000,-1.260000
32.354745,0.266448,0.152256,1.155096,-0.280000,1.680000,0.140000
32.358811,0.193736,-0.106872,0.943304,-2.380000,1.680000,0.140000
32.362877,0.141520,0.066856,0.897432,2.100000,-2.800000,-1.400000
32.366943,0.181536,0.077104,1.120936,-0.980000,1.260000,-0.420000
32.371009,0.222040,-0.083448,0.857904,-3.780000,1.120000,-0.140000
32.375075,0.169824,0.108336,1.056032,2.100000,-0.420000,-0.420000
32.379141,0.117608,0.034648,1.054080,-0.840000,1.820000,-0.420000
32.383207,0.201056,-0.062464,0.838384,-1.680000,-3.360000,-1.120000
32.387273,0.220576,0.066856,1.169736,0.560000,0.980000,-0.140000
32.391339,0.120048,0.040016,0.951600,-1.260000,-0.560000,-0.140000
32.395405,0.174704,0.044408,0.856928,-1.540000,-1.400000,-0.560000
32.399470,0.256200,0.012200,1.185352,0.140000,2.380000,-0.560000
32.403536,0.160064,-0.074664,0.827648,-0.840000,-1.540000,-0.280000
32.407602,0.219112,0.071736,0.993568,-0.700000,1.120000,-0.420000
32.411668,0.213256,-0.013664,1.148752,-1.680000,4.900000,-0.560000
32.415734,0.089792,-0.041968,0.717360,-0.140000,-4.060000,-0.560000
32.419800,0.178120,0.161528,1.091656,0.980000,2.240000,-0.420000
32.423866,0.224480,-0.044896,1.124840,-2.660000,2.940000,-0.700000
32.427932,0.135176,0.036600,0.779824,0.280000,-5.460000,-0.140000
32.431998,0.171776,0.173728,1.169248,0.280000,3.780000,-0.840000
32.436064,0.247416,-0.135176,1.010160,-3.780000,2.380000,-0.560000
32.440130,0.181048,0.061976,0.876448,1.540000,-2.660000,0.700000
32.444196,0.113704,0.111264,1.177056,-0.140000,3.640000,-0.980000
32.448262,0.189344,-0.142984,0.905240,-3.780000,0.280000,-0.980000
32.452328,0.208864,0.034648,0.874496,1.400000,-2.800000,0.560000
32.456394,0.136640,0.101992,1.114104,0.420000,2.660000,-0.980000
32.460460,0.165432,-0.112728,0.862296,-2.380000,0.840000,-1.540000
32.464525,0.243024,0.106872,1.056520,0.980000,-0.980000,1.120000
32.468591,0.065880,0.039528,0.980392,-0.560000,2.100000,-0.560000
32.472657,0.201056,0.013176,0.941840,-0.280000,-1.260000,-0.980000
32.476723,0.286456,0.059536,1.099464,-0.140000,-0.140000,0.140000
32.480789,0.153232,-0.015616,0.965752,-1.960000,1.260000,-0.420000
32.484855,0.172752,0.059536,0.971608,0.280000,1.400000,-1.260000
32.488921,0.236680,0.008296,1.090680,-1.260000,1.540000,-0.280000
32.492987,0.121024,-0.042944,0.810080,-1.260000,-1.540000,-0.840000
32.497053,0.176656,0.121512,1.089216,1.820000,2.100000,-0.560000
32.501119,0.222528,-0.038064,0.983808,-1.960000,2.380000,-0.140000
32.505185,0.159088,-0.018544,0.836920,-1.540000,0.420000,-0.140000
32.509251,0.167872,0.123952,1.216096,1.260000,3.360000,-1.400000
32.513317,0.180560,-0.065392,0.924760,-2.380000,0.980000,-0.420000
32.517383,0.183976,0.045872,0.883768,-0.560000,0.560000,0.700000
32.521449,0.128832,0.092232,1.169736,0.700000,3.360000,-0.840000
32.525515,0.168848,-0.059536,0.851560,-1.260000,-2.100000,-0.700000
32.529581,0.280112,0.038552,0.986736,-0.280000,0.560000,0.140000
32.533646,0.132736,0.028304,1.179984,-0.140000,3.080000,-0.840000
32.537712,0.107360,-0.009272,0.765672,-0.840000,-1.960000,-1.120000
32.541778,0.249856,0.080520,1.066768,-1.260000,2.380000,0.000000
32.545844,0.160552,-0.040504,1.074576,-1.260000,2.660000,-0.560000
32.549910,0.118096,0.073688,0.861320,1.820000,-4.200000,0.000000
32.553976,0.240584,0.108336,1.157048,-1.400000,4.760000,-0.140000
32.558042,0.196664,-0.135664,0.971608,-2.940000,0.280000,-0.140000
32.562108,0.149328,0.057096,0.860344,2.520000,-2.240000,-0.420000
32.566174,0.194712,0.021472,1.095072,-0.980000,4.760000,-0.280000
32.570240,0.173728,-0.095160,0.876936,-3.080000,0.840000,-0.840000
32.574306,0.149328,0.112240,0.981368,2.520000,-2.240000,-0.280000
32.578372,0.121512,0.068808,1.073112,-0.840000,4.900000,-0.420000
32.582438,0.258152,-0.036112,0.901336,-2.240000,0.560000,-0.280000
32.586504,0.143472,0.116144,1.080432,1.260000,-2.100000,-0.980000
32.590570,0.132248,0.025864,1.032120,-1.540000,0.840000,-0.560000
32.594636,0.255712,-0.010736,0.968680,-2.520000,1.260000,-0.700000
32.598701,0.183488,0.027816,1.118496,0.980000,-0.140000,-0.140000
32.602767,0.081984,0.032208,0.886696,-1.400000,-0.700000,-0.700000
32.606833,0.269864,-0.011712,0.972096,-0.560000,0.140000,-0.420000
32.610899,0.170800,0.010736,1.070672,-0.140000,0.980000,0.140000
32.614965,0.101992,-0.016592,0.759328,-0.280000,-1.680000,-0.700000
32.619031,0.273280,0.080520,1.129720,-0.840000,4.480000,-0.700000
32.623097,0.185440,-0.040504,1.037976,-1.120000,1.680000,0.840000
32.627163,0.090280,0.039040,0.737856,1.400000,-1.120000,-1.400000
32.631229,0.265960,0.103456,1.226832,-0.280000,5.460000,-0.840000
32.635295,0.182512,-0.068320,0.954528,-3.500000,1.960000,0.000000
32.639361,0.138592,0.121512,0.862784,1.820000,-0.980000,-0.280000
32.643427,0.203984,0.036112,1.243912,-1.260000,5.880000,-1.540000
32.647493,0.162016,-0.118096,0.880840,-3.640000,0.280000,-0.140000
32.651559,0.189832,0.095160,0.926712,2.800000,-1.400000,-0.560000
32.655625,0.177144,0.042456,1.183400,-0.420000,5.180000,-0.840000
32.659691,0.090768,-0.067344,0.793000,-3.080000,-1.120000,-0.980000
32.663756,0.212280,0.145912,0.980392,2.100000,-0.560000,0.000000
32.667822,0.160064,-0.046848,1.112152,-1.540000,4.620000,-1.120000
32.671888,0.150304,-0.029768,0.830088,-1.120000,-1.400000,-0.420000
32.675954,0.196664,0.118584,1.137040,0.420000,2.240000,0.980000
32.680020,0.139568,-0.009760,1.027240,-1.820000,2.660000,-0.840000
32.684086,0.183488,0.015616,0.854976,0.280000,-3.360000,-0.560000
32.688152,0.235704,0.047824,1.111176,-1.680000,2.380000,0.000000
32.692218,0.152256,-0.015128,1.012112,-2.380000,0.420000,-0.840000
32.696284,0.118096,0.088328,0.929152,1.260000,-0.840000,-0.700000
32.700350,0.284992,-0.012688,1.063840,-1.400000,1.960000,0.280000
32.704416,0.149816,-0.063440,0.855952,-1.400000,0.140000,-0.420000
32.708482,0.093696,0.128344,1.094096,2.940000,1.820000,-0.280000
32.712548,0.188368,-0.009760,0.971120,-2.240000,2.100000,-0.140000
32.716614,0.177632,0.000000,0.877424,-1.820000,-0.280000,-0.280000
32.720680,0.185440,0.051728,1.147776,1.120000,0.980000,-1.540000
32.724746,0.164456,-0.039040,0.939888,-2.380000,0.700000,0.140000
32.728811,0.216672,0.033184,0.934520,-0.840000,1.960000,0.000000
32.732877,0.154696,0.084912,1.151192,0.980000,2.380000,-0.560000
32.736943,0.102968,-0.026352,0.871568,-1.680000,-2.240000,-0.700000
32.741009,0.268888,0.061000,0.990640,-1.260000,1.680000,0.280000
32.745075,0.164944,0.038064,1.156560,-0.280000,1.400000,-0.980000
32.749141,0.132248,-0.023424,0.752984,-0.280000,-3.360000,-0.560000
32.753207,0.222040,0.053192,1.085800,-1.820000,4.900000,-0.140000
32.757273,0.120048,-0.057584,1.116544,-0.840000,3.080000,0.280000
32.761339,0.112728,0.042456,0.738832,2.660000,-5.320000,-0.700000
32.765405,0.254736,0.100040,1.185840,-1.260000,2.800000,-0.700000
32.769471,0.147376,-0.081008,1.014552,-3.920000,0.280000,-0.980000
32.773537,0.125416,0.084912,0.837896,2.380000,-4.760000,0.000000
32.777603,0.202520,0.076616,1.158512,-1.400000,5.460000,-0.420000
32.781669,0.183488,-0.104432,0.960384,-3.920000,-2.240000,0.000000
32.785735,0.161040,0.121512,0.928176,3.360000,-5.320000,0.420000
32.789801,0.147376,0.045872,1.135576,0.000000,4.060000,-1.260000
32.793867,0.289384,-0.134688,0.843264,-3.360000,-1.820000,-0.560000
32.797932,0.101016,0.135664,0.990640,0.980000,-0.700000,0.000000
32.801998,0.122976,0.077104,1.111664,-1.120000,2.660000,-1.540000
32.806064,0.192760,-0.087840,0.835944,-2.240000,-1.400000,-0.280000
32.810130,0.193736,0.093208,1.107272,1.400000,-0.560000,0.000000
32.814196,0.158600,0.010736,1.010160,-0.980000,0.420000,-1.120000
32.818262,0.240584,-0.003904,0.929640,-1.540000,0.980000,-0.420000
32.822328,0.169336,0.042456,1.053104,0.000000,2.100000,0.140000
32.826394,0.091256,-0.009272,0.921832,-0.980000,-0.840000,-0.840000
32.830460,0.206912,0.018544,1.017968,-0.560000,0.980000,-0.280000
32.834526,0.171776,-0.016592,1.056032,-0.840000,0.140000,0.700000
32.838592,0.101016,0.006344,0.768600,0.140000,-3.360000,-0.980000
32.842658,0.202520,0.160552,1.165344,0.560000,1.540000,-1.540000
32.846724,0.229848,-0.053192,1.027240,-2.100000,0.560000,-0.420000
32.850790,0.135664,0.048312,0.881816,0.140000,-1.820000,0.000000
32.854856,0.136152,0.108824,1.196576,-0.560000,2.940000,-0.840000
32.858922,0.197640,-0.095648,0.889136,-3.080000,-3.220000,-0.560000
32.862987,0.203984,0.035624,0.840336,0.980000,-2.800000,-0.280000
32.867053,0.221552,0.086864,1.295152,-0.140000,4.340000,-0.840000
32.871119,0.102480,-0.085888,0.805688,-1.680000,-0.700000,-0.560000
32.875185,0.197152,0.045384,0.929640,0.140000,-0.140000,-0.280000
32.879251,0.130784,0.023424,1.140456,-0.840000,2.800000,-1.400000
32.883317,0.137128,-0.059536,0.762744,-1.120000,-4.480000,0.140000
32.887383,0.212280,0.156160,1.109712,-0.140000,0.560000,0.560000
32.891449,0.194224,-0.027328,1.088728,-1.400000,1.400000,-0.840000
32.895515,0.146400,0.007320,0.805688,0.840000,-2.660000,-0.280000
32.899581,0.212768,0.128832,1.157536,-1.260000,3.360000,0.280000
32.903647,0.181536,-0.052216,1.037488,-2.380000,-0.140000,-1.820000
32.907713,0.147376,0.076616,0.855952,1.540000,-4.340000,-0.280000
32.911779,0.222528,0.038064,1.111176,-1.400000,4.200000,0.140000
32.915845,0.168848,-0.132248,0.876448,-1.680000,-0.280000,-0.840000
32.919911,0.135664,0.122976,1.050664,2.240000,-1.400000,-0.700000
32.923977,0.130784,0.007320,1.021872,-2.240000,4.060000,-0.140000
32.928042,0.179584,-0.059048,0.856928,-1.960000,-0.280000,-0.700000
32.932108,0.147864,0.103944,1.041392,2.800000,-2.800000,-1.120000
32.936174,0.213744,0.000000,1.052128,-2.940000,0.980000,-0.980000
32.940240,0.174704,-0.020008,0.949648,-1.680000,1.540000,0.420000
32.944306,0.177144,0.131760,1.083360,1.680000,0.840000,-0.280000
32.948372,0.109800,0.014152,0.904752,-1.960000,-0.840000,-0.420000
32.952438,0.248392,0.005856,0.991128,-1.820000,-0.700000,-0.840000
32.956504,0.199592,0.041968,1.135576,1.120000,-0.280000,-0.280000
32.960570,0.088816,-0.039528,0.814960,-0.700000,-0.560000,0.140000
32.964636,0.194712,0.019032,1.066280,-1.400000,2.660000,-0.700000
32.968702,0.190808,0.000976,1.081408,-0.840000,0.140000,-0.280000
32.972768,0.089792,0.030256,0.791048,0.840000,-4.060000,-0.280000
32.976834,0.215208,0.099064,1.131184,-0.560000,2.520000,-0.700000
32.980900,0.172264,-0.084424,0.985760,-2.800000,-1.400000,-0.560000
32.984966,0.149328,0.071248,0.862784,1.120000,-5.040000,-0.280000
32.989032,0.252784,0.078568,1.213656,-0.700000,6.720000,-0.560000
32.993097,0.158600,-0.124928,0.878400,-2.380000,-1.120000,0.420000
32.997163,0.115656,0.134688,0.854976,1.820000,-2.940000,-0.700000
33.001229,0.160064,0.038064,1.221464,-2.380000,4.760000,-1.260000
33.005295,0.223504,-0.097600,0.872056,-1.400000,-2.100000,-0.280000
33.009361,0.165432,0.161040,0.967216,3.220000,-2.380000,0.700000
33.013427,0.096624,0.012200,1.143872,-2.520000,3.640000,-1.120000
33.017493,0.234728,-0.052704,0.832528,-1.260000,-4.480000,-0.700000
33.021559,0.156160,0.107360,1.048224,1.820000,0.280000,-0.280000
33.025625,0.193248,0.000488,1.101416,-2.240000,2.660000,-0.980000
33.029691,0.132248,-0.009760,0.834968,-1.260000,-1.820000,-0.140000
33.033757,0.195200,0.071248,1.119472,1.120000,-0.280000,0.420000
33.037823,0.127368,-0.051728,0.955504,-1.820000,0.000000,-1.120000
33.041889,0.224968,0.035136,0.944768,0.700000,-2.240000,-0.420000
33.045955,0.207400,0.031720,0.997960,-1.680000,0.700000,0.140000
33.050021,0.156160,0.009272,0.972584,-2.380000,0.560000,-0.700000
33.054086,0.103456,0.057584,0.999424,2.240000,0.700000,-0.280000
33.058152,0.191784,-0.020008,1.048712,-1.680000,0.420000,0.560000
33.062218,0.190320,0.001952,0.857904,-2.100000,-2.380000,-0.420000
33.066284,0.146400,0.125904,1.176080,1.260000,-0.280000,-0.420000
33.070350,0.165920,-0.013176,0.939888,-2.100000,-0.420000,-0.560000
33.074416,0.221064,0.013176,0.915000,-0.700000,-0.280000,-0.420000
33.078482,0.159088,0.054168,1.159976,0.140000,1.400000,-1.120000
33.082548,0.135176,-0.035624,0.851072,-1.680000,-1.540000,0.000000
33.086614,0.276696,0.017568,1.025288,0.000000,0.000000,0.000000
33.090680,0.115168,0.048800,1.089704,0.560000,2.660000,-1.120000
33.094746,0.106872,-0.069784,0.781288,-1.400000,-2.940000,-0.420000
33.098812,0.230824,0.074176,1.035536,-1.400000,1.540000,0.000000
33.102878,0.128344,0.009272,1.104344,-0.420000,-0.420000,-1.680000
33.106944,0.118584,0.040992,0.798368,0.280000,-3.500000,-0.700000
33.111010,0.291336,0.083936,1.218536,-0.840000,3.920000,0.420000
33.115076,0.079544,-0.034160,0.982832,-1.820000,0.420000,-0.560000
33.119141,0.135664,0.125904,0.855952,1.260000,-6.720000,-0.700000
33.123207,0.266936,0.012688,1.149240,-2.940000,3.920000,-0.700000
33.127273,0.196664,-0.126880,0.949160,-2.240000,-0.420000,0.140000
33.131339,0.113704,0.104920,0.873520,3.080000,-2.240000,0.280000
33.135405,0.207888,0.002928,1.153144,-2.380000,5.880000,-1.400000
33.139471,0.159088,-0.114680,0.825208,-2.100000,-2.660000,-0.700000
33.143537,0.104920,0.196664,0.981368,3.500000,-2.520000,0.420000
33.147603,0.235704,0.001464,1.111664,-2.240000,6.160000,-0.560000
33.151669,0.158112,-0.077104,0.850584,-2.100000,-1.540000,-0.140000
33.155735,0.139080,0.172752,1.054080,2.100000,-1.260000,-0.420000
33.159801,0.177144,-0.021472,1.079456,-3.360000,3.640000,-0.840000
33.163867,0.234728,-0.024888,0.952088,-0.700000,-0.980000,0.000000
33.167933,0.150792,0.131272,1.060424,1.820000,-0.280000,0.280000
33.171999,0.053192,-0.006344,0.970632,-1.960000,0.000000,-2.240000
33.176065,0.285968,-0.049776,0.978440,-0.560000,-0.560000,0.000000
33.180131,0.132248,0.044896,1.026264,0.560000,0.000000,0.280000
33.184196,0.168360,0.008784,0.886696,-1.680000,-1.260000,-0.560000
33.188262,0.200568,0.032696,1.057984,0.000000,1.960000,-0.560000
33.192328,0.100040,-0.025864,0.967216,-0.840000,-1.120000,0.280000
33.196394,0.199592,0.043920,0.930616,0.700000,-1.260000,-0.420000
33.200460,0.210816,0.085400,1.117032,-0.980000,4.200000,-0.560000
33.204526,0.194224,-0.057096,0.910120,-1.540000,-2.520000,0.140000
33.208592,0.155672,0.094184,0.884256,0.560000,-0.140000,-0.700000
33.212658,0.190320,0.026352,1.250256,-0.980000,5.320000,-0.980000
33.216724,0.166408,-0.081984,0.756400,-1.820000,-1.820000,0.280000
33.220790,0.185928,0.125904,1.067744,1.260000,1.960000,-0.280000
33.224856,0.098088,-0.005368,1.135576,-0.140000,3.780000,-1.260000
33.228922,0.151280,-0.068808,0.755912,-2.100000,-4.760000,-0.280000
33.232988,0.209840,0.155672,1.107760,0.280000,1.400000,0.280000
33.237054,0.152256,-0.005856,1.115568,-1.400000,2.100000,-1.680000
33.241120,0.157624,-0.016104,0.787144,-0.280000,-3.780000,0.560000
33.245186,0.170312,0.081008,1.180472,-1.120000,3.780000,0.140000
33.249251,0.159576,-0.057096,0.998448,-1.680000,0.280000,-0.700000
33.253317,0.186416,0.056120,0.815448,1.120000,-3.780000,-0.280000
33.257383,0.207400,0.055144,1.168272,-1.400000,3.080000,-0.140000
33.261449,0.125416,-0.068808,0.874984,-0.980000,-1.820000,-1.120000
33.265515,0.176168,0.091256,0.962336,1.400000,-0.840000,0.000000
33.269581,0.186416,-0.004880,1.094096,-2.940000,4.200000,-0.140000
33.273647,0.135664,-0.027816,0.842776,-0.140000,-3.360000,-1.120000
33.277713,0.145912,0.158112,1.040416,1.680000,-0.700000,0.140000
33.281779,0.197640,-0.046360,1.075552,-3.780000,3.920000,-0.420000
33.285845,0.208864,0.034648,0.938912,0.420000,-1.820000,0.140000
33.289911,0.105408,0.118096,1.108248,1.120000,1.400000,-0.980000
33.293977,0.230824,-0.104432,0.913536,-3.640000,0.560000,-0.980000
33.298043,0.184464,-0.012688,0.939888,0.000000,-0.700000,-0.280000
33.302109,0.119072,0.094184,1.152656,1.120000,1.400000,-0.420000
33.306175,0.158600,-0.035136,0.831552,-2.520000,0.560000,-0.700000
33.310241,0.174704,0.041480,1.064816,0.420000,1.540000,0.420000
33.314306,0.090768,0.021472,0.947208,-0.140000,-0.700000,-0.140000
33.318372,0.240584,0.007808,0.854000,-1.260000,-0.420000,-0.560000
33.322438,0.207888,0.057584,1.183400,-0.700000,1.820000,-0.840000
33.326504,0.135176,0.016104,0.967216,-0.420000,-0.980000,-0.140000
33.330570,0.167872,0.077104,0.928176,0.000000,1.540000,-0.560000
33.334636,0.254736,0.022936,1.190232,-2.100000,5.180000,-0.420000
33.338702,0.096624,-0.036112,0.798368,-0.140000,-4.200000,-0.840000
33.342768,0.158112,0.124440,1.006256,0.420000,0.700000,-0.700000
33.346834,0.253272,-0.054168,1.160952,-2.240000,4.900000,-0.420000
33.350900,0.089304,-0.070760,0.790560,-0.280000,-2.100000,0.280000
33.354966,0.166896,0.140544,1.059448,2.520000,1.820000,-0.420000
33.359032,0.179584,-0.091744,1.079456,-3.360000,4.760000,-0.700000
33.363098,0.134688,-0.003904,0.771040,-0.560000,-4.760000,-0.140000
33.367164,0.184464,0.185440,1.147776,1.260000,1.260000,-0.980000
33.371230,0.186904,-0.072224,1.042856,-3.220000,3.780000,-1.540000
33.375295,0.192760,0.010248,0.845704,0.140000,-2.240000,1.120000
33.379361,0.155184,0.128344,1.162416,0.560000,4.340000,-0.140000
33.383427,0.121512,-0.092232,0.900360,-1.680000,0.840000,-1.400000
33.387493,0.244976,0.037088,0.953064,-0.420000,-1.260000,-0.280000
33.391559,0.129320,0.080520,1.063352,-0.980000,3.220000,-0.560000
33.395625,0.108824,-0.015128,0.920368,-0.560000,0.000000,-1.260000
33.399691,0.195200,0.090768,1.071648,0.420000,0.980000,-0.140000
33.403757,0.177632,-0.046360,1.013576,-1.260000,0.980000,0.140000
33.407823,0.154696,0.037088,0.876936,0.700000,-0.280000,-0.980000
33.411889,0.225944,0.086376,1.125328,-0.840000,3.220000,-0.420000
33.415955,0.127368,-0.089304,0.901824,-2.520000,-0.840000,-0.140000
33.420021,0.132736,0.061488,0.991616,0.980000,0.420000,-1.120000
33.424087,0.194712,0.020496,1.075064,-0.560000,4.900000,-0.840000
33.428153,0.165920,-0.081008,0.828136,-2.380000,-1.400000,0.140000
33.432219,0.136152,0.108824,1.082384,2.520000,0.560000,-0.560000
33.436285,0.127368,0.034648,1.066280,-1.260000,2.800000,-0.700000
33.440350,0.214232,0.004392,0.800320,-1.400000,-1.960000,-0.700000
33.444416,0.209840,0.090768,1.164368,-0.140000,2.940000,-0.980000
33.448482,0.117120,-0.019520,1.004792,-1.120000,0.280000,-0.280000
33.452548,0.150304,0.027328,0.864736,-0.420000,0.280000,0.000000
33.456614,0.220576,0.051240,1.199504,-0.700000,4.200000,-0.420000
33.460680,0.135664,-0.048312,0.874496,-1.260000,-2.240000,-0.560000
33.464746,0.160064,0.063928,0.931104,0.560000,0.140000,-0.140000
33.468812,0.192760,0.011224,1.151192,-0.560000,5.320000,-0.280000
33.472878,0.096624,-0.067344,0.797880,-0.420000,-4.060000,-0.560000
33.476944,0.194224,0.170312,1.063840,0.140000,1.820000,-0.420000
33.481010,0.195688,-0.033672,1.085800,-2.660000,4.620000,-0.280000
33.485076,0.124928,-0.039040,0.836432,0.560000,-3.640000,-0.140000
33.489142,0.171776,0.168360,1.059448,1.120000,1.820000,-0.840000
33.493208,0.235216,-0.086864,1.057008,-4.620000,4.480000,-0.840000
33.497274,0.147376,0.063440,0.900360,0.420000,-0.560000,-0.140000
33.501340,0.165432,0.134200,1.180472,1.960000,3.080000,0.000000
33.505405,0.161040,-0.141520,0.851560,-3.500000,2.940000,-1.400000
33.509471,0.191296,-0.005368,0.971608,0.420000,-0.560000,0.000000
33.513537,0.100040,0.093696,1.049688,0.140000,2.240000,0.000000
33.517603,0.159088,-0.046360,0.872544,-0.980000,2.100000,-1.120000
33.521669,0.205448,0.056608,1.048712,0.420000,1.120000,-0.420000
33.525735,0.094672,0.046848,1.000400,-0.840000,-0.420000,-0.560000
33.529801,0.151280,0.054168,0.984784,-0.700000,1.260000,-0.560000
33.533867,0.270352,0.031720,1.143384,0.000000,2.240000,0.140000
33.537933,0.113216,-0.042944,0.860344,-0.980000,-1.260000,-0.560000
33.541999,0.121512,0.127368,1.020408,0.000000,1.120000,-1.400000
33.546065,0.217648,-0.017568,1.138504,-1.540000,4.900000,-0.280000
33.550131,0.124928,-0.074664,0.790072,-1.540000,-2.240000,0.420000
33.554197,0.139080,0.106384,1.048224,2.380000,0.700000,-0.420000
33.558263,0.142496,-0.060024,1.062376,-2.660000,2.240000,-1.120000
33.562329,0.199104,0.007808,0.788608,-1.260000,-2.660000,0.280000
33.566395,0.209352,0.157624,1.128744,1.260000,2.660000,-0.840000
33.570460,0.169824,-0.078080,0.998448,-2.660000,4.200000,-0.700000
33.574526,0.156648,0.048800,0.896944,0.140000,-0.280000,0.140000
33.578592,0.145912,0.126392,1.203896,0.420000,4.060000,-0.560000
33.582658,0.116632,-0.050752,0.914024,-2.100000,0.140000,-0.980000
33.586724,0.242048,0.027816,0.927200,-0.280000,-1.960000,0.420000
33.590790,0.143472,0.028792,1.166320,-0.420000,4.340000,-0.420000
33.594856,0.103456,-0.072712,0.823744,0.000000,-1.820000,-0.980000
33.598922,0.192760,0.121512,1.051640,0.420000,0.420000,-0.280000
33.602988,0.108824,-0.061488,1.015040,-1.820000,3.640000,-0.700000
33.607054,0.141520,0.025864,0.850584,0.700000,-3.080000,-0.280000
33.611120,0.196664,0.137128,1.145336,0.840000,1.820000,0.140000
33.615186,0.212768,-0.072224,0.947208,-3.640000,2.240000,0.280000
33.619252,0.147376,0.058072,0.939400,0.700000,-0.420000,-0.560000
33.623318,0.162504,0.029280,1.105808,-0.420000,2.940000,-0.420000
33.627384,0.157624,-0.094184,0.843752,-3.220000,2.380000,-0.280000
33.631450,0.161528,0.129320,1.086288,2.100000,-0.700000,-0.560000
33.635515,0.095160,0.039528,1.060912,-0.140000,1.260000,-1.400000
33.639581,0.199104,-0.040504,0.887184,-0.700000,-0.280000,-0.140000
33.643647,0.203496,0.092720,1.104344,0.700000,1.820000,-0.420000
33.647713,0.111752,0.020984,0.955504,-2.100000,-1.120000,-1.120000
33.651779,0.179584,0.037576,0.910120,-2.100000,1.400000,-0.700000
33.655845,0.170800,0.002440,1.206824,-0.280000,3.500000,0.560000
33.659911,0.085888,-0.067344,0.803248,-0.140000,-1.260000,-0.420000
33.663977,0.235704,0.061488,0.986248,0.420000,-0.140000,-0.280000
33.668043,0.155672,-0.019032,1.146800,-2.520000,3.500000,-0.700000
33.672109,0.111264,0.010736,0.798368,0.280000,-5.040000,-0.840000
33.676175,0.153232,0.159088,1.073112,0.560000,3.080000,-0.700000
33.680241,0.183488,-0.065392,1.073112,-3.780000,2.520000,-0.140000
33.684307,0.147376,0.073688,0.884744,0.420000,-5.180000,0.280000
33.688373,0.159576,0.146400,1.182912,1.960000,2.380000,-0.700000
33.692439,0.208864,-0.145912,0.948184,-3.500000,1.260000,-0.560000
33.696504,0.187880,0.028304,0.833992,0.420000,-2.100000,-0.140000
33.700570,0.132736,0.052704,1.186816,0.280000,2.940000,-0.840000
33.704636,0.118584,-0.097600,0.831064,-2.660000,0.700000,-0.700000
33.708702,0.140544,0.092720,1.008696,1.260000,-1.680000,0.420000
33.712768,0.110776,0.024888,1.058472,-0.140000,1.400000,-1.120000
33.716834,0.197152,-0.003904,0.875472,-1.820000,-1.680000,-0.700000
33.720900,0.202520,0.124928,1.131672,-0.140000,0.700000,0.700000
33.724966,0.115656,0.016592,0.999424,-0.980000,0.560000,-0.280000
33.729032,0.129808,0.012688,0.923784,-0.420000,-2.380000,-1.400000
33.733098,0.228384,0.003416,1.116056,-1.820000,0.700000,0.000000
33.737164,0.155672,0.001952,0.938424,-2.660000,-0.420000,0.000000
33.741230,0.142496,0.107848,1.039440,2.100000,-1.120000,0.000000
33.745296,0.128344,-0.017568,1.059448,-1.680000,1.120000,-0.840000
33.749362,0.166408,-0.105896,0.793976,-1.120000,-5.040000,-0.140000
33.753428,0.143472,0.122976,1.059936,2.100000,-0.280000,-0.420000
33.757494,0.179584,-0.025864,1.051640,-2.100000,1.400000,-0.280000
33.761559,0.156648,0.005856,0.841800,-1.680000,-2.100000,0.000000
33.765625,0.171288,0.114680,1.175104,1.540000,0.560000,-0.700000
33.769691,0.114680,-0.036112,0.926224,-1.260000,-0.700000,-0.840000
33.773757,0.210816,0.061976,0.907192,-0.700000,-2.240000,0.280000
33.777823,0.195200,0.079544,1.207800,-0.420000,1.120000,-0.560000
33.781889,0.064904,-0.039040,0.908656,-0.840000,-4.060000,-0.560000
33.785955,0.221064,0.046360,0.944280,0.280000,0.140000,0.280000
33.790021,0.156160,-0.043920,1.114592,-1.540000,2.240000,-0.280000
33.794087,0.099064,-0.024400,0.797392,-1.260000,-5.320000,-0.980000
33.798153,0.192760,0.144448,1.107272,0.560000,-0.700000,-0.420000
33.802219,0.147864,-0.058072,1.010160,-1.960000,1.400000,0.000000
33.806285,0.152256,0.039528,0.843264,0.700000,-5.740000,-0.420000
33.810351,0.191784,0.110776,1.157536,-0.280000,1.680000,-0.840000
33.814417,0.169824,-0.073688,0.953552,-3.920000,0.420000,0.000000
33.818483,0.195688,0.097600,0.979904,1.820000,-4.200000,0.420000
33.822549,0.093208,0.042456,1.126792,0.000000,1.120000,-0.980000
33.826614,0.160552,-0.092232,0.876448,-3.360000,-1.400000,-1.260000
33.830680,0.181536,0.043920,0.983808,1.260000,-3.500000,0.280000
33.834746,0.103944,0.070272,1.105320,0.280000,-0.560000,-0.560000
33.838812,0.173728,-0.036600,0.858392,-2.100000,-3.080000,-0.700000
33.842878,0.163480,0.069296,1.106296,-0.140000,-1.960000,0.140000
33.846944,0.124928,-0.020008,0.947208,0.000000,-3.220000,-0.840000
33.851010,0.217160,0.033672,0.892552,-1.820000,-0.980000,0.000000
33.855076,0.203984,0.065880,1.205360,-1.260000,1.400000,0.280000
33.859142,0.073200,-0.017568,0.782264,-0.420000,-4.200000,-0.420000
33.863208,0.193248,0.093696,1.016992,0.140000,0.000000,-0.840000
33.867274,0.258640,-0.048312,1.104344,-1.960000,0.560000,0.140000
33.871340,0.101504,-0.030256,0.814960,-0.700000,-5.040000,-0.420000
33.875406,0.148840,0.167384,1.163880,1.120000,1.960000,-0.560000
33.879472,0.187392,-0.077592,1.032608,-2.520000,0.980000,-0.560000
33.883538,0.145912,0.037576,0.848632,0.420000,-4.620000,0.140000
33.887604,0.146888,0.121512,1.143872,0.700000,0.000000,-0.980000
33.891669,0.170800,-0.077104,0.975512,-3.640000,-0.280000,-0.560000
33.895735,0.181536,0.031720,0.858392,1.260000,-2.940000,0.560000
33.899801,0.158600,0.002440,1.150216,0.280000,1.400000,-0.840000
33.903867,0.153720,-0.082960,0.874984,-2.940000,-1.540000,-0.980000
33.907933,0.162016,0.082960,0.989664,0.700000,-1.960000,0.700000
33.911999,0.118096,0.100528,1.100928,0.560000,0.700000,-0.840000
33.916065,0.146400,-0.004880,0.796904,-2.380000,-2.660000,-0.560000
33.920131,0.245952,0.105896,1.111176,-0.840000,-1.400000,0.140000
33.924197,0.108336,-0.013664,1.047248,-1.400000,-0.140000,-0.280000
33.928263,0.130296,0.007808,0.967704,0.700000,-4.060000,-0.280000
33.932329,0.232288,0.057096,1.077504,-0.840000,0.000000,0.140000
33.936395,0.154696,-0.059048,0.930128,-2.940000,-1.960000,-0.980000
33.940461,0.150304,0.068808,0.924272,2.660000,-4.200000,-0.840000
33.944527,0.179096,0.015128,1.123376,-0.700000,1.820000,-0.420000
33.948593,0.160552,-0.100040,0.799832,-1.820000,-0.700000,0.280000
33.952658,0.129320,0.126392,1.066768,1.540000,-1.120000,-0.560000
33.956724,0.156648,0.004392,1.041392,-1.540000,0.840000,-0.420000
33.960790,0.182024,-0.021472,0.876448,-1.680000,-2.660000,0.140000
33.964856,0.159576,0.135664,1.117520,1.120000,-0.840000,-0.840000
33.968922,0.123952,-0.006832,0.959408,-1.540000,-2.100000,-0.560000
33.972988,0.241560,0.006344,0.956480,-1.400000,-0.560000,-0.420000
33.977054,0.169336,0.067832,1.181936,0.140000,2.240000,0.140000
33.981120,0.072712,-0.031232,0.801296,-0.560000,-2.520000,-0.560000
33.985186,0.210328,0.019520,0.998936,-0.840000,-0.420000,-0.280000
33.989252,0.178120,0.009760,1.130208,-1.400000,-0.840000,0.000000
33.993318,0.122488,0.041480,0.772504,1.400000,-5.180000,-0.420000
33.997384,0.213256,0.098576,1.168272,-0.280000,3.220000,-0.980000
34.001450,0.175680,-0.120048,0.975024,-3.080000,1.820000,0.140000
34.005516,0.070272,0.082960,0.786168,1.400000,-5.040000,-0.140000
34.009582,0.214232,0.118096,1.179984,-0.420000,3.220000,-0.840000
34.013647,0.171288,-0.137128,0.987224,-3.500000,-1.960000,-0.140000
34.017713,0.183976,0.100040,0.942816,2.240000,-4.340000,0.000000
34.021779,0.122976,0.049288,1.141920,-0.840000,4.480000,-0.420000
34.025845,0.161528,-0.100040,0.847168,-3.780000,-0.840000,-0.840000
34.029911,0.164944,0.140056,1.008208,2.240000,-4.760000,0.420000
34.033977,0.117120,0.057096,1.127768,-0.700000,1.400000,-0.980000
34.038043,0.197640,-0.070760,0.847168,-2.100000,-3.640000,-0.420000
34.042109,0.212768,0.081984,1.041880,0.700000,-0.700000,0.560000
34.046175,0.122488,-0.007320,1.002352,-2.240000,0.840000,-0.840000
34.050241,0.183488,0.020496,0.927688,-0.560000,-1.120000,-0.560000
34.054307,0.217160,0.017080,1.077504,0.420000,-0.140000,0.000000
34.058373,0.095160,-0.027328,0.935008,-1.120000,-0.140000,-0.840000
34.062439,0.205448,0.065880,0.979416,0.700000,-0.700000,-0.980000
34.066505,0.209352,0.010248,1.106296,-1.680000,1.820000,0.840000
34.070571,0.073688,0.033672,0.835944,-1.400000,-2.240000,-0.700000
34.074637,0.124928,0.123952,1.100928,1.260000,-1.680000,-0.700000
34.078702,0.197152,-0.081984,1.016016,-2.380000,0.000000,-0.560000
34.082768,0.171288,0.009760,0.842288,0.000000,-2.240000,0.280000
34.086834,0.152744,0.066368,1.194136,0.980000,1.260000,-0.840000
34.090900,0.147864,-0.032208,0.916952,-2.520000,-1.260000,-0.560000
34.094966,0.203008,0.053680,0.907680,0.280000,-1.960000,0.140000
34.099032,0.179584,0.074664,1.162904,0.280000,2.100000,-0.980000
34.103098,0.129808,-0.083448,0.849608,-2.800000,-2.660000,-0.140000
34.107164,0.179096,0.065392,0.983320,-0.840000,-0.560000,0.140000
34.111230,0.161528,0.036112,1.144360,-0.560000,1.960000,-0.140000
34.115296,0.080032,-0.048312,0.757376,-0.420000,-2.940000,-0.700000
34.119362,0.264496,0.104432,1.077016,0.560000,-0.140000,-0.280000
34.123428,0.142008,-0.042456,1.100440,-1.820000,0.840000,-0.980000
34.127494,0.114192,0.097112,0.839848,0.700000,-4.060000,-0.420000
34.131560,0.259128,0.109800,1.130208,-0.840000,2.940000,0.280000
34.135626,0.165432,-0.114680,0.999912,-3.920000,2.520000,-0.700000
34.139691,0.115656,0.051240,0.889136,2.380000,-4.620000,-0.840000
34.143757,0.136640,0.046848,1.144360,-1.400000,4.200000,0.140000
34.147823,0.171776,-0.070272,0.905728,-2.800000,-0.140000,-0.700000
34.151889,0.159576,0.034648,0.914512,2.940000,-5.880000,0.420000
34.155955,0.094184,0.090280,1.131672,-2.240000,3.080000,-0.980000
34.160021,0.251808,-0.048800,0.880840,-2.100000,-2.660000,0.140000
34.164087,0.135176,0.110776,1.030656,1.540000,-3.080000,-0.420000
34.168153,0.151768,0.057584,1.057496,-1.820000,0.420000,-0.140000
34.172219,0.199104,-0.047336,0.876448,-1.960000,-0.980000,-1.120000
34.176285,0.229848,0.070272,1.173152,1.960000,0.280000,-0.280000
34.180351,0.080032,-0.046848,0.891088,-0.700000,-1.400000,-0.420000
34.184417,0.185928,0.045872,0.983808,-1.540000,1.260000,-0.700000
34.188483,0.167384,0.029280,1.126792,0.140000,0.140000,0.560000
34.192549,0.069784,-0.019520,0.750056,0.420000,-3.920000,-0.700000
34.196615,0.254248,0.042944,1.118008,-0.560000,0.840000,-0.560000
34.200680,0.142496,-0.034648,1.036024,-2.380000,0.700000,0.140000
34.204746,0.152744,0.066856,0.813984,0.840000,-4.620000,0.140000
34.208812,0.163480,0.109312,1.138992,-0.280000,4.480000,-0.980000
34.212878,0.172264,-0.083936,0.985760,-3.780000,-2.100000,-0.560000
34.216944,0.152256,0.130784,0.909144,0.560000,-4.620000,0.280000
34.221010,0.195688,0.069296,1.244400,0.000000,4.200000,-0.840000
34.225076,0.182024,-0.130784,0.800320,-2.520000,-0.140000,-0.420000
34.229142,0.183488,0.079056,0.930616,0.700000,-1.820000,0.140000
34.233208,0.108824,0.010248,1.190232,-0.420000,3.220000,-1.260000
34.237274,0.166408,-0.077104,0.799344,-0.560000,-2.240000,-0.140000
34.241340,0.166408,0.101016,0.994056,1.540000,-0.420000,0.840000
34.245406,0.126392,0.004880,1.070672,-1.400000,2.380000,-1.540000
34.249472,0.199104,-0.008296,0.894992,-0.420000,-2.660000,-0.560000
34.253538,0.129320,0.124440,1.112152,-0.280000,1.260000,0.280000
34.257604,0.169336,0.006344,1.045784,-1.120000,-0.840000,-1.400000
34.261670,0.194224,0.015616,0.864248,0.980000,-3.080000,0.140000
34.265735,0.217160,0.054168,1.125816,-1.680000,1.960000,-0.280000
34.269801,0.175192,-0.042456,0.940864,-3.220000,0.980000,0.000000
34.273867,0.102968,0.086864,1.010648,0.700000,0.000000,-0.560000
34.277933,0.127368,0.007320,1.049200,-1.400000,1.820000,0.140000
34.281999,0.200568,-0.089304,0.829112,-2.240000,-1.960000,-0.420000
34.286065,0.129808,0.098088,1.047248,2.240000,-2.660000,-0.980000
34.290131,0.150304,-0.011224,1.072624,-1.400000,0.840000,-0.560000
34.294197,0.181048,-0.008784,0.893040,-2.100000,-0.560000,0.840000
34.298263,0.165432,0.114680,1.044808,1.540000,-1.540000,-0.420000
34.302329,0.101016,0.013176,0.973560,-2.380000,-2.240000,-1.260000
34.306395,0.245464,0.014152,0.952576,-1.680000,-2.380000,-0.840000
34.310461,0.199592,0.036600,1.179496,1.260000,-0.140000,0.140000
34.314527,0.110288,0.008784,0.870592,-1.120000,-0.280000,-0.280000
34.318593,0.215208,0.038064,1.001376,-1.120000,0.700000,-0.560000
34.322659,0.133224,-0.007808,1.129232,-0.840000,1.400000,-0.840000
34.326724,0.049288,-0.043920,0.731512,1.260000,-5.040000,-0.560000
34.330790,0.246440,0.077104,1.106784,-1.120000,0.980000,-0.420000
34.334856,0.146888,-0.030256,1.047736,-3.080000,0.700000,0.000000
34.338922,0.106384,0.083936,0.864736,0.840000,-5.320000,-0.140000
34.342988,0.200568,0.087352,1.137528,0.000000,3.080000,-0.700000
34.347054,0.200080,-0.106384,0.983320,-3.220000,-1.960000,0.000000
34.351120,0.155184,0.115168,0.827648,1.540000,-5.880000,-0.420000
34.355186,0.203984,0.086864,1.249280,-0.840000,2.380000,-0.700000
34.359252,0.177632,-0.134200,0.813984,-3.360000,0.560000,-0.700000
34.363318,0.183488,0.109800,1.003328,1.960000,-0.420000,0.700000
34.367384,0.073688,-0.005856,1.091168,-1.120000,2.240000,-1.260000
34.371450,0.149328,-0.040992,0.842776,-1.820000,-3.500000,-0.280000
34.375516,0.193736,0.101992,1.054568,1.260000,-2.520000,0.420000
34.379582,0.166896,0.017080,1.096048,-0.980000,1.120000,-0.700000
34.383648,0.166408,-0.040504,0.854976,-0.840000,-1.540000,-0.420000
34.387713,0.190808,0.089792,1.121912,-0.560000,0.280000,0.140000
34.391779,0.141032,0.000976,0.955504,-1.540000,-0.140000,-0.840000
34.395845,0.118096,0.051240,0.937448,0.000000,-3.080000,-1.260000
34.399911,0.235216,0.049288,1.130696,-0.980000,0.280000,0.000000
34.403977,0.140544,-0.084912,0.854000,-1.960000,-2.800000,0.280000
34.408043,0.137128,0.140544,1.060424,1.260000,-1.120000,-0.840000
34.412109,0.222528,-0.026352,1.058472,-2.800000,0.840000,0.420000
34.416175,0.158112,-0.025864,0.832528,-2.100000,-1.260000,-0.280000
34.420241,0.121512,0.099064,1.098976,2.800000,-0.840000,-0.980000
34.424307,0.179584,-0.030256,0.981856,-2.240000,-0.980000,-0.560000
34.428373,0.179584,-0.015616,0.892552,-1.540000,-1.400000,0.140000
34.432439,0.153232,0.104432,1.201944,1.680000,0.560000,-0.840000
34.436505,0.117608,-0.054168,0.808616,-1.680000,-1.960000,-0.280000
34.440571,0.217648,0.059048,1.020896,-1.260000,-0.560000,0.140000
34.444637,0.168848,0.048312,1.116056,0.560000,-0.980000,-0.980000
34.448702,0.105408,-0.023912,0.832528,-1.540000,-3.360000,-0.280000
34.452768,0.235216,0.108336,1.083848,-0.140000,1.820000,0.420000
34.456834,0.144936,-0.068808,1.033584,-0.700000,0.560000,-0.560000
34.460900,0.134200,0.041480,0.860344,0.980000,-4.760000,-0.700000
34.464966,0.206912,0.105408,1.142896,-2.380000,2.660000,-1.400000
34.469032,0.192760,-0.102968,0.959896,-2.100000,-0.700000,0.000000
34.473098,0.129320,0.070760,0.837896,1.540000,-3.080000,0.560000
34.477164,0.169824,0.073688,1.194624,-1.960000,4.900000,-0.840000
34.481230,0.163480,-0.109800,0.845704,-2.380000,-2.940000,-0.280000
34.485296,0.121512,0.118584,0.999424,2.660000,-2.940000,0.420000
34.489362,0.150304,0.026352,1.105808,-0.840000,2.800000,-0.560000
34.493428,0.195200,-0.056608,0.889136,-2.520000,-2.240000,-0.700000
34.497494,0.156160,0.122000,1.057984,1.260000,-2.100000,-0.280000
34.501560,0.109312,0.027328,1.048712,-1.260000,-0.280000,-0.980000
34.505626,0.184952,-0.009272,0.888648,-0.980000,-3.640000,0.140000
34.509692,0.241072,0.074176,1.100928,-0.280000,0.840000,0.560000
34.513757,0.147864,-0.040504,0.942816,-1.540000,-0.700000,-0.700000
34.517823,0.134688,-0.010248,0.917928,0.000000,-0.420000,-0.980000
34.521889,0.205936,0.035624,1.116056,-0.560000,0.700000,0.420000
34.525955,0.119072,-0.026840,0.812032,-1.820000,-2.380000,-0.980000
34.530021,0.160064,0.121024,1.095072,0.280000,0.840000,-0.280000
34.534087,0.219600,0.020984,1.040416,-1.960000,0.420000,0.140000
34.538153,0.159576,-0.006832,0.862296,-0.280000,-2.660000,-0.280000
34.542219,0.138104,0.060512,1.112640,1.120000,2.520000,-1.120000
34.546285,0.139080,-0.035136,1.016992,-3.640000,-0.420000,-0.420000
34.550351,0.202520,0.054656,0.897920,0.140000,-2.800000,0.280000
34.554417,0.146400,0.076128,1.169736,1.400000,0.840000,-0.840000
34.558483,0.121512,-0.067344,0.887672,-2.240000,-2.380000,-0.280000
34.562549,0.211304,0.056608,0.926224,-0.280000,-1.960000,0.280000
34.566615,0.208864,0.038552,1.194136,0.700000,0.980000,-0.420000
34.570681,0.100040,-0.032696,0.794464,-1.120000,-2.380000,-0.280000
34.574746,0.193736,0.091744,1.062864,-0.700000,-0.560000,-0.700000
34.578812,0.142008,-0.023912,1.082384,-0.700000,0.560000,-0.280000
34.582878,0.131760,0.007808,0.765184,0.280000,-5.740000,-0.140000
34.586944,0.201544,0.126880,1.172176,-1.400000,2.100000,-0.140000
34.591010,0.203008,-0.060512,1.007720,-3.080000,-0.280000,-0.560000
34.595076,0.087840,0.079056,0.911096,1.820000,-4.480000,0.140000
34.599142,0.230824,0.054168,1.149240,-0.140000,3.080000,-0.420000
34.603208,0.190320,-0.168848,0.854488,-2.380000,-2.240000,-0.280000
34.607274,0.108336,0.122488,0.966240,2.100000,-3.360000,-0.700000
34.611340,0.157136,0.027328,1.079944,-1.400000,3.220000,-0.980000
34.615406,0.179096,-0.077592,0.869616,-2.100000,-1.400000,0.000000
34.619472,0.125904,0.137616,1.002352,1.680000,-2.940000,-0.280000
34.623538,0.158112,0.031720,1.074088,-2.240000,0.140000,-0.700000
34.627604,0.182024,-0.038064,0.936472,-1.400000,-2.240000,0.000000
34.631670,0.189832,0.113216,1.129720,1.120000,0.000000,0.420000
34.635735,0.174216,-0.022936,0.931592,-1.680000,-1.400000,-1.120000
34.639801,0.136152,-0.002440,0.915488,-1.680000,-1.820000,-0.420000
34.643867,0.234240,0.057096,1.151680,0.280000,0.700000,0.280000
34.647933,0.108824,-0.021960,0.860344,-1.260000,-1.540000,0.140000
34.651999,0.182512,0.045384,1.037976,1.120000,-1.680000,-0.840000
34.656065,0.142984,-0.015616,1.029680,-2.100000,1.680000,-0.560000
34.660131,0.126392,-0.040504,0.846680,-0.420000,-5.180000,0.000000
34.664197,0.164944,0.154696,1.048712,1.120000,-0.420000,-0.840000
34.668263,0.232776,-0.005856,1.093608,-2.660000,-0.980000,-0.280000
34.672329,0.142008,0.048312,0.874496,-0.140000,-3.920000,-0.280000
34.676395,0.195200,0.097600,1.211216,1.680000,0.980000,-0.700000
34.680461,0.178608,-0.134688,0.832528,-2.800000,-0.280000,0.560000
34.684527,0.198616,0.084912,0.924272,-0.420000,-1.260000,0.000000
34.688593,0.124440,0.051240,1.164368,0.840000,1.400000,-0.840000
34.692659,0.104920,-0.096624,0.806664,-0.840000,-3.500000,-0.420000
34.696725,0.206912,0.078080,1.081896,0.000000,0.700000,0.420000
34.700790,0.148352,0.035136,1.062864,-1.260000,1.120000,-0.840000
34.704856,0.114680,0.022448,0.816424,-1.540000,-5.180000,-0.700000
34.708922,0.249856,0.118096,1.162416,0.000000,0.560000,0.280000
34.712988,0.131272,-0.088328,1.029680,-1.260000,-0.420000,-0.140000
34.717054,0.119072,0.081496,0.865712,0.700000,-5.600000,-0.840000
34.721120,0.240584,0.057096,1.139968,-2.100000,1.120000,-0.560000
34.725186,0.168360,-0.083448,0.931104,-1.960000,-1.120000,0.140000
34.729252,0.107848,0.075640,0.915000,2.380000,-4.480000,-0.140000
34.733318,0.207888,0.004880,1.103368,-2.100000,1.540000,-0.980000
34.737384,0.143472,-0.092720,0.883768,-2.520000,-2.660000,-0.280000
34.741450,0.134200,0.134688,1.019432,2.660000,-3.080000,0.420000
34.745516,0.192760,0.018056,1.076040,-1.960000,1.680000,-0.560000
34.749582,0.181048,-0.040016,0.813008,-1.540000,-3.640000,-0.560000
34.753648,0.160064,0.151280,1.154608,1.120000,-2.100000,0.000000
34.757714,0.139080,0.006832,1.024312,-1.120000,-0.700000,-0.700000
34.761779,0.176168,-0.005856,0.869616,-1.960000,-3.080000,-0.560000
34.765845,0.210328,0.061976,1.175104,-0.700000,-0.420000,0.700000
34.769911,0.135176,-0.054168,0.879376,-1.540000,-3.640000,-0.420000
34.773977,0.183488,0.043920,0.974536,0.700000,-1.540000,0.000000
34.778043,0.148840,0.000976,1.098488,-1.680000,0.280000,-0.980000
34.782109,0.147376,-0.037576,0.825208,-0.140000,-6.440000,-0.980000
34.786175,0.195688,0.101992,1.029680,1.260000,0.140000,-0.140000
34.790241,0.203008,0.002440,1.050176,-2.660000,0.140000,0.140000
34.794307,0.152744,0.025864,0.839848,-0.280000,-5.460000,-0.280000
34.798373,0.141520,0.121024,1.165832,1.120000,1.540000,-0.980000
34.802439,0.229848,-0.107848,0.970144,-3.220000,0.000000,0.000000
34.806505,0.163480,0.097600,0.938912,-0.560000,-4.060000,-0.280000
34.810571,0.088328,0.092720,1.158024,0.280000,0.140000,-1.260000
34.814637,0.217160,-0.079544,0.868152,-2.240000,-2.520000,-0.280000
34.818703,0.204960,-0.000976,0.964288,1.120000,-2.520000,0.980000
34.822768,0.128832,0.050752,1.096048,0.000000,1.260000,-0.420000
34.826834,0.157624,-0.047824,0.845216,-2.800000,-3.500000,-0.560000
34.830900,0.152744,0.082960,1.056032,-0.280000,0.420000,0.000000
34.834966,0.136152,0.002928,1.019432,0.700000,-3.220000,-0.840000
34.839032,0.168848,0.053192,0.844240,-1.680000,-3.360000,-0.280000
34.843098,0.278648,0.078568,1.249768,-1.120000,-0.840000,-0.280000
34.847164,0.144936,-0.060512,0.924272,-1.120000,-3.500000,0.140000
34.851230,0.120048,0.103944,0.955992,0.700000,-1.960000,-0.420000
34.855296,0.211792,-0.027328,1.058960,-2.520000,1.540000,-0.700000
34.859362,0.129320,-0.081984,0.853512,-1.540000,-5.460000,0.140000
34.863428,0.180072,0.150304,1.085800,2.940000,-2.520000,-0.560000
34.867494,0.184952,-0.045872,1.046760,-1.680000,0.980000,-1.260000
34.871560,0.172264,-0.046360,0.786656,-1.120000,-3.780000,0.280000
34.875626,0.181048,0.158600,1.104832,1.120000,-0.560000,-0.420000
34.879692,0.158600,-0.032208,1.021872,-2.520000,1.540000,-0.980000
34.883757,0.167872,0.017080,0.870592,-0.700000,-3.500000,0.700000
34.887823,0.186416,0.090280,1.159976,-0.700000,0.980000,-0.420000
34.891889,0.139080,-0.065880,0.902312,-2.240000,-0.840000,-0.280000
34.895955,0.215696,0.038064,0.974536,0.980000,-1.960000,0.560000
34.900021,0.176168,0.039528,1.081896,0.140000,-0.280000,-0.420000
34.904087,0.094184,-0.010736,0.865712,-1.260000,-3.360000,-1.120000
34.908153,0.217160,0.090768,1.068232,0.420000,-0.700000,-0.280000
34.912219,0.173240,-0.042456,1.021384,-2.240000,0.420000,0.140000
34.916285,0.153720,0.037088,0.881328,0.420000,-2.800000,-0.980000
34.920351,0.168848,0.068808,1.125816,0.000000,-0.420000,-0.840000
34.924417,0.180560,-0.094672,0.930616,-3.360000,-0.700000,0.420000
34.928483,0.156648,0.104920,0.922320,1.960000,-3.080000,0.280000
34.932549,0.162992,0.031720,1.122888,-0.420000,2.520000,-1.120000
34.936615,0.217160,-0.092232,0.820816,-3.080000,-3.360000,-0.280000
34.940681,0.139080,0.132248,1.123864,1.260000,-0.840000,-0.280000
34.944747,0.128344,0.006832,1.011136,-0.280000,1.260000,-0.420000
34.948812,0.219600,-0.012688,0.829600,-2.800000,-3.220000,0.140000
34.952878,0.237168,0.129808,1.168272,0.980000,-1.400000,-0.420000
34.956944,0.080032,-0.011224,1.020408,-0.980000,-0.840000,-0.280000
34.961010,0.207888,0.020984,0.855464,-0.420000,-0.420000,-0.140000
34.965076,0.223992,-0.003416,1.152168,-1.400000,1.260000,-0.280000
34.969142,0.056608,-0.040992,0.866688,-0.560000,-3.780000,-1.400000
34.973208,0.197640,0.054656,0.992104,0.700000,-1.960000,0.280000
34.977274,0.183000,0.005368,1.106784,-1.820000,1.540000,0.280000
34.981340,0.109800,-0.014152,0.804224,-0.140000,-5.880000,0.000000
34.985406,0.174704,0.177632,1.075064,0.840000,-0.700000,-1.540000
34.989472,0.281088,-0.092232,1.040416,-3.220000,-0.280000,-0.280000
34.993538,0.109312,0.041968,0.870592,0.420000,-4.060000,0.420000
34.997604,0.170800,0.149816,1.193160,1.400000,0.700000,-0.420000
35.001670,0.243024,-0.125904,0.906704,-4.480000,0.700000,-0.420000
35.005736,0.162992,0.034648,0.949648,0.140000,-1.680000,0.420000
35.009801,0.114192,0.090280,1.094096,0.560000,-0.700000,-0.700000
35.013867,0.159576,-0.118096,0.818864,-2.660000,-1.960000,-0.980000
35.017933,0.200080,0.102480,1.114104,0.700000,-2.100000,0.280000
35.021999,0.126880,0.040504,0.969656,0.420000,-0.560000,-0.420000
35.026065,0.207400,-0.032696,0.896944,-1.960000,-0.560000,-0.700000
35.030131,0.180072,0.101992,1.105320,-0.840000,-0.420000,-0.280000
35.034197,0.153720,-0.011712,0.986736,-0.560000,-3.500000,-0.420000
35.038263,0.148352,0.027328,0.881328,0.280000,-0.980000,-0.700000
35.042329,0.288408,0.005368,1.187792,-1.400000,1.120000,-0.140000
35.046395,0.114680,-0.038064,0.801296,-0.840000,-3.080000,0.140000
35.050461,0.106384,0.162992,1.109712,0.420000,1.400000,0.000000
35.054527,0.233752,-0.010736,1.089704,-1.540000,1.400000,0.140000
35.058593,0.159088,-0.078080,0.733952,-0.980000,-6.160000,-0.560000
35.062659,0.169824,0.106872,1.132648,1.120000,-0.280000,-1.400000
35.066725,0.168848,-0.046360,1.036512,-4.200000,1.400000,-0.280000
35.070790,0.177632,0.051240,0.881328,0.840000,-2.800000,0.700000
35.074856,0.166896,0.081008,1.094096,1.400000,1.260000,-1.120000
35.078922,0.196664,-0.073200,0.939400,-2.940000,-1.540000,-0.980000
35.082988,0.209352,0.065392,0.939888,-0.280000,-2.240000,0.560000
35.087054,0.149328,0.063928,1.156560,0.000000,2.940000,-0.420000
35.091120,0.102968,-0.037576,0.854976,-1.680000,-2.940000,-0.560000
35.095186,0.228872,0.052216,1.017480,-0.420000,-2.240000,0.140000
35.099252,0.163480,0.001464,1.113128,-0.420000,0.560000,-0.560000
35.103318,0.140544,-0.011712,0.844240,0.980000,-5.320000,-0.700000
35.107384,0.143960,0.118584,1.075552,-1.120000,0.700000,-0.560000
35.111450,0.190320,-0.059536,0.983320,-2.380000,-1.960000,0.000000
35.115516,0.157624,0.046848,0.905728,1.680000,-5.460000,-0.420000
35.119582,0.213744,0.080520,1.160464,-0.560000,0.700000,0.000000
35.123648,0.207400,-0.123464,0.861808,-4.340000,-1.260000,-0.280000
35.127714,0.183488,0.097600,0.992104,1.400000,-2.240000,-0.280000
35.131779,0.111264,0.010736,1.072136,0.000000,1.680000,-0.140000
35.135845,0.177144,-0.025376,0.817400,-1.400000,-2.520000,-0.280000
35.139911,0.182024,0.108336,1.127280,1.120000,-2.660000,-0.560000
35.143977,0.144448,0.024888,1.005280,-1.120000,-0.700000,-0.980000
35.148043,0.180560,-0.003904,0.893040,-1.400000,-2.100000,0.560000
35.152109,0.226432,0.106872,1.151680,-0.280000,0.280000,-0.420000
35.156175,0.138104,-0.055144,0.933544,-1.540000,-4.060000,-0.700000
35.160241,0.155184,0.025376,0.933056,-0.140000,-1.960000,-0.840000
35.164307,0.252784,-0.009272,1.146312,0.840000,1.400000,0.280000
35.168373,0.119072,-0.022936,0.769576,-1.400000,-2.380000,-0.280000
35.172439,0.157624,0.101992,1.062864,-0.560000,-0.140000,-0.700000
35.176505,0.188856,-0.017568,1.071160,-1.400000,0.280000,0.140000
35.180571,0.105408,-0.008296,0.782264,0.000000,-5.740000,-0.420000
35.184637,0.197640,0.152744,1.184864,-0.420000,0.840000,-0.560000
35.188703,0.241560,-0.040504,1.031144,-3.360000,-0.420000,0.000000
35.192768,0.168360,0.040992,0.903776,1.820000,-4.760000,0.560000
35.196834,0.116632,0.091744,1.119472,0.420000,1.680000,-0.700000
35.200900,0.217648,-0.117608,0.911584,-4.340000,-3.360000,-1.120000
35.204966,0.207888,0.066856,0.919880,1.120000,-4.620000,-0.140000
35.209032,0.159088,0.036112,1.158024,0.560000,1.540000,-0.420000
35.213098,0.136152,-0.068808,0.786168,-2.380000,-1.400000,-0.420000
35.217164,0.200568,0.116632,1.042856,-0.280000,-1.540000,0.280000
35.221230,0.121024,0.003416,1.029680,-0.840000,-0.280000,-0.840000
35.225296,0.208864,-0.017568,0.901336,-0.420000,-3.500000,-0.140000
35.229362,0.192272,0.089792,1.115568,0.140000,0.420000,0.000000
35.233428,0.184464,-0.023912,0.977952,-2.660000,-1.120000,-0.840000
35.237494,0.155672,0.066368,0.922808,-0.700000,-3.080000,-0.560000
35.241560,0.219600,0.003904,1.091656,-0.840000,0.840000,0.420000
35.245626,0.174704,-0.031232,0.874496,-0.840000,-1.400000,0.280000
35.249692,0.140056,0.096136,1.057984,0.420000,-0.420000,-1.260000
35.253757,0.236192,0.004392,1.031632,-2.660000,0.560000,-0.700000
35.257823,0.147376,-0.040016,0.814960,-1.120000,-1.540000,0.420000
35.261889,0.120536,0.110776,1.168760,2.800000,0.280000,-0.560000
35.265955,0.187392,-0.048800,0.928664,-2.520000,-1.540000,-0.560000
35.270021,0.212768,0.004880,0.921832,-1.820000,-2.380000,-0.560000
35.274087,0.193736,0.094672,1.145824,1.400000,1.960000,-0.700000
35.278153,0.125416,-0.059048,0.877424,-1.400000,-0.420000,0.140000
35.282219,0.230824,0.060512,0.965752,-1.120000,0.980000,0.420000
35.286285,0.169336,0.058560,1.139480,-0.420000,0.140000,-0.840000
35.290351,0.091256,-0.020984,0.851560,-1.260000,-3.360000,0.000000
35.294417,0.215208,0.051728,1.043832,0.000000,0.980000,0.000000
35.298483,0.203008,-0.029768,1.073112,-1.120000,0.140000,-1.120000
35.302549,0.139568,0.035624,0.787144,0.000000,-6.020000,-1.260000
35.306615,0.187392,0.102968,1.146800,-1.400000,3.360000,-0.700000
35.310681,0.222040,-0.069784,1.012600,-1.960000,0.980000,0.140000
35.314746,0.097600,0.092720,0.860832,1.820000,-3.360000,0.700000
35.318812,0.256688,0.038552,1.140944,-1.400000,3.640000,-0.700000
35.322878,0.208864,-0.113216,0.881816,-2.660000,-0.700000,0.420000
35.326944,0.117120,0.123464,0.985272,2.380000,-1.120000,-0.560000
35.331010,0.165432,-0.016592,1.077504,-1.120000,3.640000,-0.980000
35.335076,0.198128,-0.054656,0.832040,-2.380000,-1.680000,-0.280000
35.339142,0.113216,0.173728,1.089704,2.380000,-1.540000,0.420000
35.343208,0.141520,0.008784,1.033096,-1.820000,1.260000,-1.400000
35.347274,0.265960,-0.007808,0.941840,-1.960000,-1.960000,0.280000
35.351340,0.182512,0.081984,1.077504,0.420000,0.280000,-0.140000
35.355406,0.151280,-0.023912,0.935008,-2.100000,0.140000,-0.420000
35.359472,0.209352,-0.004880,0.962336,-0.840000,0.560000,-0.560000
35.363538,0.186416,0.018544,1.101904,0.420000,0.700000,0.280000
35.367604,0.142496,-0.041968,0.778360,0.420000,0.560000,-0.560000
35.371670,0.207888,0.094184,1.096536,0.420000,2.800000,-0.980000
35.375735,0.140544,-0.014152,0.978440,-2.100000,0.980000,-0.140000
35.379801,0.131760,0.042944,0.847168,0.000000,-1.260000,-0.840000
35.383867,0.232288,0.093696,1.212192,0.420000,4.340000,-0.700000
35.387933,0.198128,-0.089304,0.915488,-2.660000,0.000000,0.280000
35.391999,0.182512,0.087840,0.945256,0.420000,-0.700000,-0.140000
35.396065,0.125904,0.052216,1.197552,-0.140000,4.060000,-1.120000
35.400131,0.182024,-0.071736,0.824232,-1.540000,-1.820000,-0.140000
35.404197,0.200568,0.090768,0.973560,1.260000,0.700000,-0.140000
35.408263,0.124928,0.029280,1.140456,-1.540000,2.240000,-1.120000
35.412329,0.157624,-0.039040,0.805688,-1.960000,-2.940000,-0.140000
35.416395,0.177632,0.096624,1.133136,-0.140000,2.240000,0.420000
35.420461,0.160064,-0.050752,0.978440,-0.980000,0.980000,-0.140000
35.424527,0.168848,0.024888,0.845704,-0.840000,-2.660000,-0.700000
35.428593,0.219600,0.055144,1.204872,-0.140000,1.400000,-0.560000
35.432659,0.152256,-0.063928,0.864248,-0.280000,-0.420000,-0.560000
35.436724,0.162016,0.109800,0.933056,0.560000,0.840000,-0.280000
35.440790,0.219600,0.030744,1.147776,-2.380000,3.780000,0.140000
35.444856,0.135664,-0.028304,0.849120,-0.840000,-3.780000,-0.140000
35.448922,0.138104,0.146888,1.097024,1.960000,0.000000,-0.560000
35.452988,0.242536,-0.098088,0.995520,-2.940000,2.660000,-0.840000
35.457054,0.169824,0.025376,0.916464,-1.260000,-1.820000,-0.420000
35.461120,0.146888,0.131760,1.138504,2.240000,0.420000,-1.120000
35.465186,0.217648,-0.083448,0.917440,-3.080000,2.520000,-0.700000
35.469252,0.156160,-0.013664,0.894992,0.420000,-0.280000,0.000000
35.473318,0.155184,0.097600,1.099952,0.140000,1.260000,-0.280000
35.477384,0.203496,-0.056608,0.859856,-1.960000,0.700000,-0.140000
35.481450,0.163480,0.056608,1.057008,-0.140000,2.660000,-0.280000
35.485516,0.158112,0.052704,1.030168,0.140000,0.280000,-0.700000
35.489582,0.142008,-0.026840,0.796416,-2.240000,0.980000,-1.120000
35.493648,0.228384,0.115168,1.199992,-0.420000,2.800000,0.000000
35.497713,0.138104,-0.003904,0.989664,0.000000,-1.260000,-0.140000
35.501779,0.175192,0.035624,0.923296,0.840000,-1.120000,-0.980000
35.505845,0.272304,0.031720,1.135088,-2.520000,5.040000,-0.420000
35.509911,0.129320,-0.074664,0.850096,-2.800000,-0.700000,-0.280000
35.513977,0.130784,0.094184,0.993080,2.800000,0.980000,-0.560000
35.518043,0.200568,-0.029280,1.072624,-1.260000,4.760000,-0.560000
35.522109,0.137128,-0.078568,0.822280,-1.960000,-1.260000,0.140000
35.526175,0.135664,0.168360,1.077992,2.940000,0.140000,-0.140000
35.530241,0.137616,0.007808,1.032120,-2.240000,3.640000,-1.260000
35.534307,0.227408,-0.000976,0.904752,-1.260000,-2.240000,-0.140000
35.538373,0.178608,0.127856,1.134112,0.560000,0.420000,-0.280000
35.542439,0.145912,-0.042944,0.993080,-1.540000,0.840000,-0.560000
35.546505,0.241072,-0.011224,0.916952,-0.700000,0.280000,-0.140000
35.550571,0.177632,0.063440,1.098976,0.280000,3.220000,-0.280000
35.554637,0.132736,-0.044408,0.876936,-0.700000,-0.840000,-0.700000
35.558702,0.131272,0.068320,0.989664,-0.420000,2.660000,-0.420000
35.562768,0.214232,-0.009760,1.055056,-0.980000,2.100000,0.420000
35.566834,0.142008,0.010736,0.833504,0.140000,-2.100000,-0.140000
35.570900,0.192760,0.117120,1.168760,0.000000,4.480000,-1.260000
35.574966,0.191296,-0.100040,0.961848,-2.380000,0.840000,0.000000
35.579032,0.142496,0.092720,0.893040,1.120000,-1.820000,-0.140000
35.583098,0.171776,0.084424,1.174128,-0.140000,2.940000,-1.260000
35.587164,0.173728,-0.071248,0.877424,-3.220000,-0.140000,-0.420000
35.591230,0.212768,0.080520,0.980880,1.680000,-1.400000,0.840000
35.595296,0.140544,0.025864,1.127280,-0.560000,4.760000,-1.260000
35.599362,0.170312,-0.112240,0.767136,-2.100000,-0.420000,-0.560000
35.603428,0.191296,0.160064,1.087264,-0.140000,2.520000,-0.280000
35.607494,0.124440,-0.018056,1.063840,-0.280000,2.100000,-0.700000
35.611560,0.170312,-0.014640,0.857416,-0.280000,0.140000,-0.420000
35.615626,0.175680,0.096136,1.127768,-0.840000,2.800000,0.280000
35.619691,0.157136,-0.004880,0.978440,-2.380000,0.140000,-0.700000
35.623757,0.166408,0.026840,0.889136,0.420000,-0.980000,0.140000
35.627823,0.239120,0.012688,1.146312,-0.980000,3.500000,-0.140000
35.631889,0.147376,-0.065392,0.830576,-1.400000,-0.140000,-0.980000
35.635955,0.090280,0.128832,1.082384,1.540000,1.820000,-0.980000
35.640021,0.208864,-0.017568,1.026752,-2.100000,2.940000,-0.840000
35.644087,0.199104,-0.037088,0.866200,-0.560000,-0.840000,0.000000
35.648153,0.103456,0.105408,1.071160,1.680000,0.700000,-0.980000
35.652219,0.173240,0.003904,1.031144,-3.360000,0.980000,0.000000
35.656285,0.201544,0.020008,0.920368,-0.700000,0.700000,-0.140000
35.660351,0.168360,0.069784,1.117520,1.120000,1.540000,-0.140000
35.664417,0.147864,-0.040016,0.865712,-1.680000,0.280000,-0.560000
35.668483,0.215208,0.004880,1.010160,-0.700000,1.400000,0.140000
35.672549,0.161528,0.065880,1.120936,0.840000,1.820000,-0.420000
35.676615,0.096136,-0.002440,0.816424,-1.680000,-1.120000,-0.280000
35.680680,0.224968,0.067832,1.098000,-0.840000,2.240000,-1.120000
35.684746,0.174704,-0.024400,1.009184,-1.120000,0.140000,-0.560000
35.688812,0.119072,0.062952,0.848144,0.280000,-1.960000,-0.420000
35.692878,0.204960,0.070272,1.172664,-0.980000,5.040000,-1.260000
35.696944,0.184464,-0.123952,0.942816,-2.660000,-0.700000,-0.280000
35.701010,0.128832,0.099552,0.914512,1.820000,-1.960000,-0.280000
35.705076,0.200080,0.032696,1.169248,-0.980000,6.580000,-1.120000
35.709142,0.148840,-0.086376,0.810080,-3.080000,-0.560000,0.280000
35.713208,0.160064,0.151280,0.937448,1.820000,-2.380000,-0.140000
35.717274,0.143960,0.019032,1.153632,-1.680000,5.600000,-0.980000
35.721340,0.238144,-0.061000,0.877912,-1.260000,-0.560000,0.280000
35.725406,0.142008,0.117608,1.070672,2.660000,0.840000,-0.420000
35.729472,0.105896,0.005368,1.031144,-2.520000,3.080000,-1.400000
35.733538,0.202032,-0.000488,0.876448,-2.100000,-1.260000,0.420000
35.737604,0.192272,0.113216,1.132160,1.120000,1.960000,0.280000
35.741669,0.139568,-0.079056,0.974048,-1.120000,0.700000,-0.980000
35.745735,0.187880,0.001464,0.921832,-1.120000,1.260000,-0.560000
35.749801,0.158112,0.025376,1.069208,-0.840000,2.660000,-0.140000
35.753867,0.110776,-0.030744,0.823256,-0.280000,-0.840000,-0.980000
35.757933,0.186416,0.093208,1.117032,0.840000,0.560000,-0.700000
35.761999,0.196176,-0.002440,1.007232,-1.820000,0.840000,0.420000
35.766065,0.143960,0.060024,0.860832,0.280000,-0.420000,-0.700000
35.770131,0.160552,0.108824,1.181448,0.000000,3.920000,-0.980000
35.774197,0.243024,-0.090280,0.884744,-3.080000,-0.280000,0.420000
35.778263,0.169824,0.082472,0.942328,0.700000,1.260000,0.000000
35.782329,0.132248,0.040992,1.220976,0.840000,4.620000,-1.540000
35.786395,0.171288,-0.087840,0.786656,-3.080000,0.000000,-0.140000
35.790461,0.199104,0.084424,1.017968,0.700000,2.520000,0.140000
35.794527,0.108824,0.014152,1.118008,0.280000,4.060000,-0.980000
35.798593,0.149328,-0.044896,0.781776,-1.400000,-2.240000,-0.140000
35.802658,0.171776,0.106384,1.087752,-0.280000,3.080000,0.000000
35.806724,0.158600,-0.041968,1.055544,-1.260000,2.240000,-1.820000
35.810790,0.144448,0.026840,0.833992,0.420000,-1.820000,0.420000
35.814856,0.192272,0.142984,1.198040,-0.280000,4.060000,0.000000
35.818922,0.163968,-0.064904,1.002352,-1.680000,-0.560000,-0.980000
35.822988,0.121024,0.066368,0.856928,0.280000,-3.360000,-0.840000
35.827054,0.238144,0.039040,1.125328,-1.540000,4.900000,-0.420000
35.831120,0.171776,-0.108824,0.902312,-1.400000,0.280000,-0.140000
35.835186,0.082960,0.112728,0.991128,2.380000,-0.560000,-0.280000
35.839252,0.223016,0.003904,1.064816,-1.540000,5.460000,-0.420000
35.843318,0.161528,-0.086376,0.826672,-1.820000,0.700000,-0.280000
35.847384,0.115168,0.115656,1.061400,2.660000,0.000000,-0.420000
35.851450,0.152256,0.024400,0.993568,-2.520000,3.640000,-0.840000
35.855516,0.224968,0.033672,1.004792,-1.960000,0.980000,0.000000
35.859582,0.122976,0.080032,1.115568,2.100000,0.840000,-0.840000
35.863647,0.151768,-0.058072,0.864248,-1.540000,0.560000,-0.560000
35.867713,0.240584,-0.004880,0.945256,-1.960000,2.660000,-0.560000
35.871779,0.169824,0.089304,1.178520,0.840000,1.540000,-0.280000
35.875845,0.089792,0.001464,0.846680,-0.280000,1.120000,-0.560000
35.879911,0.193736,0.037576,1.056032,-1.260000,3.640000,-0.700000
35.883977,0.181536,-0.019032,1.019920,-1.540000,1.400000,0.000000
35.888043,0.106384,0.015128,0.821304,0.980000,-2.800000,-0.140000
35.892109,0.176656,0.073200,1.166808,-0.280000,5.320000,-1.400000
35.896175,0.161528,-0.052216,0.988200,-2.240000,0.980000,0.560000
35.900241,0.129808,0.067832,0.806664,1.680000,-1.680000,-0.560000
35.904307,0.201544,0.076616,1.179984,-1.260000,5.320000,-1.400000
35.908373,0.192272,-0.034160,1.011136,-3.360000,0.280000,-0.140000
35.912439,0.130784,0.115168,0.886696,2.100000,-1.820000,0.000000
35.916505,0.178120,0.047336,1.228296,-0.560000,6.020000,-0.980000
35.920571,0.167872,-0.126880,0.784704,-2.660000,-0.840000,0.280000
35.924636,0.140544,0.088816,0.980392,1.680000,0.700000,0.280000
35.928702,0.152744,-0.002928,1.137528,0.560000,4.480000,-1.680000
35.932768,0.154696,-0.056120,0.813008,-2.520000,-1.680000,-0.700000
35.936834,0.115168,0.108336,1.067256,-0.140000,1.820000,-0.140000
35.940900,0.142496,0.002440,1.080432,-0.700000,0.980000,-0.980000
35.944966,0.127368,0.038064,0.826672,0.000000,-2.100000,0.140000
35.949032,0.250832,0.110776,1.184376,-0.280000,0.420000,0.560000
35.953098,0.163480,-0.020008,0.996984,-2.240000,0.560000,-0.700000
35.957164,0.143472,0.047336,0.952088,1.120000,-1.540000,0.420000
35.961230,0.204472,0.002440,1.046760,-0.420000,3.640000,-0.560000
35.965296,0.159576,-0.106872,0.836432,-2.100000,-1.120000,-0.420000
35.969362,0.101992,0.100040,1.041392,1.400000,0.000000,-1.120000
35.973428,0.200568,0.023912,1.040416,-0.980000,3.220000,-0.280000
35.977494,0.154208,-0.040992,0.851560,-1.120000,2.240000,0.140000
35.981559,0.112728,0.108824,1.094584,1.400000,1.680000,-1.260000
35.985625,0.129320,0.002440,1.059936,-2.520000,1.400000,-0.700000
35.989691,0.204472,0.026352,0.876448,-0.980000,-1.260000,0.280000
35.993757,0.178120,0.103456,1.157536,0.700000,-0.420000,0.000000
35.997823,0.104432,-0.009760,0.970632,-2.100000,-0.980000,-0.840000
36.001889,0.218136,-0.002440,0.911584,-1.120000,0.980000,-0.840000
36.005955,0.179584,0.009272,1.175104,-0.420000,2.800000,-0.280000
36.010021,0.094184,0.018056,0.820816,-0.560000,-2.800000,-0.980000
36.014087,0.196176,0.029768,1.004304,0.000000,0.140000,-0.140000
36.018153,0.163968,-0.010736,1.131184,-1.400000,3.780000,0.280000
36.022219,0.079544,-0.047824,0.756888,1.120000,-3.780000,0.000000
36.026285,0.174704,0.130296,1.093608,0.140000,0.980000,-1.120000
36.030351,0.185440,-0.046360,1.048712,-3.920000,0.840000,0.000000
36.034417,0.093696,0.068320,0.920368,1.260000,-4.900000,0.000000
36.038483,0.184952,0.160552,1.178032,1.400000,1.400000,-0.420000
36.042548,0.211304,-0.134200,0.925736,-4.900000,-0.280000,-1.120000
36.046614,0.181536,0.069296,0.891576,1.120000,-4.480000,0.420000
36.050680,0.117120,0.061976,1.189744,0.280000,2.380000,0.140000
36.054746,0.142008,-0.075640,0.830576,-2.520000,-0.140000,-0.980000
36.058812,0.211792,0.032208,0.970632,0.700000,-2.240000,-0.980000
36.062878,0.155672,0.037088,1.073600,-0.840000,-0.140000,-0.700000
36.066944,0.140544,-0.024400,0.895968,-0.840000,1.120000,-0.140000
36.071010,0.133224,0.093208,1.072624,1.120000,0.280000,0.420000
36.075076,0.135664,-0.017568,0.948184,-2.100000,-2.660000,-0.280000
36.079142,0.155672,0.069296,0.932568,-1.820000,-0.980000,-1.260000
36.083208,0.279624,0.047336,1.209264,0.140000,2.100000,0.840000
36.087274,0.114680,-0.018544,0.834480,-0.840000,-2.100000,0.140000
36.091340,0.130784,0.081984,1.015040,0.140000,0.280000,-1.680000
36.095406,0.170800,-0.042456,1.143872,-1.820000,1.120000,-0.280000
36.099472,0.131760,-0.040992,0.824720,-0.700000,-2.240000,0.420000
36.103537,0.171776,0.081984,1.006256,2.380000,-1.120000,-0.280000
36.107603,0.144936,-0.011712,1.074576,-3.640000,0.420000,-1.400000
36.111669,0.135664,0.043432,0.820328,-2.100000,-4.340000,0.420000
36.115735,0.181048,0.117608,1.137528,2.240000,0.280000,-0.840000
36.119801,0.144936,-0.092720,1.007720,-1.820000,0.700000,-0.700000
36.123867,0.158112,0.035136,0.911584,-1.120000,-4.620000,-0.140000
36.127933,0.202032,0.116144,1.188280,-0.980000,0.420000,-0.420000
36.131999,0.117608,-0.019032,0.934520,-1.540000,-1.820000,-0.560000
36.136065,0.180560,0.030256,0.899872,0.280000,-2.800000,0.280000
36.140131,0.183000,0.001952,1.108736,-0.700000,-0.140000,-0.700000
36.144197,0.109800,-0.063928,0.845704,-0.140000,-3.920000,-0.700000
36.148263,0.196176,0.119560,1.093120,0.280000,-0.700000,0.000000
36.152329,0.166408,-0.043432,1.021872,-2.380000,2.660000,-0.420000
36.156395,0.122000,0.020496,0.813008,0.560000,-5.600000,-0.140000
36.160460,0.132736,0.134200,1.073112,-0.140000,0.420000,-0.840000
36.164526,0.200080,-0.067344,1.053104,-3.780000,0.000000,-0.700000
36.168592,0.178608,0.065880,0.973560,1.400000,-4.340000,-0.280000
36.172658,0.103456,0.063440,1.164856,0.980000,0.560000,-0.700000
36.176724,0.156160,-0.083936,0.868152,-3.640000,-1.540000,-0.700000
36.180790,0.231312,0.085400,0.958920,1.400000,-4.760000,0.700000
36.184856,0.082960,0.039528,1.098976,-0.140000,-2.800000,-0.840000
36.188922,0.171288,-0.057096,0.863760,-2.380000,-2.800000,-1.120000
36.192988,0.169336,0.049288,1.080920,0.840000,-1.120000,0.420000
36.197054,0.101992,0.005856,0.995032,-0.980000,-1.260000,0.000000
36.201120,0.196176,0.029768,0.868152,-1.540000,-4.060000,-0.420000
36.205186,0.206912,0.099064,1.184376,-0.560000,-2.660000,0.140000
36.209252,0.104920,-0.028304,0.935496,-0.560000,-5.320000,-0.280000
36.213318,0.174704,0.069296,0.967704,-0.140000,-2.240000,-0.140000
36.217384,0.246440,-0.002440,1.111176,-2.520000,0.000000,-0.560000
36.221449,0.143960,-0.032208,0.833016,-2.100000,-5.600000,-0.420000
36.225515,0.119560,0.098088,1.081408,2.100000,-1.820000,-0.420000
36.229581,0.108336,-0.034160,1.096048,-1.540000,0.560000,-0.280000
36.233647,0.171288,-0.075640,0.702232,-0.700000,-6.720000,0.560000
36.237713,0.168848,0.160064,1.176080,-0.560000,-2.800000,-1.260000
36.241779,0.155184,-0.028304,1.061400,-2.800000,-2.100000,-0.840000
36.245845,0.139568,0.002440,0.854488,-0.840000,-5.460000,0.700000
36.249911,0.168848,0.118096,1.131184,0.840000,-2.660000,-0.560000
36.253977,0.124440,-0.063440,0.956968,-2.660000,-5.740000,-0.840000
36.258043,0.252784,0.076616,0.930128,-1.260000,-5.180000,0.560000
36.262109,0.217160,0.040992,1.156072,0.560000,-1.400000,0.280000
36.266175,0.067344,-0.047336,0.819840,-0.420000,-4.480000,-0.840000
36.270241,0.176656,0.081008,1.007232,-1.260000,-3.360000,-0.700000
36.274307,0.210328,-0.046360,1.082872,-2.240000,-1.120000,0.140000
36.278373,0.109800,0.003416,0.846192,1.400000,-6.440000,0.000000
36.282438,0.182512,0.143960,1.128744,0.280000,-1.540000,0.000000
36.286504,0.165432,-0.055632,0.950136,-3.780000,-3.080000,-0.560000
36.290570,0.160552,0.030256,0.942816,1.540000,-8.260000,0.000000
36.294636,0.171776,0.078080,1.094096,0.140000,-0.280000,-0.700000
36.298702,0.198616,-0.051728,0.982344,-4.340000,-2.380000,0.280000
36.302768,0.175192,0.080032,0.938912,0.560000,-6.860000,-0.560000
36.306834,0.122488,0.080032,1.179008,0.140000,-3.500000,-0.280000
36.310900,0.170800,-0.081496,0.799832,-1.820000,-4.760000,-0.560000
36.314966,0.186416,0.010736,1.004304,0.700000,-4.900000,-0.140000
36.319032,0.135664,0.040992,1.089216,-0.560000,-4.620000,-0.140000
36.323098,0.160064,-0.012200,0.831552,-1.820000,-3.360000,0.000000
36.327164,0.207888,0.098088,1.147288,0.420000,-2.940000,0.420000
36.331230,0.137616,-0.057096,0.833992,-2.100000,-5.740000,-1.540000
36.335296,0.230824,0.060512,0.999424,-1.680000,-3.780000,-1.260000
36.339361,0.195200,0.019032,1.184864,-0.140000,0.560000,0.280000
36.343427,0.129320,0.017080,0.850096,-0.140000,-6.020000,0.560000
36.347493,0.133712,0.087352,0.973560,0.280000,-1.960000,-0.280000
36.351559,0.172752,-0.021472,1.159488,-2.940000,-1.260000,-0.980000
36.355625,0.159576,-0.019520,0.792512,0.140000,-9.240000,0.280000
36.359691,0.183488,0.093208,1.080920,1.540000,-3.360000,-0.420000
36.363757,0.158112,-0.054656,1.093120,-3.780000,-0.840000,-0.980000
36.367823,0.170312,0.021472,0.800808,0.000000,-7.700000,0.980000
36.371889,0.150792,0.086864,1.132160,1.680000,-1.820000,-0.840000
36.375955,0.196664,-0.044896,0.968192,-2.800000,-3.500000,-0.840000
36.380021,0.204472,0.047336,0.872056,-0.980000,-6.440000,0.700000
36.384087,0.171776,0.083448,1.177544,0.140000,-1.260000,-0.980000
36.388153,0.145912,-0.093208,0.868640,-1.960000,-3.500000,-0.140000
36.392219,0.207400,0.071736,0.955016,-0.140000,-3.080000,0.840000
36.396285,0.162992,0.075640,1.111664,-0.420000,-0.560000,-0.560000
36.400350,0.162016,-0.039528,0.867664,0.000000,-5.460000,-0.420000
36.404416,0.154696,0.071736,1.023336,0.000000,-2.100000,-0.420000
36.408482,0.191784,-0.010736,1.058960,-2.800000,-1.120000,-0.280000
36.412548,0.144936,0.018056,0.927688,0.560000,-6.580000,-0.280000
36.416614,0.199592,0.101992,1.097512,0.140000,-0.840000,-0.140000
36.420680,0.175680,-0.086376,0.906704,-2.660000,-2.240000,-0.140000
36.424746,0.158112,0.032208,0.906704,0.980000,-4.340000,-0.700000
36.428812,0.188856,0.061976,1.108736,-0.420000,-1.260000,0.140000
36.432878,0.183976,-0.047824,0.875472,-3.360000,-1.540000,0.140000
36.436944,0.181048,0.077592,1.094096,2.520000,-4.340000,-0.700000
36.441010,0.165432,0.022448,1.014064,-1.120000,-2.100000,-0.420000
36.445076,0.186904,-0.038552,0.837896,-2.380000,-2.520000,-0.560000
36.449142,0.165920,0.118096,1.147776,0.280000,-0.140000,-0.280000
36.453208,0.154696,0.047336,0.945256,0.000000,-4.760000,-0.280000
36.457274,0.217160,-0.015128,0.909144,-2.100000,-2.520000,-0.140000
36.461339,0.223016,0.024400,1.150216,-0.560000,1.680000,-0.700000
36.465405,0.137616,-0.033672,0.920368,-0.700000,-5.180000,0.560000
36.469471,0.159088,0.040504,0.917928,-0.700000,0.700000,-0.980000
36.473537,0.198616,0.015616,1.181448,-0.980000,1.120000,0.280000
36.477603,0.100040,-0.038552,0.721264,-0.420000,-7.980000,-0.560000
36.481669,0.167872,0.151280,1.087752,0.840000,-1.260000,-0.840000
36.485735,0.257664,-0.044408,1.141920,-2.800000,0.560000,-0.280000
36.489801,0.144936,0.018056,0.785680,-0.420000,-7.280000,0.280000
36.493867,0.134200,0.138104,1.149240,0.560000,0.980000,-0.560000
36.497933,0.213256,-0.091256,1.022360,-4.060000,0.000000,-0.560000
36.501999,0.139568,0.023912,0.841800,1.120000,-7.000000,0.560000
36.506065,0.199104,0.142496,1.208776,1.120000,-1.400000,-0.560000
36.510131,0.209840,-0.106384,0.903288,-4.480000,-1.680000,-0.840000
36.514197,0.191296,0.012200,0.907680,0.280000,-4.060000,0.420000
36.518262,0.132736,0.066856,1.054568,0.700000,-0.280000,-0.280000
36.522328,0.165432,-0.100040,0.854488,-1.960000,-1.260000,-0.560000
36.526394,0.180072,0.097112,1.055544,0.560000,-3.220000,0.280000
36.530460,0.138592,0.040016,1.005768,-0.560000,-2.380000,-0.980000
36.534526,0.242536,0.032696,0.915488,-1.120000,-2.520000,-0.840000
36.538592,0.165432,0.065880,1.109712,-0.980000,0.140000,0.140000
36.542658,0.180560,0.004392,0.980880,-1.820000,-3.500000,-0.700000
36.546724,0.159576,0.055144,0.976488,-0.140000,-2.940000,-0.280000
36.550790,0.247904,0.022448,1.149728,-0.980000,0.560000,0.420000
36.554856,0.152744,-0.090280,0.776408,-1.400000,-4.200000,-0.140000
36.558922,0.174216,0.097112,1.074088,1.120000,-1.400000,-1.540000
36.562988,0.150304,-0.049776,0.993568,-2.520000,-0.560000,-0.420000
36.567054,0.167872,-0.007808,0.818864,-0.980000,-2.940000,0.560000
36.571120,0.173728,0.115656,1.150216,2.380000,-0.420000,-0.420000
36.575186,0.142008,-0.034160,0.971608,-2.380000,-1.260000,-0.840000
36.579251,0.226432,0.033184,0.891088,-0.980000,-4.200000,0.560000
36.583317,0.183976,0.093696,1.194136,-0.280000,1.260000,-0.280000
36.587383,0.127368,-0.023424,0.872056,-1.680000,-4.340000,-0.980000
36.591449,0.266448,0.028304,0.939888,-0.840000,-3.360000,-0.420000
36.595515,0.167872,0.008296,1.193648,-0.840000,1.680000,-0.700000
36.599581,0.136640,-0.039528,0.827160,-0.140000,-4.480000,0.420000
36.603647,0.183976,0.140056,0.974048,-0.420000,0.980000,0.000000
36.607713,0.191784,-0.045384,1.067256,-2.380000,0.140000,-0.140000
36.611779,0.144448,0.004880,0.822280,0.840000,-7.000000,-0.700000
36.615845,0.249856,0.083448,1.119472,0.140000,1.540000,-0.560000
36.619911,0.177144,-0.083448,0.996984,-4.060000,1.260000,-0.280000
36.623977,0.127368,0.117120,0.912560,1.540000,-4.200000,0.000000
36.628043,0.143472,0.092720,1.133136,-0.140000,2.380000,-0.840000
36.632109,0.241072,-0.099552,0.926712,-3.080000,-1.820000,0.000000
36.636175,0.189832,0.060512,0.943792,1.960000,-6.020000,0.280000
36.640240,0.130296,0.070760,1.081408,-0.840000,0.980000,-1.260000
36.644306,0.253272,-0.102480,0.883768,-3.080000,-1.540000,0.140000
36.648372,0.165920,0.105896,1.031144,1.260000,0.420000,0.280000
36.652438,0.169336,0.008296,1.015528,0.420000,0.280000,-0.700000
36.656504,0.151280,-0.018544,0.889136,-2.660000,-0.840000,-0.980000
36.660570,0.208376,0.105896,1.141920,0.280000,0.140000,-0.420000
36.664636,0.143960,-0.017568,0.904264,-1.120000,-2.240000,-0.420000
36.668702,0.204960,0.012688,0.925248,-1.400000,-0.140000,-0.700000
36.672768,0.195200,0.008296,1.196088,-1.820000,0.840000,0.560000
36.676834,0.150304,0.012688,0.869128,-0.840000,-4.060000,-0.420000
36.680900,0.156648,0.063440,1.006744,0.980000,0.280000,-0.140000
36.684966,0.212768,-0.022936,1.075552,-1.540000,0.280000,-0.280000
36.689032,0.164944,0.020496,0.772992,-0.140000,-5.880000,-0.420000
36.693098,0.166896,0.119072,1.145824,1.120000,0.420000,-1.960000
36.697164,0.223016,-0.081496,1.005280,-3.500000,-0.140000,0.280000
36.701229,0.187392,0.040016,0.854488,0.840000,-0.980000,1.680000
36.705295,0.144936,0.089792,1.114104,1.120000,3.220000,-0.700000
36.709361,0.195200,-0.081496,0.917928,-3.780000,-1.680000,-1.540000
36.713427,0.232776,0.051728,0.935008,-0.560000,-2.520000,0.000000
36.717493,0.134200,0.067344,1.214144,0.840000,3.920000,-0.700000
36.721559,0.115168,-0.049288,0.862784,-0.420000,-2.380000,-0.560000
36.725625,0.244000,0.058560,0.969168,-0.280000,-2.100000,0.700000
36.729691,0.162992,0.027328,1.099952,-1.540000,0.980000,-0.700000
36.733757,0.154696,0.003904,0.844728,0.560000,-5.040000,-0.420000
36.737823,0.151280,0.053192,0.996496,0.420000,0.280000,-0.840000
36.741889,0.244488,-0.049288,1.083360,-2.800000,1.260000,-0.700000
36.745955,0.136152,0.027328,0.883768,0.980000,-4.340000,-0.140000
36.750021,0.180072,0.133224,1.146312,0.840000,1.960000,-0.140000
36.754087,0.217648,-0.082960,0.933056,-2.800000,-0.560000,0.280000
36.758152,0.167384,0.068320,0.879376,0.560000,-4.480000,-0.420000
36.762218,0.149328,0.067344,1.117520,-0.560000,1.680000,-0.840000
36.766284,0.234240,-0.073200,0.919392,-2.800000,0.420000,0.420000
36.770350,0.175680,0.070272,1.045296,2.660000,-1.400000,-0.420000
36.774416,0.146888,0.048800,1.037976,-0.280000,0.000000,-0.420000
36.778482,0.174216,-0.068808,0.793488,-2.240000,-1.400000,0.000000
36.782548,0.199592,0.121024,1.177056,0.140000,-0.840000,0.140000
36.786614,0.157136,0.019032,0.949648,0.420000,-2.660000,-0.700000
36.790680,0.180072,-0.036600,0.887184,-1.960000,-1.120000,-1.120000
36.794746,0.226920,0.058072,1.184864,-1.680000,1.680000,-0.420000
36.798812,0.165432,-0.003904,0.878888,-0.140000,-3.640000,0.840000
36.802878,0.153720,0.086864,0.950624,1.260000,-0.280000,-0.840000
36.806944,0.263032,-0.039040,1.118984,-1.820000,1.820000,-0.560000
36.811010,0.167872,-0.036112,0.815936,-1.260000,-3.640000,-0.140000
36.815076,0.120536,0.141520,1.086776,1.820000,1.820000,-0.980000
36.819141,0.217648,-0.056120,1.056520,-3.640000,2.940000,-0.420000
36.823207,0.160064,0.016104,0.815448,-0.420000,-3.640000,0.560000
36.827273,0.149328,0.133712,1.161928,1.820000,0.560000,-0.840000
36.831339,0.182024,-0.062952,1.020408,-3.500000,0.420000,-0.700000
36.835405,0.180072,-0.009272,0.827648,0.000000,-4.340000,0.280000
36.839471,0.170312,0.098576,1.138992,0.840000,1.540000,-0.840000
36.843537,0.230824,-0.082472,0.943304,-2.660000,-1.400000,-0.140000
36.847603,0.178608,0.051728,0.936472,0.140000,-3.080000,0.000000
36.851669,0.182024,0.086864,1.118496,0.560000,1.680000,-0.560000
36.855735,0.096624,-0.067344,0.833992,-2.380000,-2.940000,-1.120000
36.859801,0.265960,0.118096,1.021384,0.560000,-1.540000,0.000000
36.863867,0.161040,-0.023912,1.051640,-1.260000,2.100000,0.280000
36.867933,0.175680,0.025376,0.913536,-0.420000,-1.960000,-0.700000
36.871999,0.163968,0.095648,1.115080,-0.280000,0.980000,0.000000
36.876064,0.142984,-0.109800,0.924760,-2.100000,-0.980000,-0.420000
36.880130,0.231312,0.047824,0.944280,0.700000,-3.780000,-0.280000
36.884196,0.220088,0.057584,1.087752,-1.400000,0.700000,-0.560000
36.888262,0.198616,-0.055144,0.828624,-2.240000,0.000000,-0.700000
36.892328,0.164456,0.092232,1.041392,0.980000,0.980000,-0.280000
36.896394,0.090768,0.020984,1.047736,-1.120000,1.680000,-0.280000
36.900460,0.228384,0.001464,0.880840,-1.820000,-1.540000,0.420000
36.904526,0.217160,0.101504,1.139968,0.840000,1.820000,-0.280000
36.908592,0.108824,-0.041968,0.942816,-0.840000,-1.680000,-0.700000
36.912658,0.215208,0.044408,0.881816,-1.260000,-1.680000,-0.560000
36.916724,0.202520,0.043432,1.206824,-0.700000,3.080000,-0.420000
36.920790,0.108336,-0.035624,0.923784,0.140000,-2.940000,-0.980000
36.924856,0.243024,0.022448,0.861320,-0.140000,-1.120000,0.140000
36.928922,0.196176,0.001464,1.203896,-2.800000,4.060000,-0.420000
36.932988,0.106872,0.015616,0.844728,-0.420000,-6.440000,-0.280000
36.937053,0.181048,0.149816,0.985272,1.400000,-0.420000,-0.140000
36.941119,0.262056,-0.066856,1.150704,-3.080000,2.520000,-0.280000
36.945185,0.127856,-0.013176,0.772504,0.140000,-5.740000,-0.560000
36.949251,0.149816,0.147376,1.129720,1.400000,0.560000,0.140000
36.953317,0.214232,-0.107848,1.003328,-4.200000,3.220000,-1.120000
36.957383,0.210328,0.049288,0.855952,0.420000,-5.040000,0.700000
36.961449,0.175192,0.142008,1.157536,1.400000,1.540000,-0.840000
36.965515,0.153720,-0.124928,0.950136,-3.080000,0.420000,-0.980000
36.969581,0.192272,0.011224,0.875472,0.420000,-2.800000,-0.140000
36.973647,0.158600,0.091744,1.101904,-0.420000,2.240000,0.420000
36.977713,0.172752,-0.009760,0.932568,-2.100000,-0.980000,-1.120000
36.981779,0.278160,0.020496,0.996008,1.680000,-2.660000,0.140000
36.985845,0.140056,0.025376,1.082872,-0.980000,2.380000,-0.420000
36.989911,0.142008,-0.025376,0.859368,-2.100000,-2.100000,-1.540000
36.993976,0.190808,0.101504,1.019920,-0.560000,0.140000,-0.280000
36.998042,0.158112,-0.000488,1.029192,-1.820000,0.700000,0.140000
37.002108,0.179584,0.066856,0.942816,1.120000,-4.060000,-0.700000
37.006174,0.240584,0.028792,1.083360,0.280000,2.240000,0.140000
37.010240,0.151280,-0.091256,0.946720,-3.360000,0.560000,0.700000
37.014306,0.115656,0.092232,0.969168,1.680000,-2.240000,-0.420000
37.018372,0.206424,0.017568,1.050176,0.140000,0.280000,-0.700000
37.022438,0.216184,-0.040504,0.880352,-2.800000,-2.520000,0.140000
37.026504,0.177144,0.074176,1.036024,1.680000,-2.240000,-0.700000
37.030570,0.148840,0.055144,1.069208,-0.840000,1.820000,-1.120000
37.034636,0.218136,-0.035624,0.790560,-1.960000,-2.520000,0.280000
37.038702,0.180560,0.075152,1.134112,1.120000,0.840000,-0.840000
37.042768,0.140056,0.018056,0.992104,-0.280000,-1.960000,-0.140000
37.046834,0.180072,0.020984,0.911096,-2.380000,-0.560000,-0.840000
37.050899,0.301096,0.039040,1.167296,-0.840000,3.220000,-0.280000
37.054965,0.062464,-0.080032,0.860832,-1.120000,-2.240000,-0.700000
37.059031,0.212768,0.117120,0.980880,0.140000,0.280000,0.280000
37.063097,0.183488,-0.038552,1.180472,-2.240000,1.960000,-0.140000
37.067163,0.153720,0.005368,0.791048,0.560000,-5.600000,-0.280000
37.071229,0.165920,0.105408,0.976488,1.400000,0.000000,-0.560000
37.075295,0.273280,-0.029768,1.142408,-4.060000,2.940000,-0.560000
37.079361,0.132248,0.011224,0.812032,0.980000,-5.040000,0.420000
37.083427,0.113704,0.181536,1.151192,1.120000,1.960000,-0.700000
37.087493,0.271328,-0.130784,1.004792,-3.360000,0.700000,-0.560000
37.091559,0.142984,-0.016592,0.802760,0.280000,-3.080000,0.420000
37.095625,0.190808,0.122976,1.172664,1.960000,0.280000,-0.840000
37.099691,0.213744,-0.090768,0.929152,-3.220000,1.260000,-0.840000
37.103757,0.167384,0.029768,0.932568,0.420000,-0.700000,0.280000
37.107823,0.138592,0.095648,1.072624,0.980000,1.260000,-0.840000
37.111888,0.178120,-0.065880,0.880840,-2.800000,-0.700000,-1.260000
37.115954,0.222528,0.079056,1.022360,0.140000,-1.260000,0.560000
37.120020,0.167872,0.079544,1.080920,0.280000,0.000000,0.280000
37.124086,0.125904,-0.026352,0.900848,-1.120000,-0.840000,-0.840000
37.128152,0.247904,0.042456,1.052616,-0.560000,0.000000,-0.420000
37.132218,0.159576,-0.014152,1.001864,-2.380000,-0.840000,-0.560000
37.136284,0.142008,0.076128,0.975024,0.980000,-2.100000,-0.980000
37.140350,0.214720,0.041480,1.080920,-0.420000,1.120000,-0.140000
37.144416,0.203496,-0.089792,0.901336,-1.680000,-1.120000,0.560000
37.148482,0.110776,0.069296,0.903288,0.840000,-1.680000,-0.980000
37.152548,0.225456,-0.009760,1.136064,-0.700000,0.700000,-0.420000
37.156614,0.172752,-0.038552,0.826184,-1.960000,-1.540000,1.120000
37.160680,0.165432,0.142008,1.090680,1.260000,0.000000,-0.700000
37.164746,0.142496,-0.012200,1.010160,-2.100000,0.840000,-1.260000
37.168811,0.260592,0.001464,0.845216,-2.240000,-4.900000,0.140000
37.172877,0.170312,0.118584,1.161440,0.420000,2.520000,-0.280000
37.176943,0.149328,-0.002928,1.019920,0.420000,-2.100000,-0.280000
37.181009,0.178120,0.002440,0.812520,-1.540000,-2.100000,-0.420000
37.185075,0.248392,0.007320,1.209264,-0.840000,2.800000,-0.840000
37.189141,0.146888,-0.049288,0.833992,-0.420000,-3.780000,-0.280000
37.193207,0.185928,0.100528,0.967216,0.140000,0.700000,0.420000
37.197273,0.176168,0.002928,1.150704,-2.380000,3.780000,-0.420000
37.201339,0.170800,-0.054656,0.816912,0.840000,-6.160000,-0.420000
37.205405,0.140056,0.097600,0.985760,0.980000,0.840000,-0.420000
37.209471,0.209840,0.004880,1.178032,-4.480000,2.940000,-0.700000
37.213537,0.169336,0.029768,0.790560,0.000000,-6.300000,-0.140000
37.217603,0.194224,0.182512,1.159488,1.540000,-0.420000,0.140000
37.221669,0.240096,-0.122488,0.993568,-3.220000,2.240000,-0.700000
37.225735,0.144936,-0.004880,0.858880,0.560000,-2.800000,0.420000
37.229800,0.146888,0.104920,1.143384,0.700000,0.700000,-0.420000
37.233866,0.197640,-0.070760,0.915488,-3.220000,0.980000,-0.980000
37.237932,0.238144,0.000488,0.908168,1.400000,-3.500000,-0.140000
37.241998,0.130784,0.077104,1.081408,0.700000,0.840000,-0.840000
37.246064,0.191784,-0.056120,0.908168,-2.380000,0.420000,-0.700000
37.250130,0.216672,0.071736,1.031144,-0.420000,0.560000,0.700000
37.254196,0.140056,0.066368,1.074088,0.000000,0.280000,-0.560000
37.258262,0.139080,0.001952,0.820328,-0.700000,-1.960000,-1.120000
37.262328,0.258640,0.051728,1.120448,-0.560000,0.000000,-0.280000
37.266394,0.163480,-0.040016,0.981368,-2.100000,0.140000,0.000000
37.270460,0.145424,0.072712,0.940376,1.260000,-1.820000,-0.700000
37.274526,0.193736,0.051728,1.116544,-1.400000,2.800000,-0.280000
37.278592,0.189832,-0.106872,0.854976,-2.380000,-1.260000,0.000000
37.282658,0.200568,0.113704,1.000888,1.680000,-1.680000,0.140000
37.286723,0.161040,0.013176,1.117520,-0.700000,3.080000,-0.980000
37.290789,0.216672,-0.055632,0.810568,-2.520000,-1.960000,-0.420000
37.294855,0.141520,0.093208,1.020896,1.540000,-0.700000,-0.420000
37.298921,0.104920,0.040992,1.102392,-1.540000,1.820000,-0.560000
37.302987,0.267424,-0.009272,0.831064,-0.980000,-3.360000,0.420000
37.307053,0.173240,0.089792,1.145824,0.280000,1.820000,-0.420000
37.311119,0.165920,-0.027328,0.978440,-1.680000,-1.680000,-1.120000
37.315185,0.169336,0.016104,0.867664,-0.560000,-2.240000,-0.140000
37.319251,0.211792,0.038064,1.199504,-0.140000,3.220000,-0.420000
37.323317,0.148840,-0.057096,0.836432,-0.840000,-2.940000,-0.980000
37.327383,0.223016,0.072712,0.975512,-0.700000,-0.280000,0.280000
37.331449,0.173240,0.039040,1.096536,-1.680000,3.500000,0.420000
37.335515,0.152256,-0.061000,0.775432,0.560000,-3.920000,-0.560000
37.339581,0.202520,0.125904,1.069696,0.840000,1.680000,-0.840000
37.343646,0.216184,-0.031232,1.109712,-3.360000,3.220000,-0.840000
37.347712,0.142496,0.065392,0.872056,1.260000,-2.800000,-0.140000
37.351778,0.149328,0.141032,1.132160,0.980000,1.820000,-0.280000
37.355844,0.189344,-0.116144,0.942816,-4.900000,1.120000,-0.280000
37.359910,0.228384,0.036112,0.919392,0.840000,-3.360000,0.420000
37.363976,0.158600,0.030256,1.107760,0.560000,1.540000,-0.980000
37.368042,0.192272,-0.104920,0.896456,-2.940000,-0.420000,-1.400000
37.372108,0.169336,0.069296,0.973560,0.140000,1.400000,0.420000
37.376174,0.123464,0.086864,1.095072,0.560000,-0.140000,-0.560000
37.380240,0.170800,-0.026352,0.774944,-0.980000,-1.260000,-1.260000
37.384306,0.268888,0.093208,1.149240,-0.700000,0.280000,0.140000
37.388372,0.163480,0.033184,0.992104,-1.540000,-0.280000,0.000000
37.392438,0.135176,0.035624,0.968192,0.700000,-0.980000,-0.700000
37.396504,0.223016,-0.021960,1.110688,-1.260000,3.640000,-0.140000
37.400570,0.168848,-0.060512,0.844728,-1.960000,-2.100000,0.280000
37.404635,0.181536,0.116632,1.030656,2.100000,-0.560000,-0.700000
37.408701,0.166408,-0.018544,1.070184,-1.400000,2.660000,-0.560000
37.412767,0.193736,-0.041968,0.806664,-1.400000,-2.520000,0.140000
37.416833,0.150792,0.083936,1.038464,0.840000,0.840000,-1.120000
37.420899,0.195688,0.014640,1.083848,-2.380000,2.800000,-0.560000
37.424965,0.200568,0.018544,0.822280,-0.700000,-2.240000,0.840000
37.429031,0.162504,0.115656,1.195600,1.260000,3.500000,-0.980000
37.433097,0.177144,-0.065392,0.967704,-1.120000,-0.980000,-0.980000
37.437163,0.206912,0.010736,0.861808,-0.840000,-2.520000,0.000000
37.441229,0.238144,0.105408,1.214144,-0.700000,4.340000,-0.560000
37.445295,0.103944,-0.052216,0.875472,-1.260000,-2.100000,-0.700000
37.449361,0.160552,0.059536,0.933544,0.280000,-0.280000,-0.280000
37.453427,0.222528,-0.030744,1.123376,-1.260000,3.360000,0.000000
37.457493,0.095160,-0.046360,0.793976,0.840000,-4.340000,-0.840000
37.461558,0.211792,0.136640,1.050664,-0.280000,1.820000,-0.280000
37.465624,0.204960,-0.038064,1.100928,-2.940000,2.800000,-0.280000
37.469690,0.129808,0.029280,0.815448,1.400000,-4.480000,-0.420000
37.473756,0.195688,0.137128,1.115568,0.140000,1.960000,-0.420000
37.477822,0.230824,-0.101504,0.994544,-4.200000,1.400000,-0.140000
37.481888,0.179584,0.081008,0.934032,1.120000,-2.940000,-0.140000
37.485954,0.149816,0.071736,1.151680,0.280000,2.240000,0.140000
37.490020,0.174704,-0.116632,0.836432,-2.660000,0.280000,-0.560000
37.494086,0.210328,0.070760,0.961848,0.840000,-1.540000,-0.280000
37.498152,0.121024,0.049288,1.099952,-0.700000,-0.420000,-1.260000
37.502218,0.186904,0.005368,0.902312,-1.260000,-0.420000,-0.700000
37.506284,0.199104,0.057584,1.102880,0.980000,1.400000,0.700000
37.510350,0.129320,-0.019032,0.864736,-1.400000,-0.840000,-0.140000
37.514416,0.184464,0.056120,0.982832,-1.400000,-1.540000,-0.840000
37.518482,0.266448,0.049288,1.216096,-0.280000,0.420000,0.140000
37.522547,0.138592,-0.033672,0.806664,-0.420000,-3.080000,0.280000
37.526613,0.165432,0.077592,1.032608,-0.560000,1.680000,-1.260000
37.530679,0.199592,-0.008784,1.096536,-2.240000,0.840000,-0.280000
37.534745,0.123464,-0.059536,0.796904,0.000000,-4.200000,-0.140000
37.538811,0.164944,0.126392,1.150216,2.940000,-0.140000,-0.840000
37.542877,0.169336,-0.044408,0.971120,-3.220000,-0.420000,-0.560000
37.546943,0.203008,0.029768,0.847168,-0.420000,-4.760000,0.000000
37.551009,0.180072,0.071736,1.196576,0.840000,0.980000,-0.840000
37.555075,0.189832,-0.049776,0.936960,-2.660000,-1.680000,-0.280000
37.559141,0.186416,0.028792,0.878888,0.280000,-2.800000,0.700000
37.563207,0.216672,0.050752,1.142408,0.280000,0.840000,-0.700000
37.567273,0.169824,-0.027328,0.810568,-0.560000,-2.940000,-0.700000
37.571339,0.189832,0.099064,1.024800,-0.140000,1.540000,-0.140000
37.575405,0.186416,-0.005856,1.119960,-1.680000,0.700000,-0.560000
37.579470,0.107848,0.033672,0.840824,-0.280000,-3.220000,0.000000
37.583536,0.238632,0.101504,1.128744,0.140000,0.140000,0.000000
37.587602,0.191784,-0.119560,0.984784,-2.800000,0.560000,-0.420000
37.591668,0.147864,0.080032,0.867664,1.400000,-4.340000,-0.980000
37.595734,0.205448,0.065392,1.104832,-1.120000,3.080000,-0.280000
37.599800,0.230336,-0.102480,0.950136,-3.360000,0.420000,0.280000
37.603866,0.129320,0.101016,0.949648,3.500000,-2.240000,-0.980000
37.607932,0.170800,0.000976,1.062864,-1.120000,1.820000,-0.840000
37.611998,0.193736,-0.090280,0.793488,-3.360000,0.560000,0.140000
37.616064,0.152256,0.179096,1.113128,1.400000,-1.120000,0.140000
37.620130,0.141520,0.019032,1.010160,-0.980000,1.400000,-1.260000
37.624196,0.268888,-0.050752,0.905728,-1.260000,-1.120000,-0.140000
37.628262,0.147376,0.101992,1.145336,0.980000,0.140000,-0.560000
37.632328,0.102480,0.030744,0.950624,-1.820000,-0.420000,-0.840000
37.636393,0.292312,0.023912,0.975024,-1.540000,0.140000,-0.140000
37.640459,0.197640,-0.009760,1.106784,-0.280000,1.120000,0.280000
37.644525,0.101992,-0.058072,0.787144,-0.840000,-2.800000,-0.840000
37.648591,0.248880,0.067832,1.102392,-0.980000,2.520000,-0.560000
37.652657,0.146888,-0.019032,1.054080,-1.680000,2.100000,0.000000
37.656723,0.102480,0.045872,0.734928,1.680000,-3.780000,-0.140000
37.660789,0.236680,0.120048,1.158024,0.000000,3.220000,-0.840000
37.664855,0.194712,-0.074664,1.021384,-3.360000,-1.120000,-0.140000
37.668921,0.174216,0.095160,0.870104,1.820000,-4.060000,0.140000
37.672987,0.158112,0.083936,1.213168,-0.560000,6.160000,0.000000
37.677053,0.205936,-0.114680,0.907192,-3.640000,-0.560000,-0.840000
37.681119,0.198128,0.061000,0.865712,1.960000,-4.340000,-0.280000
37.685185,0.143960,0.059536,1.252696,-0.420000,3.780000,-1.400000
37.689251,0.167872,-0.093696,0.767136,-2.100000,-2.520000,-0.560000
37.693317,0.223504,0.105408,1.008208,0.980000,-1.400000,0.840000
37.697382,0.160064,0.023424,1.108736,-1.120000,3.640000,-0.700000
37.701448,0.162504,-0.052216,0.803248,-1.820000,-0.840000,-0.140000
37.705514,0.181536,0.113704,1.072136,0.700000,0.700000,0.140000
37.709580,0.143472,-0.049776,1.016992,-2.100000,0.840000,-1.260000
37.713646,0.162504,0.037576,0.913536,0.280000,-3.640000,-0.560000
37.717712,0.251320,0.093696,1.143872,-0.140000,1.120000,0.560000
37.721778,0.160552,-0.051728,0.965264,-1.680000,-0.420000,-0.840000
37.725844,0.137616,0.088328,0.917440,0.700000,-2.380000,-0.560000
37.729910,0.193736,0.014640,1.099952,-1.260000,2.660000,0.140000
37.733976,0.203008,-0.075640,0.868152,-1.540000,-2.240000,-0.280000
37.738042,0.142984,0.080520,1.027728,1.540000,-2.380000,-0.840000
37.742108,0.165920,0.015128,1.051152,-2.660000,1.400000,-0.280000
37.746174,0.215208,-0.017080,0.879376,-0.980000,-0.840000,-0.280000
37.750240,0.157136,0.096136,1.099464,2.520000,-0.700000,-0.700000
37.754305,0.142496,-0.063440,0.927200,-2.800000,-0.700000,-0.560000
37.758371,0.230336,0.057584,0.967704,-1.820000,-1.820000,0.280000
37.762437,0.203984,0.107360,1.168760,0.560000,0.980000,-0.140000
37.766503,0.139080,-0.038064,0.829600,-0.980000,-1.400000,-0.280000
37.770569,0.247416,-0.015616,0.979904,-0.560000,-0.280000,-0.560000
37.774635,0.132248,0.050752,1.152168,-1.260000,0.980000,-0.420000
37.778701,0.128344,0.023912,0.819352,0.560000,-2.800000,-0.140000
37.782767,0.249856,0.057584,1.048712,0.140000,2.100000,0.280000
37.786833,0.142008,-0.047336,1.052616,-2.240000,0.560000,-0.560000
37.790899,0.127856,0.046848,0.793976,0.980000,-5.460000,-0.560000
37.794965,0.215696,0.096624,1.217072,-0.560000,1.960000,-0.700000
37.799031,0.216184,-0.112728,0.959408,-3.080000,0.000000,0.420000
37.803097,0.150792,0.099064,0.845216,2.100000,-4.340000,-0.420000
37.807163,0.221064,0.031232,1.168760,-1.260000,2.940000,-1.400000
37.811228,0.151280,-0.085888,0.870104,-3.780000,-1.960000,0.140000
37.815294,0.137128,0.142496,0.994544,2.520000,-2.660000,0.700000
37.819360,0.184952,0.017568,1.085800,-0.840000,2.240000,-0.980000
37.823426,0.228384,-0.094672,0.838384,-2.800000,-3.780000,0.000000
37.827492,0.168848,0.168848,1.085800,1.680000,-0.280000,-0.420000
37.831558,0.171288,-0.015128,1.024800,-1.260000,0.980000,-0.840000
37.835624,0.235216,-0.019520,0.875960,-2.100000,-1.120000,-0.560000
37.839690,0.196664,0.110776,1.136552,0.700000,0.700000,-0.140000
37.843756,0.127368,-0.028792,0.902800,-1.540000,-0.840000,-0.840000
37.847822,0.245952,0.006832,0.995520,-0.420000,1.820000,0.140000
37.851888,0.145424,-0.011712,1.025288,-0.560000,1.960000,0.420000
37.855954,0.104920,-0.024400,0.825208,-0.420000,-1.680000,-1.120000
37.860020,0.236192,0.093208,1.091656,-0.420000,2.380000,-0.840000
37.864086,0.092232,-0.044408,0.998448,-1.960000,-0.560000,-0.420000
37.868152,0.168360,0.051240,0.894016,0.560000,-4.060000,-0.560000
37.872217,0.187880,0.145424,1.205848,0.000000,2.240000,-0.560000
37.876283,0.223016,-0.046360,0.912560,-2.940000,-1.400000,0.560000
37.880349,0.230336,0.075640,0.934032,0.140000,-1.960000,0.420000
37.884415,0.155672,0.019520,1.190720,-0.280000,1.680000,-1.260000
37.888481,0.155672,-0.122000,0.808128,-1.820000,-2.660000,0.000000
37.892547,0.170800,0.091256,1.016504,1.120000,0.980000,0.280000
37.896613,0.159576,0.001952,1.077992,-0.140000,0.000000,-1.120000
37.900679,0.200080,0.011224,0.790560,-1.120000,-3.640000,-0.280000
37.904745,0.179584,0.110288,1.125328,-0.140000,1.400000,0.280000
37.908811,0.177632,-0.034160,0.984296,-1.260000,-0.140000,-1.260000
37.912877,0.214232,0.003416,0.907680,-0.560000,-1.820000,0.280000
37.916943,0.198128,0.060512,1.154608,-1.680000,3.360000,0.000000
37.921009,0.162992,-0.053680,0.892552,-0.700000,-2.940000,-0.840000
37.925075,0.115656,0.108336,0.938912,1.260000,-1.400000,-0.420000
37.929140,0.292800,0.016592,1.145824,-1.680000,2.800000,-0.560000
37.933206,0.133712,-0.071736,0.777872,-1.120000,-3.080000,-0.560000
37.937272,0.110288,0.193736,1.129232,1.680000,0.840000,-0.700000
37.941338,0.230824,-0.077592,1.057984,-3.360000,1.960000,0.280000
37.945404,0.190808,0.021960,0.914024,0.140000,-1.680000,0.140000
37.949470,0.167384,0.105896,1.065304,1.120000,-0.280000,-0.840000
37.953536,0.162504,-0.065392,0.956480,-4.620000,-0.140000,-0.840000
37.957602,0.168360,-0.016592,0.939888,0.980000,-2.520000,0.140000
37.961668,0.160552,0.077592,1.100928,1.820000,0.700000,-0.280000
37.965734,0.194224,-0.064416,0.838872,-2.380000,-1.400000,-0.140000
37.969800,0.190808,0.091256,1.057496,-1.120000,0.140000,0.140000
37.973866,0.114680,0.024888,1.011624,0.840000,-2.100000,-1.260000
37.977932,0.179096,-0.000488,0.890600,-0.840000,-3.360000,-0.280000
37.981998,0.235216,0.060024,1.120448,-1.120000,0.840000,-0.700000
37.986063,0.207888,0.029280,1.007232,-1.260000,-1.960000,0.140000
37.990129,0.128832,0.092232,0.924272,0.420000,-2.100000,-0.700000
37.994195,0.230336,-0.020008,1.142896,-0.840000,2.240000,-0.700000
37.998261,0.160064,-0.135664,0.756888,-2.240000,-2.520000,0.000000
38.002327,0.163968,0.122488,1.054080,0.840000,-1.260000,0.000000
38.006393,0.176656,-0.008296,1.118984,-1.120000,2.660000,-0.560000
38.010459,0.171288,-0.034160,0.814960,0.000000,-3.640000,0.560000
38.014525,0.140056,0.144448,1.049688,0.560000,-0.700000,-0.560000
38.018591,0.160064,0.007320,1.040416,-3.360000,-1.260000,-1.540000
38.022657,0.227896,0.008296,0.877912,-0.420000,-5.180000,0.560000
38.026723,0.217160,0.081008,1.186328,1.820000,1.260000,0.280000
38.030789,0.131272,-0.051728,0.935008,-1.680000,-1.400000,-1.260000
38.034855,0.234728,0.048800,0.887184,-1.820000,-2.800000,0.000000
38.038921,0.208864,0.028792,1.130696,-0.840000,2.660000,0.140000
38.042986,0.141032,-0.059536,0.867664,-0.280000,-3.780000,-0.140000
38.047052,0.184464,0.098088,0.980392,0.420000,-0.560000,-0.700000
38.051118,0.179584,-0.044408,1.108736,-2.100000,1.680000,-0.840000
38.055184,0.129320,-0.031232,0.765672,0.420000,-4.200000,-0.840000
38.059250,0.183488,0.182512,1.158512,-0.140000,2.520000,0.560000
38.063316,0.201544,-0.042944,1.023336,-3.500000,-0.560000,-0.140000
38.067382,0.191784,0.045872,0.886696,1.400000,-6.440000,-0.420000
38.071448,0.142496,0.072712,1.154608,0.140000,0.560000,-0.700000
38.075514,0.231800,-0.098576,0.914512,-4.200000,0.280000,-0.560000
38.079580,0.225944,0.064904,0.967704,1.680000,-2.940000,0.420000
38.083646,0.105896,0.077104,1.105320,0.420000,1.260000,0.280000
38.087712,0.195200,-0.108336,0.785192,-2.240000,-1.820000,-0.700000
38.091778,0.197152,0.087352,1.078968,0.420000,-1.820000,-0.280000
38.095844,0.134688,-0.020984,0.957456,-0.980000,-0.420000,-1.260000
38.099909,0.230336,0.054168,0.951112,-2.380000,0.140000,-0.140000
38.103975,0.188368,0.101016,1.156072,0.000000,1.120000,0.560000
38.108041,0.125416,-0.059536,0.867176,0.140000,-3.220000,-0.560000
38.112107,0.251320,0.058072,0.961848,0.700000,-1.260000,-0.840000
38.116173,0.252296,-0.027328,1.139968,-3.220000,2.520000,-0.280000
38.120239,0.101016,0.010736,0.829600,-0.420000,-2.800000,-0.840000
38.124305,0.147376,0.147864,1.110688,1.820000,0.700000,-0.420000
38.128371,0.197152,-0.092232,1.013088,-2.660000,2.380000,-0.980000
38.132437,0.134200,0.001952,0.799344,-0.420000,-5.040000,0.560000
38.136503,0.188368,0.130296,1.160464,1.680000,0.280000,0.140000
38.140569,0.187880,-0.065880,0.988200,-2.800000,0.560000,-1.120000
38.144635,0.211792,0.017568,0.860832,0.000000,-3.920000,0.560000
38.148701,0.162016,0.096136,1.171200,-0.140000,2.520000,-1.120000
38.152767,0.173240,-0.083936,0.914512,-1.960000,-1.260000,-0.140000
38.156832,0.167384,0.068320,0.905240,0.280000,-1.820000,0.420000
38.160898,0.230824,0.070760,1.118496,-0.700000,0.280000,-0.280000
38.164964,0.137128,-0.051728,0.820328,-1.680000,-2.380000,-0.700000
38.169030,0.257176,0.081008,1.077504,0.700000,0.980000,0.000000
38.173096,0.142984,-0.020496,1.037976,-2.520000,2.940000,-0.700000
38.177162,0.116144,0.026352,0.900360,0.420000,-3.780000,-1.120000
38.181228,0.212768,0.099552,1.091656,0.140000,0.280000,-0.840000
38.185294,0.197640,-0.080520,0.972096,-2.520000,-0.280000,-0.280000
38.189360,0.139080,0.068320,0.904752,1.540000,-3.220000,-0.280000
38.193426,0.247904,0.059048,1.131672,-0.140000,2.520000,0.420000
38.197492,0.190808,-0.109800,0.827648,-3.500000,1.120000,-0.420000
38.201558,0.156648,0.105896,1.043344,1.680000,-2.240000,-0.700000
38.205624,0.143960,0.025376,1.029192,-0.560000,2.660000,0.140000
38.209690,0.206912,-0.025376,0.866200,-1.960000,-0.280000,0.140000
38.213756,0.187392,0.109800,1.138992,1.260000,-0.840000,-0.420000
38.217821,0.132248,0.037576,0.988688,-1.400000,-0.840000,-0.560000
38.221887,0.245464,-0.024400,0.916464,-1.260000,-0.980000,-0.560000
38.225953,0.204960,0.021960,1.149240,0.140000,3.220000,-0.560000
38.230019,0.139568,-0.029768,0.885720,-0.700000,-2.660000,-0.560000
38.234085,0.173240,0.069296,0.922808,-1.120000,0.280000,-0.980000
38.238151,0.226432,0.010248,1.191696,-1.260000,1.400000,0.280000
38.242217,0.123464,-0.021960,0.752496,0.560000,-3.500000,0.700000
38.246283,0.209352,0.092720,1.084336,0.420000,2.800000,-0.700000
38.250349,0.187880,-0.070272,1.049200,-3.360000,1.820000,-0.560000
38.254415,0.145424,0.049776,0.806664,0.420000,-5.040000,-0.280000
38.258481,0.166896,0.117608,1.103856,1.820000,2.800000,-1.120000
38.262547,0.253760,-0.063928,1.080432,-3.080000,1.680000,-0.420000
38.266613,0.146888,0.076128,0.858880,0.560000,-2.940000,0.140000
38.270679,0.195688,0.117608,1.166320,-0.980000,2.940000,-0.840000
38.274744,0.165920,-0.118096,0.896456,-3.780000,1.820000,-0.700000
38.278810,0.174216,0.015616,0.937936,0.840000,-2.800000,0.420000
38.282876,0.183976,0.057584,1.144360,0.420000,1.260000,-0.420000
38.286942,0.175680,-0.073200,0.818864,-1.400000,-0.560000,-1.400000
38.291008,0.185928,0.063928,1.013576,0.840000,-0.840000,0.280000
38.295074,0.151768,0.042456,1.031632,-1.260000,1.260000,-0.140000
38.299140,0.139568,0.015616,0.883768,-0.980000,-0.280000,-0.700000
38.303206,0.253760,0.118584,1.191696,0.560000,-0.140000,0.560000
38.307272,0.154208,-0.044896,0.906704,-1.960000,-1.260000,-0.840000
38.311338,0.170800,0.065392,0.999912,0.140000,-2.100000,-1.120000
38.315404,0.183000,0.019032,1.101904,-0.700000,0.840000,-0.280000
38.319470,0.138592,-0.086864,0.875960,-1.680000,-1.120000,0.420000
38.323536,0.192272,0.082472,1.001376,2.100000,-2.940000,-0.700000
38.327602,0.219600,-0.015128,1.030656,-1.820000,2.240000,-0.420000
38.331667,0.166896,-0.025376,0.804712,-2.240000,-2.240000,-0.280000
