Time [s],lsm6dsv16x_acc_x [g],lsm6dsv16x_acc_y [g],lsm6dsv16x_acc_z [g],lsm6dsv16x_gyro_x [dps],lsm6dsv16x_gyro_y [dps],lsm6dsv16x_gyro_z [dps]
83.430685,0.198616,0.013176,1.081896,-0.980000,1.960000,-0.560000
83.434751,0.211792,0.020984,0.874496,0.840000,-4.060000,-0.420000
83.438817,0.223992,0.109800,0.990640,-0.840000,3.920000,0.000000
83.442883,0.247416,-0.071248,1.076040,-2.380000,1.960000,-0.140000
83.446949,0.211304,-0.015128,0.807152,2.240000,-5.880000,-0.700000
83.451015,0.281088,0.150304,1.128744,-0.700000,2.520000,-0.420000
83.455081,0.234728,-0.066368,1.033096,-3.080000,0.840000,-0.280000
83.459147,0.236192,0.080520,0.850096,2.100000,-4.480000,-0.700000
83.463213,0.209352,0.059048,1.053104,-1.400000,3.780000,0.140000
83.467279,0.226432,-0.082472,0.954040,-3.780000,0.280000,-0.840000
83.471344,0.277672,0.060512,0.988200,3.360000,-5.740000,-0.140000
83.475410,0.141520,0.043920,1.021384,-0.980000,2.520000,-0.560000
83.479476,0.296216,-0.055144,0.896944,-3.080000,-0.420000,0.000000
83.483542,0.230336,0.106872,1.026264,1.540000,-2.100000,-0.280000
83.487608,0.201056,0.012200,0.990152,-1.120000,-0.280000,-1.260000
83.491674,0.295728,-0.006832,0.890112,-2.380000,-0.140000,-0.420000
83.495740,0.209352,0.062952,1.135576,0.700000,0.420000,0.420000
83.499806,0.170800,0.012200,0.918416,0.140000,-1.120000,-0.280000
83.503872,0.325008,0.021960,0.939888,-2.800000,0.280000,-0.700000
83.507937,0.254736,0.014152,1.147288,-0.280000,-0.980000,0.280000
83.512003,0.103944,-0.014152,0.735416,0.700000,-3.920000,-0.560000
83.516069,0.360632,0.062464,1.048712,-0.280000,2.240000,0.140000
83.520135,0.254736,-0.022448,1.104832,-3.080000,1.400000,0.000000
83.524201,0.159088,0.040504,0.765184,1.960000,-5.040000,-1.120000
83.528267,0.234728,0.080520,1.068232,0.280000,3.780000,-0.140000
83.532333,0.267912,-0.061976,1.079456,-3.640000,0.980000,-0.420000
83.536399,0.204472,0.100040,0.774944,1.260000,-5.600000,0.000000
83.540465,0.255712,0.149816,1.213656,-0.560000,3.360000,-0.420000
83.544531,0.261568,-0.152744,0.969168,-3.640000,0.000000,-1.540000
83.548596,0.240584,0.022936,0.805688,2.240000,-3.640000,0.560000
83.552662,0.191296,0.070760,1.170712,-1.820000,4.760000,-0.700000
83.556728,0.261080,-0.036112,0.954528,-1.960000,-2.100000,-0.840000
83.560794,0.236680,0.029768,0.876448,2.660000,-3.780000,0.560000
83.564860,0.137128,0.041968,1.050664,-0.700000,2.380000,-0.420000
83.568926,0.281576,-0.059536,0.867176,-1.680000,-2.240000,-0.700000
83.572992,0.254248,0.105408,1.038464,0.560000,-2.520000,0.700000
83.577058,0.171776,0.029768,0.960384,-1.680000,1.120000,-1.400000
83.581124,0.314272,0.017568,0.949648,-0.420000,-2.660000,-0.420000
83.585189,0.251808,0.068320,1.067744,0.000000,0.840000,0.700000
83.589255,0.194224,0.016104,0.971608,-0.560000,0.420000,-0.840000
83.593321,0.275232,0.043920,1.022360,0.280000,-2.100000,-0.280000
83.597387,0.262056,0.019520,1.020408,-2.240000,0.980000,-0.140000
83.601453,0.179584,-0.061976,0.813496,-0.560000,-2.100000,-0.700000
83.605519,0.286944,0.085400,1.070184,0.140000,-0.420000,-0.420000
83.609585,0.183000,-0.026352,1.025776,-2.380000,1.260000,0.000000
83.613651,0.167384,-0.025864,0.812032,1.260000,-1.400000,0.140000
83.617717,0.289384,0.076616,1.122888,1.540000,-0.700000,-0.560000
83.621783,0.226920,0.020008,0.946720,-3.220000,-1.400000,-0.840000
83.625848,0.285480,0.040504,0.808128,-0.700000,-2.800000,-0.700000
83.629914,0.258152,0.107848,1.261968,-0.420000,2.940000,0.000000
83.633980,0.131272,-0.091744,0.855952,-0.420000,-0.420000,-0.280000
83.638046,0.359168,0.053192,0.932080,0.280000,-0.280000,0.840000
83.642112,0.203984,0.023424,1.136552,-1.260000,1.960000,-0.560000
83.646178,0.119560,-0.010736,0.822768,-0.420000,-5.880000,-1.540000
83.650244,0.340136,0.097112,0.967704,-0.840000,-0.280000,0.000000
83.654310,0.220088,-0.040016,1.143872,-2.940000,1.960000,0.000000
83.658376,0.187880,0.014640,0.803736,2.240000,-5.740000,-0.840000
83.662441,0.343552,0.096624,1.056520,-0.700000,2.800000,0.560000
83.666507,0.191784,-0.091256,0.988200,-4.060000,1.960000,-0.700000
83.670573,0.220088,0.056608,0.861320,2.940000,-5.880000,-0.980000
83.674639,0.271816,0.100040,1.071648,-1.680000,4.480000,-0.140000
83.678705,0.218624,-0.065392,0.999912,-4.060000,0.420000,-0.140000
83.682771,0.285968,0.098088,0.948184,3.220000,-4.900000,-0.140000
83.686837,0.139080,0.060512,1.046760,-0.700000,3.780000,0.140000
83.690903,0.271816,-0.106384,0.889136,-1.540000,-0.280000,-0.700000
83.694969,0.258152,0.069296,1.011624,1.680000,-2.660000,-0.140000
83.699035,0.177632,0.083936,0.993568,-1.120000,0.280000,-1.260000
83.703100,0.307440,-0.000488,0.887184,-2.660000,0.280000,-0.280000
83.707166,0.209840,0.042456,1.146312,0.980000,1.260000,0.280000
83.711232,0.141032,-0.022936,0.884744,-0.420000,-0.840000,-0.420000
83.715298,0.330376,0.039528,0.973072,-2.380000,0.000000,-0.280000
83.719364,0.244488,0.017080,1.117520,-1.120000,-0.140000,0.140000
83.723430,0.188856,0.025864,0.814960,0.840000,-3.780000,-0.700000
83.727496,0.258640,-0.003904,0.950136,-0.560000,2.520000,-0.840000
83.731562,0.270840,0.002928,1.175592,-2.660000,0.560000,-0.280000
83.735628,0.150792,0.036600,0.754936,1.960000,-4.200000,0.140000
83.739694,0.226432,0.127368,1.102880,0.700000,3.220000,-0.140000
83.743759,0.303048,-0.048800,1.054080,-3.360000,-0.980000,-0.140000
83.747825,0.216184,0.010736,0.794952,1.680000,-5.600000,-0.700000
83.751891,0.239120,0.142984,1.167296,-0.700000,3.080000,-0.840000
83.755957,0.288896,-0.112240,0.991616,-3.220000,0.140000,-0.420000
83.760023,0.186416,0.027816,0.801784,2.660000,-2.660000,0.560000
83.764089,0.243024,0.080032,1.180960,-0.140000,3.640000,0.000000
83.768155,0.184952,-0.078568,0.863760,-3.500000,-1.820000,-1.400000
83.772221,0.316224,0.046848,0.893040,1.260000,-4.480000,0.280000
83.776287,0.120048,0.039528,1.052128,-2.100000,4.340000,-0.420000
83.780352,0.281088,-0.023912,0.927688,-0.980000,-2.800000,-0.700000
83.784418,0.295728,0.085400,1.019432,1.120000,-1.680000,0.700000
83.788484,0.156160,0.052704,1.009672,-1.820000,2.100000,-0.560000
83.792550,0.254248,0.026840,0.948184,-0.140000,-2.660000,-0.280000
83.796616,0.309880,0.079544,1.006744,-0.700000,0.420000,-0.280000
83.800682,0.226432,-0.048800,0.946232,-2.240000,0.700000,-0.420000
83.804748,0.235704,0.072224,1.037000,0.420000,-1.400000,-0.840000
83.808814,0.260592,0.001464,1.083848,-0.700000,2.100000,0.420000
83.812880,0.176168,-0.091256,0.781288,-0.700000,0.700000,-0.140000
83.816946,0.255224,0.068808,1.010648,1.680000,-1.960000,-1.120000
83.821011,0.187880,0.002928,1.015040,-1.400000,0.000000,-0.840000
83.825077,0.241560,-0.034648,0.830576,-1.400000,-1.260000,0.140000
83.829143,0.271328,0.157624,1.145824,0.420000,1.120000,0.140000
83.833209,0.173240,0.006832,0.977464,-1.260000,0.420000,-0.420000
83.837275,0.275720,0.015616,0.842776,-0.420000,-2.660000,0.000000
83.841341,0.270352,0.083936,1.202432,-0.840000,0.840000,-0.560000
83.845407,0.181536,-0.044896,0.913536,-1.400000,-3.640000,-0.840000
83.849473,0.356240,0.094184,0.854488,-0.420000,0.700000,0.000000
83.853539,0.250832,-0.000488,1.234640,-2.100000,4.340000,0.140000
83.857604,0.111264,-0.074664,0.781776,0.980000,-3.220000,-1.120000
83.861670,0.304512,0.102968,0.989176,0.420000,1.260000,1.120000
83.865736,0.188368,-0.072224,1.040904,-2.940000,3.920000,-0.840000
83.869802,0.214232,-0.019520,0.811056,1.260000,-7.840000,-1.400000
83.873868,0.249856,0.164456,1.051640,-0.420000,2.940000,0.000000
83.877934,0.240584,-0.068320,1.095560,-3.500000,3.500000,-0.840000
83.882000,0.209840,0.070272,0.888648,2.380000,-6.580000,-0.560000
83.886066,0.231312,0.127368,1.072136,-0.980000,2.800000,0.560000
83.890132,0.315248,-0.091256,0.920856,-5.320000,1.260000,-0.420000
83.894198,0.304512,0.089304,0.997472,2.100000,-4.340000,0.280000
83.898263,0.073688,0.064416,1.065304,0.560000,2.940000,-0.420000
83.902329,0.264984,-0.150304,0.866688,-3.360000,0.000000,-0.980000
83.906395,0.283040,0.057584,1.006256,1.260000,-3.080000,-0.280000
83.910461,0.171288,0.086864,0.985760,-0.280000,-0.700000,-0.280000
83.914527,0.236680,0.026840,0.889136,-2.100000,1.260000,-0.840000
83.918593,0.269376,0.013176,1.111664,0.000000,-0.420000,0.000000
83.922659,0.200568,-0.003904,0.896944,-1.120000,-2.380000,-0.560000
83.926725,0.252296,0.042944,0.919392,-1.540000,2.380000,-0.420000
83.930791,0.300608,0.035624,1.207800,-0.980000,1.260000,0.420000
83.934857,0.131272,0.001952,0.762744,1.260000,-3.920000,-0.560000
83.938922,0.268888,0.101992,1.039440,-0.420000,1.680000,-0.280000
83.942988,0.330864,-0.074664,1.101904,-2.800000,2.240000,-0.840000
83.947054,0.137616,-0.006832,0.789584,1.400000,-6.580000,-0.280000
83.951120,0.186416,0.166896,1.073600,0.140000,2.800000,-0.280000
83.955186,0.347944,-0.090280,1.076528,-3.220000,0.980000,-0.560000
83.959252,0.165920,0.024888,0.751032,1.260000,-5.600000,0.000000
83.963318,0.255712,0.151768,1.124352,0.000000,2.520000,0.000000
83.967384,0.229360,-0.092720,1.057008,-3.920000,2.100000,-1.120000
83.971450,0.269376,0.009272,0.809104,2.240000,-5.600000,0.420000
83.975515,0.215696,0.083936,1.066768,-1.120000,5.040000,-0.560000
83.979581,0.232288,-0.083936,0.968192,-3.640000,-0.280000,-0.840000
83.983647,0.274744,0.059048,0.958920,1.680000,-2.800000,0.700000
83.987713,0.130784,0.079544,1.003816,-0.840000,2.520000,-0.420000
83.991779,0.263520,-0.042456,0.935008,-1.820000,-1.820000,-1.540000
83.995845,0.320616,0.067832,0.982344,0.840000,-3.360000,0.560000
83.999911,0.142008,0.029768,1.006744,-1.680000,2.800000,-0.700000
84.003977,0.261568,0.034648,0.961848,-0.280000,-2.520000,-0.700000
84.008043,0.300608,0.051240,1.071160,-0.280000,-0.980000,0.280000
84.012109,0.133712,-0.042456,0.901824,-1.120000,1.540000,-0.140000
84.016174,0.280600,0.067832,0.980880,0.140000,-3.220000,-0.840000
84.020240,0.282064,0.067344,1.131672,-1.820000,0.840000,0.140000
84.024306,0.152256,-0.073688,0.787632,-1.120000,0.000000,-0.840000
84.028372,0.345504,0.032208,1.018944,0.840000,-0.560000,-0.140000
84.032438,0.161040,-0.031720,1.019432,-2.100000,2.100000,-0.140000
84.036504,0.200080,-0.014152,0.813496,-0.700000,-2.380000,-0.420000
84.040570,0.284016,0.090280,1.065792,1.260000,-0.140000,-0.560000
84.044636,0.193736,0.045872,1.097512,-2.660000,2.240000,-0.420000
84.048702,0.258152,0.027328,0.743224,0.840000,-3.080000,-0.420000
84.052767,0.304512,0.098576,1.208776,-0.560000,1.820000,-0.280000
84.056833,0.153720,-0.010736,0.965752,-1.540000,-1.960000,-1.120000
84.060899,0.257176,0.040992,0.834480,0.280000,-1.960000,-0.140000
84.064965,0.316712,0.020008,1.237568,-1.540000,4.340000,0.420000
84.069031,0.124440,-0.061488,0.864248,-1.260000,-2.660000,-0.980000
84.073097,0.303536,0.102968,0.913536,0.560000,-2.100000,-0.280000
84.077163,0.202032,-0.061000,1.056520,-1.960000,3.360000,-0.560000
84.081229,0.218624,-0.042944,0.846192,0.980000,-6.020000,-1.120000
84.085295,0.242048,0.142496,0.990152,0.560000,2.520000,0.560000
84.089361,0.251808,-0.020008,1.073600,-3.780000,3.920000,0.280000
84.093426,0.226920,0.042456,0.854000,1.400000,-4.760000,-0.280000
84.097492,0.241072,0.104920,1.077504,-0.420000,3.220000,-0.280000
84.101558,0.228384,-0.115168,0.991616,-4.760000,0.560000,-0.840000
84.105624,0.282064,0.116144,0.985760,1.820000,-5.600000,0.000000
84.109690,0.139568,0.086864,1.070672,0.280000,2.100000,-0.140000
84.113756,0.311344,-0.104920,0.833504,-3.080000,0.560000,-1.120000
84.117822,0.264008,0.040992,1.035536,0.560000,-2.940000,-0.140000
84.121888,0.122488,0.105408,1.021384,0.000000,0.000000,-0.840000
84.125954,0.283040,-0.050752,0.827160,-1.400000,0.000000,-0.420000
84.130019,0.257664,0.027328,1.108736,0.560000,0.000000,-0.140000
84.134085,0.146888,0.016592,0.934032,-0.280000,-1.680000,-0.140000
84.138151,0.328424,0.082960,0.956480,-1.960000,1.400000,-0.280000
84.142217,0.286944,0.020984,1.132648,-1.260000,1.540000,0.000000
84.146283,0.134200,-0.037088,0.778848,-0.140000,-3.920000,-0.700000
84.150349,0.271816,0.061976,1.014552,0.000000,1.400000,-0.560000
84.154415,0.273280,-0.054168,1.194136,-2.100000,2.240000,-0.140000
84.158481,0.164944,0.005856,0.729072,1.260000,-6.020000,-0.280000
84.162547,0.211304,0.162992,1.034072,-0.140000,3.080000,0.140000
84.166613,0.272304,-0.045384,1.113128,-4.060000,1.820000,-0.420000
84.170678,0.195200,0.028304,0.795440,1.960000,-7.700000,-0.700000
84.174744,0.230824,0.139080,1.102880,0.000000,2.240000,-0.700000
84.178810,0.286944,-0.122976,1.044808,-4.760000,0.560000,-0.840000
84.182876,0.232288,0.041480,0.852048,2.660000,-5.460000,0.840000
84.186942,0.229360,0.123952,1.131184,-0.140000,3.640000,-0.420000
84.191008,0.235216,-0.118096,0.874984,-3.920000,-0.420000,-1.260000
84.195074,0.262056,0.032208,0.906216,1.540000,-3.640000,0.420000
84.199140,0.119560,0.038552,1.038464,-0.560000,2.520000,-0.980000
84.203206,0.324520,-0.025376,0.961360,-2.380000,-0.840000,-0.700000
84.207272,0.287920,0.071736,0.993568,0.980000,-3.780000,1.120000
84.211337,0.094672,0.067344,0.980392,0.000000,1.680000,-0.700000
84.215403,0.274744,-0.005856,0.906704,-0.980000,-2.520000,-0.980000
84.219469,0.321104,0.081984,1.138992,-1.540000,-1.120000,0.420000
84.223535,0.163480,0.016104,0.875472,-1.260000,-1.540000,-1.260000
84.227601,0.294264,0.040016,1.056032,-0.840000,-0.700000,-0.140000
84.231667,0.260104,-0.036600,1.035048,-0.700000,0.840000,-0.140000
84.235733,0.187880,-0.009272,0.795928,0.000000,-2.100000,0.000000
84.239799,0.253760,0.102968,1.074088,0.700000,1.120000,-0.840000
84.243865,0.269864,-0.055632,1.006256,-2.520000,1.120000,-0.280000
84.247930,0.207888,0.002440,0.729072,0.000000,-1.540000,-0.280000
84.251996,0.236192,0.107848,1.213656,0.280000,2.800000,-0.280000
84.256062,0.192272,-0.069296,0.986736,-2.240000,0.140000,-0.980000
84.260128,0.249856,0.070272,0.847168,0.980000,-2.800000,0.560000
84.264194,0.203008,0.076128,1.143384,-0.280000,3.080000,-0.980000
84.268260,0.243512,-0.060024,0.946720,-2.240000,-2.800000,-1.120000
84.272326,0.335744,0.073688,0.839848,0.420000,-3.080000,0.420000
84.276392,0.174216,0.053680,1.190720,-1.680000,3.360000,-0.140000
84.280458,0.207400,-0.022448,0.889136,-0.700000,-2.100000,-0.840000
84.284524,0.293776,0.049776,0.938912,1.120000,-0.140000,0.980000
84.288589,0.191296,-0.045872,1.074576,-1.540000,2.100000,-1.260000
84.292655,0.204472,0.020496,0.876936,0.140000,-4.900000,-0.980000
84.296721,0.284992,0.119072,1.002352,-0.560000,0.560000,-0.140000
84.300787,0.253760,-0.050264,1.018944,-3.780000,2.940000,-0.420000
84.304853,0.193248,0.069296,0.922808,2.520000,-4.620000,-0.560000
84.308919,0.257176,0.067344,1.058960,-0.560000,2.240000,0.140000
84.312985,0.237656,-0.110776,0.958432,-3.080000,1.820000,0.140000
84.317051,0.269376,0.029768,0.890112,1.540000,-3.640000,-0.420000
84.321117,0.196664,0.128832,1.067256,-0.700000,2.100000,-0.700000
84.325182,0.227896,-0.107360,0.859856,-2.380000,0.420000,-1.260000
84.329248,0.234728,0.092720,1.105320,2.100000,-4.340000,-0.420000
84.333314,0.146400,0.052704,0.968680,-0.980000,0.560000,0.280000
84.337380,0.297192,0.020984,0.890112,-2.240000,-0.560000,0.000000
84.341446,0.287920,0.051240,1.130696,0.420000,-1.120000,-0.140000
84.345512,0.194224,0.035136,0.920856,-0.840000,-2.240000,-0.840000
84.349578,0.261568,0.008296,0.878888,-1.960000,1.820000,-0.280000
84.353644,0.252784,0.020496,1.190232,-0.280000,1.400000,0.140000
84.357710,0.180072,-0.041480,0.815448,0.700000,-3.780000,-1.120000
84.361776,0.330376,0.053192,0.951600,-0.840000,2.520000,0.000000
84.365841,0.163480,-0.017080,1.112152,-2.800000,2.800000,0.000000
84.369907,0.174216,0.001464,0.769088,1.540000,-6.300000,-0.980000
84.373973,0.253760,0.101016,1.022848,0.000000,2.520000,0.000000
84.378039,0.269864,-0.028304,1.194624,-4.480000,1.820000,-0.280000
84.382105,0.231800,0.063928,0.778848,2.380000,-7.000000,-0.280000
84.386171,0.213744,0.131760,1.119472,0.280000,3.640000,0.140000
84.390237,0.297680,-0.122000,0.983320,-4.480000,1.260000,-1.120000
84.394303,0.284504,0.101992,0.899872,2.660000,-6.720000,0.280000
84.398369,0.136152,0.103944,1.100928,-0.280000,4.760000,-0.560000
84.402434,0.266448,-0.146400,0.921344,-3.360000,0.560000,-0.980000
84.406500,0.263032,0.005368,0.915488,1.680000,-3.080000,0.840000
84.410566,0.121512,0.062952,1.022848,0.700000,2.380000,-0.700000
84.414632,0.317200,-0.071736,0.888648,-1.400000,-1.120000,-0.840000
84.418698,0.253760,0.101992,1.060912,0.700000,-2.100000,0.560000
84.422764,0.110288,0.028792,0.911584,-0.420000,0.840000,-1.540000
84.426830,0.345504,0.026352,0.963800,-2.380000,-1.540000,-0.560000
84.430896,0.253760,0.080032,1.137528,-0.700000,0.700000,0.840000
84.434962,0.170312,0.047824,0.918904,0.280000,-0.700000,0.140000
84.439028,0.277672,0.038064,0.994056,-0.560000,-0.420000,-0.420000
84.443093,0.278160,-0.033184,1.089704,-2.520000,0.840000,-0.420000
84.447159,0.165920,-0.047824,0.787632,0.280000,-3.360000,-1.120000
84.451225,0.288896,0.068808,1.051152,1.120000,0.420000,0.000000
84.455291,0.186904,-0.017568,1.060912,-2.100000,1.540000,-0.980000
84.459357,0.199104,-0.010736,0.757376,0.840000,-3.500000,0.420000
84.463423,0.250832,0.106384,1.076040,0.560000,1.120000,-0.700000
84.467489,0.244976,-0.039528,1.056032,-2.800000,-0.560000,-0.840000
84.471555,0.253272,0.063928,0.785680,0.280000,-3.640000,0.140000
84.475621,0.234728,0.132736,1.165832,-0.560000,3.220000,-0.140000
84.479687,0.216184,-0.079544,0.968680,-1.820000,-0.980000,-1.400000
84.483752,0.330376,0.030744,0.872544,0.420000,-2.240000,0.980000
84.487818,0.244000,0.068320,1.146800,-0.980000,5.040000,-0.280000
84.491884,0.136152,-0.022936,0.915976,-1.400000,-2.380000,-0.840000
84.495950,0.303048,0.046360,0.892064,1.260000,-3.080000,0.000000
84.500016,0.183976,0.003904,1.071648,-2.660000,4.200000,-0.560000
84.504082,0.207400,0.007320,0.909632,0.140000,-5.320000,-0.700000
84.508148,0.262056,0.086864,0.988200,0.700000,0.980000,0.420000
84.512214,0.219600,-0.036112,1.035048,-2.660000,3.360000,0.560000
84.516280,0.248880,-0.012688,0.862784,0.840000,-4.480000,-0.980000
84.520345,0.275232,0.130296,1.092144,-0.560000,1.680000,-0.560000
84.524411,0.181048,-0.074664,0.934032,-3.360000,1.400000,-0.420000
84.528477,0.295240,0.078568,1.021384,1.820000,-3.500000,-0.560000
84.532543,0.192760,0.028304,1.017480,0.280000,1.680000,0.560000
84.536609,0.269864,-0.038552,0.865224,-2.800000,0.840000,-0.560000
84.540675,0.271328,0.074176,1.057008,1.120000,-2.660000,-0.560000
84.544741,0.129320,0.060512,1.021872,-1.260000,0.700000,-0.420000
84.548807,0.258152,-0.040016,0.809104,-1.260000,-0.420000,-0.280000
84.552873,0.263520,0.008784,1.134600,0.560000,0.140000,-0.140000
84.556939,0.200080,0.052216,0.952088,-0.280000,-2.380000,-0.560000
84.561004,0.265960,0.056120,0.912072,-1.400000,0.980000,0.000000
84.565070,0.258152,0.008784,1.124352,-0.700000,1.960000,-0.560000
84.569136,0.201544,-0.031720,0.851560,0.140000,-4.340000,-0.980000
84.573202,0.255712,0.041968,0.898408,-1.260000,1.960000,-0.420000
84.577268,0.273768,-0.010248,1.198528,-2.800000,2.520000,0.140000
84.581334,0.154696,0.015616,0.760304,1.960000,-4.620000,0.000000
84.585400,0.260592,0.110776,1.012600,1.260000,3.780000,-0.280000
84.589466,0.278160,-0.080520,1.103856,-4.340000,2.380000,-0.980000
84.593532,0.225456,0.062464,0.848632,0.980000,-5.600000,0.000000
84.597597,0.162504,0.148352,1.082872,1.260000,2.940000,-0.560000
84.601663,0.255224,-0.084424,1.071160,-3.920000,1.260000,-1.120000
84.605729,0.238632,0.039528,0.820328,1.960000,-6.720000,0.700000
84.609795,0.215696,0.101992,1.120936,-0.140000,2.100000,-0.140000
84.613861,0.286456,-0.093208,0.957944,-3.640000,0.700000,-0.840000
84.617927,0.253272,0.040992,0.895480,1.120000,-4.200000,-0.140000
84.621993,0.188368,0.052216,1.015040,0.140000,1.540000,-1.400000
84.626059,0.262056,-0.082472,0.903776,-3.080000,0.280000,-0.700000
84.630125,0.259128,0.109800,1.025288,1.680000,-0.840000,1.260000
84.634191,0.141520,0.019520,0.935496,0.700000,2.660000,-0.420000
84.638256,0.327936,-0.056120,0.900848,-2.520000,-0.280000,-1.120000
84.642322,0.250832,0.121024,1.162416,-1.260000,-0.140000,0.700000
84.646388,0.122976,0.075640,0.957944,0.420000,-0.140000,-1.540000
84.650454,0.263520,0.012200,0.948672,0.000000,-2.100000,-0.420000
84.654520,0.288896,-0.001464,1.065792,-2.800000,-0.560000,-0.420000
84.658586,0.202032,0.000000,0.900848,-0.980000,-1.400000,-0.280000
84.662652,0.286456,0.092232,1.050176,1.260000,-0.140000,-0.140000
84.666718,0.197152,-0.055632,1.028704,-1.820000,1.820000,-0.140000
84.670784,0.193736,-0.058072,0.752984,0.000000,-4.480000,-0.840000
84.674850,0.254736,0.089792,1.029192,0.700000,0.560000,-0.560000
84.678915,0.253760,-0.004880,1.139480,-1.680000,0.980000,-0.700000
84.682981,0.214720,0.031232,0.727608,1.260000,-1.820000,0.700000
84.687047,0.296216,0.101504,1.120936,-0.560000,5.180000,0.140000
84.691113,0.176656,-0.062464,1.000400,-3.640000,-1.120000,-1.260000
84.695179,0.272792,0.110776,0.901336,0.980000,-4.480000,0.140000
84.699245,0.209352,0.063440,1.144360,-0.280000,4.480000,-0.560000
84.703311,0.216184,-0.045872,0.962824,-1.680000,-2.520000,-0.840000
84.707377,0.292800,0.010736,0.864736,0.980000,-3.220000,0.560000
84.711443,0.172264,0.032208,1.111176,-1.260000,4.480000,-0.280000
84.715508,0.245952,-0.033184,0.913048,0.000000,-5.460000,-0.980000
84.719574,0.243512,0.078568,0.892552,0.700000,-1.540000,-0.280000
84.723640,0.218136,-0.018544,1.049200,-3.220000,3.080000,-0.140000
84.727706,0.252296,0.011712,0.922320,0.980000,-4.760000,-0.560000
84.731772,0.219112,0.097600,1.065304,0.980000,1.680000,0.140000
84.735838,0.244000,-0.040016,0.944768,-2.940000,2.940000,0.140000
84.739904,0.241072,0.051728,0.898896,0.840000,-5.180000,-0.840000
84.743970,0.238632,0.096136,1.074576,0.000000,1.680000,-0.420000
84.748036,0.244976,-0.093208,0.892552,-2.940000,1.680000,-0.560000
84.752102,0.315736,0.071736,1.096048,0.700000,-1.540000,-0.140000
84.756167,0.092232,0.040016,0.973560,-0.560000,0.980000,-0.280000
84.760233,0.312808,-0.064904,0.813984,-1.680000,-1.820000,-0.560000
84.764299,0.301096,0.090280,1.114592,0.980000,-0.280000,0.140000
84.768365,0.086864,0.040504,0.992104,-0.420000,0.840000,-0.980000
84.772431,0.294752,0.051728,0.849120,-1.680000,-1.260000,-0.420000
84.776497,0.293288,0.027328,1.182912,-1.120000,2.520000,-0.140000
84.780563,0.153720,-0.019032,0.880840,0.700000,-3.360000,-0.980000
84.784629,0.302560,0.052704,0.873032,-0.840000,0.700000,0.420000
84.788695,0.239120,-0.020984,1.183888,-2.660000,4.900000,-0.280000
84.792760,0.162504,-0.025376,0.833016,0.980000,-4.060000,-0.280000
84.796826,0.231312,0.079544,0.916464,1.120000,1.820000,-0.280000
84.800892,0.265960,-0.046360,1.131184,-3.920000,3.220000,-0.280000
84.804958,0.186416,-0.008784,0.795440,1.680000,-7.980000,-0.840000
84.809024,0.236192,0.194712,1.077992,0.840000,2.660000,-0.140000
84.813090,0.305000,-0.052704,1.119960,-3.920000,3.360000,-0.560000
84.817156,0.192760,0.022936,0.821304,1.540000,-5.740000,-0.140000
84.821222,0.225456,0.152256,1.072136,-0.700000,1.400000,-0.420000
84.825288,0.290848,-0.095648,1.033096,-4.620000,0.840000,-0.420000
84.829354,0.233264,0.046360,0.884744,3.080000,-4.480000,0.000000
84.833419,0.218624,0.076128,1.108736,0.280000,3.500000,0.000000
84.837485,0.230336,-0.130784,0.862296,-3.500000,-0.980000,-1.120000
84.841551,0.199592,0.053192,0.961848,1.540000,-3.080000,-0.140000
84.845617,0.161528,0.010736,0.989176,0.140000,-0.280000,-0.420000
84.849683,0.296704,0.021960,0.895968,-2.380000,0.140000,-0.420000
84.853749,0.298168,0.088328,1.171200,0.420000,-0.840000,0.420000
84.857815,0.134688,-0.015616,0.864736,-0.280000,-1.820000,-0.840000
84.861881,0.323544,0.058560,0.940864,-1.120000,-0.140000,-0.560000
84.865947,0.281088,0.038552,1.146312,-2.380000,1.540000,0.000000
84.870013,0.136152,0.037576,0.795928,0.000000,-3.640000,-0.560000
84.874078,0.281088,0.049288,1.016504,0.420000,1.400000,-0.840000
84.878144,0.304512,-0.097112,1.082384,-1.820000,2.100000,-0.560000
84.882210,0.156160,0.045384,0.770552,0.980000,-1.540000,0.560000
84.886276,0.223016,0.108336,1.128256,0.560000,3.360000,-0.700000
84.890342,0.249368,-0.056120,1.024312,-4.060000,0.560000,-0.980000
84.894408,0.206424,0.050264,0.842776,0.700000,-4.480000,0.420000
84.898474,0.244000,0.072224,1.158512,0.140000,2.100000,-1.260000
84.902540,0.275232,-0.051240,1.002840,-2.660000,-1.820000,-0.700000
84.906606,0.185440,0.006344,0.828624,0.840000,-2.380000,0.560000
84.910671,0.189344,0.069296,1.110688,0.000000,1.680000,-0.280000
84.914737,0.224968,-0.003904,0.880352,-2.240000,-2.240000,-0.280000
84.918803,0.302560,0.061000,0.913536,0.140000,-2.660000,0.000000
84.922869,0.203984,0.010736,1.090680,-0.840000,-0.560000,-0.840000
84.926935,0.234240,0.005856,0.861808,-0.980000,-1.400000,-0.420000
84.931001,0.276696,0.071736,1.114592,0.140000,0.420000,0.700000
84.935067,0.219600,-0.017080,0.953552,-1.820000,0.700000,-0.420000
84.939133,0.234240,0.081496,0.958432,-0.280000,-3.500000,-0.840000
84.943199,0.265472,0.045872,1.104344,-0.560000,1.680000,0.000000
84.947265,0.211792,-0.091744,0.832528,-0.840000,-0.560000,-0.840000
84.951330,0.260592,0.023912,0.977952,1.260000,-1.680000,-0.700000
84.955396,0.193736,0.027328,1.024312,-2.240000,1.960000,-0.420000
84.959462,0.232776,0.009272,0.889136,-0.980000,-0.700000,0.560000
84.963528,0.233264,0.091256,1.019432,1.960000,-0.420000,-0.560000
84.967594,0.245952,-0.004392,0.995520,-2.520000,-0.280000,-1.260000
84.971660,0.268400,0.026352,0.915000,-2.100000,-2.520000,-0.140000
84.975726,0.210816,0.107360,1.198528,0.280000,1.120000,-0.280000
84.979792,0.189832,-0.029280,0.884256,-0.420000,-2.380000,-0.280000
84.983858,0.333792,0.009272,0.912560,-1.400000,-0.420000,0.420000
84.987923,0.226432,0.030744,1.132648,-0.700000,0.420000,-0.700000
84.991989,0.183976,0.004392,0.841800,-0.560000,-3.920000,-0.700000
84.996055,0.275232,0.029280,0.966728,0.000000,1.680000,-0.140000
85.000121,0.183000,-0.033184,1.069696,-1.960000,2.100000,0.000000
85.004187,0.212768,0.022936,0.801296,2.100000,-4.760000,-0.560000
85.008253,0.274744,0.111752,1.139480,-0.140000,2.660000,-0.140000
85.012319,0.221552,-0.063928,0.965752,-2.660000,0.420000,-0.420000
85.016385,0.249368,0.088816,0.861320,1.680000,-5.320000,-0.280000
85.020451,0.225456,0.082960,1.153144,-0.560000,2.520000,-0.840000
85.024517,0.282552,-0.114192,0.882304,-3.780000,-0.420000,-0.700000
85.028582,0.249856,0.117608,0.996496,2.100000,-2.660000,0.000000
85.032648,0.129320,0.048800,1.036512,-0.280000,3.360000,-0.560000
85.036714,0.329400,-0.106384,0.831552,-2.520000,-1.820000,-0.420000
85.040780,0.208376,0.099064,1.058472,0.700000,-1.540000,0.420000
85.044846,0.159088,0.074176,1.037488,-0.420000,0.420000,-1.260000
85.048912,0.290360,-0.043432,0.860344,-1.820000,-1.260000,-0.700000
85.052978,0.308416,0.056120,1.100440,-0.280000,-0.280000,0.000000
85.057044,0.134688,-0.021472,0.905728,-1.400000,0.140000,-0.140000
85.061110,0.275232,0.072224,0.998936,-0.140000,1.260000,0.140000
85.065176,0.258640,-0.011712,1.042368,-0.840000,0.420000,-0.140000
85.069241,0.168360,-0.066368,0.797880,0.000000,-3.500000,-0.700000
85.073307,0.234240,0.122000,1.056032,-0.280000,0.140000,-1.120000
85.077373,0.292312,0.018056,1.117520,-1.680000,1.260000,0.420000
85.081439,0.176168,0.025376,0.783240,1.400000,-3.500000,-0.420000
85.085505,0.256200,0.125904,1.142896,-0.280000,1.120000,-0.560000
85.089571,0.288408,-0.096624,0.942328,-3.920000,0.000000,-0.560000
85.093637,0.192760,0.059048,0.877424,1.120000,-2.240000,0.280000
85.097703,0.289384,0.096624,1.198040,-0.140000,3.080000,-1.120000
85.101769,0.222528,-0.116632,0.810080,-2.940000,-0.280000,-0.420000
85.105834,0.218136,0.055144,0.960384,1.260000,-0.980000,0.280000
85.109900,0.169336,0.018544,1.065792,0.140000,1.960000,-0.280000
85.113966,0.213744,-0.027328,0.864248,-1.400000,-2.240000,-0.700000
85.118032,0.325984,0.109312,0.998448,-0.420000,-2.520000,0.140000
85.122098,0.219600,0.026352,1.027728,-2.660000,1.120000,-1.400000
85.126164,0.194712,0.047336,0.981856,0.280000,-3.220000,0.280000
85.130230,0.282552,0.030744,1.081896,0.000000,2.380000,0.000000
85.134296,0.265472,-0.090768,0.930128,-1.260000,0.560000,0.000000
85.138362,0.227896,0.112240,0.932080,0.980000,-3.780000,-1.120000
85.142428,0.229848,0.061488,1.071648,-1.260000,2.520000,-0.420000
85.146493,0.180560,-0.101504,0.836432,-1.680000,0.000000,-0.700000
85.150559,0.262056,0.049776,0.996984,1.680000,-2.240000,-0.280000
85.154625,0.212768,-0.004392,1.078480,-1.680000,2.380000,0.280000
85.158691,0.183976,-0.007808,0.842288,-0.560000,-0.980000,0.140000
85.162757,0.300608,0.130784,1.079944,0.980000,-2.520000,-0.560000
85.166823,0.189344,0.033672,0.936960,-2.520000,-1.120000,-1.260000
85.170889,0.285480,0.023912,0.955016,-1.400000,-2.380000,-0.420000
85.174955,0.282552,0.060024,1.174616,0.140000,-0.140000,0.000000
85.179021,0.164456,-0.040504,0.839848,-0.560000,-1.820000,-0.280000
85.183086,0.291824,0.026840,0.961360,-0.140000,1.680000,0.280000
85.187152,0.245952,-0.002440,1.094096,-1.260000,1.120000,-0.700000
85.191218,0.188856,0.000488,0.778360,0.700000,-4.480000,-0.700000
85.195284,0.257664,0.133712,1.036024,-1.260000,3.640000,-0.420000
85.199350,0.198616,-0.086376,1.059936,-1.680000,1.820000,-0.140000
85.203416,0.212280,0.005368,0.795928,1.820000,-4.200000,-0.560000
85.207482,0.279136,0.122976,1.137528,-1.820000,4.900000,0.280000
85.211548,0.237656,-0.042456,1.050176,-2.380000,0.140000,-0.280000
85.215614,0.204960,0.100528,0.810568,3.500000,-6.160000,-0.700000
85.219680,0.259128,0.046360,1.149240,-1.820000,4.340000,-0.560000
85.223745,0.254248,-0.122000,0.875960,-4.060000,-1.400000,-1.120000
85.227811,0.233264,0.120048,0.947208,2.660000,-3.080000,0.840000
85.231877,0.160552,0.049776,1.097024,-1.400000,5.180000,-0.560000
85.235943,0.283528,-0.076616,0.879376,-2.100000,-2.240000,-0.560000
85.240009,0.235704,0.077592,1.007232,2.240000,-2.240000,-0.140000
85.244075,0.214232,0.048312,0.991616,-1.680000,0.980000,-0.700000
85.248141,0.290360,0.016592,0.954528,-2.240000,-0.840000,-0.140000
85.252207,0.197152,0.054656,1.040416,0.560000,0.840000,0.700000
85.256273,0.191784,-0.066368,0.912560,-0.700000,-0.140000,-0.840000
85.260338,0.301096,0.026840,0.988688,-0.560000,0.140000,-0.280000
85.264404,0.232776,0.023912,1.075064,-0.700000,0.140000,-0.140000
85.268470,0.175192,-0.013664,0.793976,-0.420000,-3.360000,-1.260000
85.272536,0.269864,0.097600,1.044808,-1.120000,0.420000,-1.120000
85.276602,0.247904,0.010248,1.122888,-1.120000,0.560000,1.120000
85.280668,0.184952,0.045872,0.801784,1.400000,-2.380000,-0.560000
85.284734,0.293288,0.081008,1.150704,-0.420000,1.400000,-0.420000
85.288800,0.242048,-0.065392,0.908656,-3.500000,-2.380000,-0.840000
85.292866,0.176656,0.067832,0.851072,0.420000,-1.680000,-0.140000
85.296932,0.269376,0.040992,1.257576,0.000000,3.220000,-0.700000
85.300997,0.232776,-0.061000,0.832528,-1.820000,-2.380000,-0.420000
85.305063,0.273280,0.035136,0.909144,1.260000,-1.260000,0.560000
85.309129,0.205448,-0.002928,1.119472,-0.980000,3.220000,-0.420000
85.313195,0.207888,-0.025864,0.786168,-0.560000,-2.660000,-0.840000
85.317261,0.265960,0.094184,0.998936,-0.420000,0.700000,0.420000
85.321327,0.188368,0.032208,1.083360,-2.240000,0.280000,-1.400000
85.325393,0.223504,0.033184,0.844728,0.420000,-4.060000,-0.420000
85.329459,0.309392,0.061488,1.132160,-0.700000,2.520000,1.120000
85.333525,0.203984,-0.044408,1.020896,-2.380000,0.700000,-0.560000
85.337591,0.249368,0.097600,0.916464,1.820000,-4.760000,-0.700000
85.341656,0.273768,0.030744,0.992104,-2.240000,3.360000,-0.840000
85.345722,0.250344,-0.045872,0.966240,-1.400000,-1.680000,-0.980000
85.349788,0.173240,0.098088,0.981368,2.240000,-1.540000,-0.280000
85.353854,0.219112,-0.052704,0.993568,-2.100000,3.360000,0.140000
85.357920,0.232776,-0.067344,0.837408,-1.400000,-1.400000,0.560000
85.361986,0.222040,0.111752,1.090680,2.240000,-1.540000,-0.420000
85.366052,0.203496,0.013664,0.950136,-2.380000,0.560000,-1.260000
85.370118,0.327448,0.034160,0.941352,-1.960000,-2.240000,-0.840000
85.374184,0.243512,0.071736,1.092632,0.420000,1.680000,-0.280000
85.378249,0.126392,0.017568,0.882792,-1.540000,1.120000,0.140000
85.382315,0.325496,0.011224,0.991128,-1.400000,1.120000,0.560000
85.386381,0.238632,0.006832,1.150704,-0.140000,-1.400000,-0.280000
85.390447,0.114192,-0.019032,0.715896,-0.140000,-2.940000,-1.680000
85.394513,0.400160,0.080032,1.076040,-1.260000,2.100000,-0.140000
85.398579,0.165432,-0.030256,1.118984,-1.400000,-0.420000,-0.980000
85.402645,0.163480,0.097600,0.791536,2.100000,-3.360000,-0.140000
85.406711,0.306464,0.086376,1.095560,-1.540000,4.900000,0.560000
85.410777,0.209840,-0.127368,0.995520,-2.240000,-1.540000,-0.700000
85.414843,0.227896,0.076128,0.804224,1.960000,-7.000000,-0.560000
85.418908,0.317200,0.097600,1.246352,-2.660000,6.860000,0.140000
85.422974,0.208864,-0.141520,0.884744,-1.120000,-1.120000,-0.840000
85.427040,0.240584,0.080032,0.871080,3.360000,-2.520000,-0.140000
85.431106,0.186904,-0.006344,1.044808,-3.360000,5.880000,-0.840000
85.435172,0.218136,-0.025376,0.887184,-1.680000,-2.660000,0.140000
85.439238,0.217648,0.166408,0.994056,3.500000,-1.820000,0.140000
85.443304,0.238632,0.009760,1.037000,-2.940000,3.780000,-0.700000
85.447370,0.312320,-0.059048,0.920856,-1.540000,-2.800000,-0.560000
85.451436,0.245952,0.169336,1.151680,0.980000,0.700000,0.560000
85.455501,0.165432,-0.011712,0.892552,-2.380000,2.940000,-0.980000
85.459567,0.335744,-0.042456,0.935984,-1.120000,-0.560000,-0.420000
85.463633,0.182024,0.034648,1.063840,0.560000,-0.700000,-0.560000
85.467699,0.147864,-0.001464,0.874496,-0.140000,-0.140000,-0.700000
85.471765,0.327936,0.061976,1.043832,-0.420000,2.380000,-0.840000
85.475831,0.168848,-0.040992,0.950624,-1.400000,-0.280000,0.280000
85.479897,0.192272,0.068808,0.881816,0.840000,-1.820000,-0.560000
85.483963,0.325008,0.079056,1.198528,-1.680000,3.360000,-0.280000
85.488029,0.202032,-0.105408,0.884744,-1.260000,-2.940000,0.000000
85.492095,0.263032,0.141520,0.867664,1.260000,-0.420000,-0.840000
85.496160,0.269864,0.000976,1.206336,-1.680000,5.320000,-0.560000
85.500226,0.213744,-0.096624,0.767624,-0.560000,-2.380000,-0.280000
85.504292,0.220576,0.169824,0.990640,2.240000,0.140000,0.000000
85.508358,0.140056,-0.021472,1.083360,-2.800000,4.200000,-1.680000
85.512424,0.313784,-0.018544,0.833504,-0.560000,-4.760000,0.140000
85.516490,0.237168,0.163968,1.089216,0.420000,3.220000,0.700000
85.520556,0.187880,-0.018544,1.081408,-1.820000,2.940000,-0.980000
85.524622,0.259616,-0.043920,0.844240,-0.420000,-3.920000,-0.140000
85.528688,0.288408,0.075152,1.104344,0.000000,2.380000,0.420000
85.532754,0.199104,-0.034648,0.913048,-1.820000,0.980000,-1.540000
85.536819,0.230824,0.032208,0.972584,0.560000,-2.240000,0.000000
85.540885,0.165432,0.027328,1.011624,-1.120000,2.240000,-0.280000
85.544951,0.232776,-0.087352,0.863272,0.000000,-2.660000,-0.840000
85.549017,0.268400,0.110288,1.049200,-0.560000,0.560000,-0.700000
85.553083,0.231800,0.000488,0.968192,-2.100000,0.280000,0.560000
85.557149,0.211792,0.048312,0.913536,0.000000,-1.260000,-0.980000
85.561215,0.292312,0.138592,1.181936,-0.140000,2.660000,-0.420000
85.565281,0.248880,-0.094672,0.848632,-2.380000,-0.700000,-0.140000
85.569347,0.275232,0.079544,0.943304,0.280000,-0.140000,-0.560000
85.573412,0.191296,0.030256,1.182912,-1.120000,3.080000,0.000000
85.577478,0.162504,-0.077592,0.748592,-1.120000,-1.680000,-0.840000
85.581544,0.303536,0.093208,1.043832,1.400000,0.140000,-0.280000
85.585610,0.142496,0.011712,1.101904,-2.100000,1.680000,-0.840000
85.589676,0.274256,0.017568,0.811056,-0.420000,-3.920000,0.000000
85.593742,0.254736,0.065880,1.087752,0.560000,2.660000,0.280000
85.597808,0.190320,-0.075640,1.010648,-1.400000,-1.120000,-1.540000
85.601874,0.223504,0.071248,0.890112,-0.840000,-3.220000,-0.140000
85.605940,0.287432,0.061976,1.146800,-0.840000,2.380000,-0.140000
85.610006,0.192272,-0.041480,0.858392,-0.560000,-2.380000,-0.980000
85.614071,0.212768,0.098576,0.962824,0.980000,-2.940000,0.140000
85.618137,0.253760,-0.026352,1.083848,-2.240000,2.660000,0.000000
85.622203,0.249368,-0.050752,0.798856,0.280000,-3.780000,-0.420000
85.626269,0.182024,0.197152,1.102880,0.000000,-0.560000,-0.140000
85.630335,0.243512,-0.048312,1.013088,-2.800000,0.840000,-1.120000
85.634401,0.305976,0.016592,0.874984,1.120000,-3.780000,-0.420000
85.638467,0.251808,0.124440,1.187792,-0.140000,2.380000,0.420000
85.642533,0.184952,-0.106384,0.817400,-2.520000,0.420000,-0.700000
85.646599,0.289384,0.006344,0.935008,0.840000,-1.400000,0.420000
85.650664,0.128832,0.057096,1.054568,-0.560000,1.680000,-0.560000
85.654730,0.222528,-0.038064,0.847168,-1.820000,-1.820000,-0.700000
85.658796,0.288896,0.046848,1.067744,0.840000,-0.280000,-0.280000
85.662862,0.225944,-0.010736,1.013088,-0.560000,-0.700000,-0.840000
85.666928,0.170800,0.053680,0.868640,-0.700000,-0.840000,-0.280000
85.670994,0.345016,0.094184,1.168272,-0.840000,1.820000,0.280000
85.675060,0.180072,-0.005368,0.852048,-0.420000,-3.080000,-0.560000
85.679126,0.219600,0.101016,0.963312,0.700000,-0.560000,-0.700000
85.683192,0.315248,-0.049776,1.091656,-2.240000,3.500000,-0.140000
85.687258,0.218136,-0.067832,0.832040,-0.700000,-1.960000,0.140000
85.691323,0.181536,0.166896,1.066768,0.840000,1.260000,-0.700000
85.695389,0.235216,-0.056608,1.032120,-2.520000,1.960000,-0.420000
85.699455,0.209840,0.010248,0.819352,0.420000,-2.940000,0.000000
85.703521,0.273280,0.138104,1.145336,1.260000,0.420000,-0.280000
85.707587,0.243512,-0.075640,0.941352,-3.780000,2.240000,-1.260000
85.711653,0.274256,0.006832,0.930128,-0.560000,-1.680000,0.280000
85.715719,0.136152,0.075152,1.122888,0.700000,1.960000,-0.140000
85.719785,0.193736,-0.081008,0.808616,-1.400000,-1.120000,-0.700000
85.723851,0.332328,0.075152,1.035048,-0.420000,-2.660000,0.420000
85.727917,0.146888,0.042944,1.016504,-0.840000,-2.380000,-0.980000
85.731982,0.229848,0.066368,0.880840,-0.980000,-0.980000,-0.980000
85.736048,0.319152,0.028792,1.162416,-0.280000,1.680000,0.560000
85.740114,0.209840,-0.012200,0.924272,-1.120000,-1.260000,-0.420000
85.744180,0.204472,0.093696,0.933544,-0.560000,-2.240000,-0.420000
85.748246,0.300608,0.000000,1.088728,-1.820000,2.100000,-0.420000
85.752312,0.223504,-0.106872,0.796416,-0.140000,-2.380000,0.000000
85.756378,0.196176,0.111752,1.024312,1.540000,1.120000,-0.280000
85.760444,0.230336,-0.038552,1.020408,-2.660000,3.920000,-0.980000
85.764510,0.219600,0.004392,0.885232,-0.560000,-3.640000,0.420000
85.768575,0.203984,0.129808,1.069208,2.380000,1.260000,-1.260000
85.772641,0.267424,-0.032208,0.971120,-2.940000,0.700000,-0.840000
85.776707,0.253272,0.026352,0.885232,-1.120000,-3.080000,0.000000
85.780773,0.226920,0.100040,1.172176,0.280000,1.260000,0.000000
85.784839,0.193736,-0.053192,0.883768,-1.260000,0.840000,-0.140000
85.788905,0.325496,0.035624,0.977952,-0.420000,-0.980000,0.140000
85.792971,0.170800,0.028304,1.049200,-0.140000,0.000000,-1.540000
85.797037,0.200080,0.010736,0.825208,-0.560000,-3.640000,-0.560000
85.801103,0.303048,0.051240,1.084336,-0.560000,1.120000,0.420000
85.805169,0.192760,-0.013176,0.995032,-0.980000,0.980000,-0.280000
85.809234,0.197640,0.083448,0.927200,-0.280000,-2.240000,-0.700000
85.813300,0.332328,0.066856,1.143872,-2.100000,3.080000,0.140000
85.817366,0.174216,-0.125904,0.806664,-1.540000,-0.560000,-0.280000
85.821432,0.208864,0.068808,0.988200,1.820000,-2.520000,-0.560000
85.825498,0.241560,-0.022936,1.036024,-1.960000,1.400000,-0.420000
85.829564,0.253760,-0.023424,0.882792,-1.260000,-0.840000,0.000000
85.833630,0.197152,0.131760,1.026264,2.100000,-1.120000,-0.560000
85.837696,0.222528,0.016104,1.014064,-2.240000,1.120000,-0.840000
85.841762,0.284016,0.016104,0.873032,-0.980000,-2.660000,0.140000
85.845827,0.243024,0.129808,1.204384,0.980000,0.980000,-0.280000
85.849893,0.208376,-0.043432,0.893528,-0.840000,-1.540000,-0.840000
85.853959,0.287920,0.022448,0.919880,-1.820000,0.840000,0.420000
85.858025,0.232288,-0.009272,1.089704,0.420000,2.520000,-0.280000
85.862091,0.127856,-0.058072,0.829600,0.280000,-2.800000,-0.280000
85.866157,0.263032,0.112728,1.040416,0.140000,0.560000,-0.700000
85.870223,0.224480,-0.027816,1.000888,-2.380000,1.260000,-0.700000
85.874289,0.235704,0.040504,0.862784,0.140000,-5.040000,-0.980000
85.878355,0.245464,0.106384,1.137528,0.140000,2.800000,0.140000
85.882421,0.242536,-0.077104,0.901824,-3.080000,0.000000,0.140000
85.886486,0.242048,0.096136,0.990152,1.120000,-3.220000,0.280000
85.890552,0.187880,0.049288,1.076040,-0.280000,2.100000,-0.840000
85.894618,0.306952,-0.123952,0.831064,-2.660000,-0.420000,0.000000
85.898684,0.251320,0.137128,1.053592,1.820000,-0.840000,-0.560000
85.902750,0.156160,0.040504,1.008696,-0.980000,0.280000,-1.260000
85.906816,0.246928,-0.029768,0.858392,-1.540000,-0.980000,-0.280000
85.910882,0.259616,0.088328,1.137528,0.560000,0.280000,-0.140000
85.914948,0.190320,0.003904,0.946232,-1.540000,-0.420000,-0.140000
85.919014,0.228872,0.029768,0.923784,-1.680000,0.140000,-0.420000
85.923080,0.269376,0.012688,1.147776,-0.420000,0.420000,0.280000
85.927145,0.143960,-0.095648,0.749080,0.280000,-3.780000,-0.980000
85.931211,0.269864,0.094184,1.033096,-0.280000,0.700000,0.000000
85.935277,0.268888,-0.009272,1.104344,-1.820000,1.400000,0.000000
85.939343,0.195200,0.041968,0.811056,0.980000,-5.320000,-0.140000
85.943409,0.235704,0.144936,1.093120,0.000000,3.360000,-1.400000
85.947475,0.280112,-0.095648,0.950136,-4.480000,-1.540000,-0.140000
85.951541,0.205936,0.110288,0.931592,1.260000,-4.060000,-0.140000
85.955607,0.216184,0.087352,1.190720,0.700000,2.660000,-0.560000
85.959673,0.272304,-0.116632,0.841800,-3.220000,-0.700000,-0.280000
85.963738,0.252784,0.020496,0.968192,1.120000,-2.940000,0.140000
85.967804,0.153232,0.063928,1.056520,-0.140000,1.120000,-1.260000
85.971870,0.274256,-0.056608,0.838872,-1.400000,-2.660000,-0.280000
85.975936,0.205448,0.075152,1.033584,0.980000,-1.120000,0.140000
85.980002,0.175192,-0.009272,1.000400,-1.120000,-0.420000,-0.980000
85.984068,0.290848,0.055144,0.964776,-1.820000,-1.540000,0.000000
85.988134,0.278648,0.045872,1.093120,-0.560000,0.280000,0.560000
85.992200,0.181536,-0.016592,0.798856,-0.560000,-3.080000,-1.120000
85.996266,0.264496,0.060512,1.017480,-0.280000,-0.140000,-0.420000
86.000332,0.276696,-0.010248,1.129720,-2.100000,0.980000,0.560000
86.004397,0.160064,-0.002440,0.770552,0.700000,-3.640000,-0.420000
86.008463,0.256688,0.116632,1.122888,-0.140000,1.120000,-0.420000
86.012529,0.183000,-0.064416,0.976000,-3.500000,-2.100000,-0.420000
86.016595,0.259616,0.085888,0.894016,0.700000,-4.340000,0.000000
86.020661,0.272792,0.119072,1.163880,0.420000,1.680000,-0.560000
86.024727,0.235216,-0.085400,0.882792,-2.380000,-1.120000,-0.560000
86.028793,0.228384,-0.013176,0.887184,1.540000,-2.800000,-0.140000
86.032859,0.233264,0.010736,1.132648,-0.980000,2.660000,-0.980000
86.036925,0.212280,-0.043920,0.793488,-1.820000,-2.380000,0.280000
86.040990,0.190320,0.101504,1.042856,0.560000,-0.420000,0.420000
86.045056,0.213744,0.014640,1.029680,-0.140000,-1.120000,-1.260000
86.049122,0.251808,0.021472,0.874496,-1.820000,-3.920000,-0.140000
86.053188,0.289872,0.107848,1.115568,-1.400000,0.140000,-0.140000
86.057254,0.262544,-0.036112,0.976976,-2.240000,0.420000,0.140000
86.061320,0.184952,0.067832,0.915976,1.400000,-3.080000,-0.700000
86.065386,0.301584,0.013664,1.076528,-0.560000,0.560000,0.280000
86.069452,0.173728,-0.079544,0.842288,-1.260000,-0.980000,-0.700000
86.073518,0.204960,0.127368,1.051152,1.400000,-2.380000,-0.980000
86.077584,0.237656,-0.002440,0.998448,-2.520000,0.420000,-0.420000
86.081649,0.232288,-0.041480,0.847656,0.140000,-1.960000,0.000000
86.085715,0.263032,0.115168,1.177544,2.660000,-0.980000,-0.280000
86.089781,0.239120,-0.024888,0.909144,-2.800000,-0.280000,-0.280000
86.093847,0.273768,0.040992,0.901336,-0.420000,-1.540000,-0.140000
86.097913,0.203008,0.075640,1.100928,0.140000,0.420000,-0.700000
86.101979,0.193736,-0.055632,0.855464,-2.100000,-1.260000,-0.280000
86.106045,0.281576,0.017080,1.010648,-0.280000,-0.420000,0.000000
86.110111,0.202520,0.015128,1.077016,0.420000,-1.680000,-0.700000
86.114177,0.169336,0.011224,0.796904,-0.420000,-2.240000,-0.140000
86.118243,0.322568,0.128832,1.111664,-0.560000,0.980000,0.000000
86.122308,0.216184,-0.011712,0.994056,-1.680000,-2.940000,-0.420000
86.126374,0.192760,0.087352,0.904752,-0.140000,-3.360000,-0.700000
86.130440,0.325496,0.020008,1.150216,-2.100000,2.520000,-0.280000
86.134506,0.228384,-0.118096,0.869616,-1.400000,-1.820000,-0.140000
86.138572,0.221064,0.111752,0.935496,1.820000,-1.960000,-0.280000
86.142638,0.242048,-0.013664,1.072136,-1.680000,2.940000,-1.260000
86.146704,0.207400,-0.076616,0.795928,-0.280000,-2.520000,-0.420000
86.150770,0.234240,0.133224,1.035536,1.960000,-0.840000,0.000000
86.154836,0.227408,0.013176,1.050664,-3.500000,3.500000,-0.700000
86.158901,0.247416,0.024888,0.920368,-0.560000,-2.940000,0.280000
86.162967,0.203008,0.108336,1.078480,0.700000,0.420000,0.140000
86.167033,0.216672,-0.041968,0.955992,-1.960000,0.280000,-0.560000
86.171099,0.335744,-0.036600,0.932568,-0.420000,-2.660000,-0.420000
86.175165,0.252296,0.107848,1.098488,-0.420000,-0.140000,0.000000
86.179231,0.121512,-0.010736,0.856928,-1.400000,-0.140000,-1.400000
86.183297,0.293776,0.033672,1.024800,0.420000,-0.840000,-0.420000
86.187363,0.175192,-0.042944,0.932568,-1.260000,0.280000,0.000000
86.191429,0.239120,0.021960,0.871568,0.420000,-2.800000,-0.420000
86.195495,0.315248,0.113216,1.174616,-1.260000,2.800000,-0.280000
86.199560,0.173240,-0.051728,0.951600,-1.540000,-0.280000,0.140000
86.203626,0.219600,0.089304,0.833504,1.120000,-2.520000,-1.260000
86.207692,0.291336,0.036600,1.190720,-2.380000,2.800000,-0.280000
86.211758,0.217160,-0.088328,0.856440,-1.960000,-3.360000,-0.140000
86.215824,0.265960,0.111752,0.996984,3.080000,-2.940000,0.140000
86.219890,0.126392,0.002440,1.082872,-2.240000,4.760000,-0.700000
86.223956,0.264496,-0.037088,0.797392,-1.820000,-4.480000,-0.560000
86.228022,0.269376,0.116632,1.042856,1.120000,-0.840000,0.140000
86.232088,0.218624,0.012200,1.094584,-0.980000,1.680000,-0.700000
86.236153,0.218624,0.001464,0.839360,-0.420000,-3.500000,-0.560000
86.240219,0.289872,0.056608,1.104344,-0.980000,0.980000,0.280000
86.244285,0.200080,-0.042456,0.945256,-1.820000,-0.420000,-1.120000
86.248351,0.255224,0.075152,0.897920,0.280000,-1.820000,0.140000
86.252417,0.226432,0.030744,1.072624,-1.680000,1.680000,0.700000
86.256483,0.148840,-0.081984,0.860832,-0.140000,-2.800000,-1.120000
86.260549,0.278648,0.086864,1.059448,1.400000,-2.520000,0.000000
86.264615,0.300608,-0.014152,1.029192,-2.100000,1.960000,0.420000
86.268681,0.222528,0.046360,0.821792,0.560000,-3.360000,-1.400000
86.272747,0.226432,0.155672,1.119472,-0.140000,-1.260000,-0.840000
86.276812,0.219600,-0.070272,0.955504,-4.060000,1.960000,0.000000
86.280878,0.271328,0.039528,0.938424,0.980000,-1.960000,0.000000
86.284944,0.265472,0.053192,1.174128,0.280000,0.840000,-0.280000
86.289010,0.172264,-0.062952,0.788120,-3.080000,-0.560000,-0.420000
86.293076,0.291336,0.032208,1.018456,0.700000,-1.680000,-0.280000
86.297142,0.168848,0.020008,1.016016,-0.420000,0.140000,-0.980000
86.301208,0.214232,-0.053680,0.765184,-1.260000,-2.800000,-0.560000
86.305274,0.256200,0.104920,1.150704,-0.980000,1.120000,0.420000
86.309340,0.218624,0.015128,0.974536,-0.980000,-1.540000,-0.280000
86.313406,0.244000,0.070272,0.869616,-0.140000,-1.540000,0.140000
86.317471,0.342088,0.060024,1.198528,-1.820000,2.940000,-1.120000
86.321537,0.196176,-0.043920,0.904264,-1.540000,-2.940000,-0.280000
86.325603,0.219600,0.109800,0.952088,0.980000,-0.980000,-0.420000
86.329669,0.253760,-0.041968,1.075064,-1.960000,5.040000,-0.140000
86.333735,0.227408,-0.080520,0.833016,-0.280000,-3.780000,-0.420000
86.337801,0.184952,0.114192,0.979904,2.380000,-1.260000,0.140000
86.341867,0.207400,-0.025376,1.048224,-2.660000,4.480000,-0.700000
86.345933,0.271328,-0.016104,0.829600,-0.420000,-3.920000,-0.280000
86.349999,0.232776,0.122488,1.067256,1.400000,-0.840000,-0.420000
86.354064,0.205448,0.017080,1.024800,-3.360000,4.200000,-0.840000
86.358130,0.284504,-0.007808,0.902312,-0.560000,-2.940000,0.000000
86.362196,0.243512,0.097112,1.128256,-0.280000,0.000000,0.280000
86.366262,0.160552,0.001464,0.941840,-2.380000,0.280000,-0.420000
86.370328,0.373808,0.013176,0.954528,0.560000,-2.800000,0.140000
86.374394,0.222040,0.011224,1.020896,-0.280000,0.420000,-0.420000
86.378460,0.114680,-0.014640,0.857904,-1.820000,-0.840000,-1.400000
86.382526,0.303536,0.109800,1.056520,-0.700000,0.420000,-0.140000
86.386592,0.201056,-0.078568,0.979904,-0.140000,0.420000,0.140000
86.390658,0.172264,0.027328,0.859856,0.980000,-2.660000,-0.420000
86.394723,0.325008,0.098088,1.179984,-1.120000,1.120000,-0.420000
86.398789,0.179096,-0.057096,0.928176,-2.660000,-2.100000,-0.280000
86.402855,0.266936,0.108336,0.867176,1.820000,-3.920000,-0.560000
86.406921,0.274256,0.059048,1.138992,-2.520000,3.640000,0.000000
86.410987,0.203008,-0.082960,0.868152,-3.080000,-2.520000,-0.420000
86.415053,0.265472,0.082472,0.984296,2.800000,-2.380000,0.000000
86.419119,0.186416,-0.003416,1.102880,-1.260000,3.500000,-0.560000
86.423185,0.274256,-0.049776,0.795440,-1.260000,-3.920000,-0.140000
86.427251,0.244000,0.141032,1.034560,0.280000,0.280000,-0.560000
86.431316,0.179584,0.004880,1.052616,-2.100000,0.560000,-0.980000
86.435382,0.277184,0.008784,0.867176,0.140000,-2.660000,-0.560000
86.439448,0.241072,0.049776,1.130208,-0.980000,3.080000,0.560000
86.443514,0.213744,-0.034160,0.947696,-1.820000,-1.540000,-0.700000
86.447580,0.245464,0.034160,0.875960,0.560000,-2.940000,-0.420000
86.451646,0.273280,0.016592,1.107272,-1.540000,2.520000,0.140000
86.455712,0.161528,-0.022448,0.827160,-0.560000,-3.220000,-0.840000
86.459778,0.231312,0.096136,1.030656,0.980000,-0.420000,-0.280000
86.463844,0.290360,-0.021472,1.066280,-2.100000,2.520000,0.000000
86.467910,0.214232,0.000000,0.836920,0.560000,-3.360000,-0.420000
86.471975,0.214232,0.147864,1.112152,1.400000,-0.420000,-0.980000
86.476041,0.219112,-0.049288,0.920368,-4.060000,0.980000,-0.560000
86.480107,0.292312,0.030256,0.933056,0.560000,-2.100000,0.140000
86.484173,0.235216,0.087352,1.159976,0.420000,1.260000,-0.420000
86.488239,0.160552,-0.082960,0.861808,-2.240000,0.280000,0.000000
86.492305,0.319152,0.005856,0.960384,-0.140000,-0.840000,0.000000
86.496371,0.208376,0.062464,1.025776,-0.560000,-0.420000,-0.560000
86.500437,0.167384,-0.002928,0.848144,-1.540000,-1.120000,-0.700000
86.504503,0.334768,0.055144,1.062864,-0.700000,-0.140000,0.000000
86.508569,0.198128,0.006344,1.091168,-0.560000,0.000000,-0.140000
86.512634,0.202520,0.036600,0.779824,1.260000,-2.520000,-0.980000
86.516700,0.302072,0.045872,1.155584,-1.680000,2.520000,0.140000
86.520766,0.180560,-0.028304,0.917928,-2.100000,-0.700000,-0.980000
86.524832,0.241072,0.139080,0.974536,1.540000,-3.220000,-0.420000
86.528898,0.255224,-0.016104,1.086776,-1.400000,3.500000,-0.840000
86.532964,0.229360,-0.119072,0.849120,-2.100000,-2.380000,0.560000
86.537030,0.245952,0.122976,0.967704,2.380000,-2.240000,0.420000
86.541096,0.179584,0.003904,1.074088,-2.100000,4.340000,-0.280000
86.545162,0.258640,-0.043432,0.833016,-1.260000,-3.920000,-0.280000
86.549227,0.279624,0.143472,1.035536,1.400000,-1.820000,-0.840000
86.553293,0.184464,0.007320,1.038464,-2.520000,1.960000,-1.400000
86.557359,0.275232,-0.000976,0.897432,-0.840000,-1.260000,0.280000
86.561425,0.316712,0.100528,1.119472,0.700000,2.380000,0.700000
86.565491,0.127856,-0.009760,0.893528,-1.820000,0.980000,-0.980000
86.569557,0.291336,0.004392,0.983808,-0.840000,-1.540000,-0.140000
86.573623,0.167384,0.001464,1.077016,-0.980000,2.100000,-0.140000
86.577689,0.236192,-0.074176,0.814472,0.560000,-3.220000,-1.260000
86.581755,0.243512,0.049288,1.024800,-0.280000,-0.840000,-0.560000
86.585821,0.218136,0.043432,1.123864,-0.840000,0.420000,0.140000
86.589886,0.154696,0.046848,0.787144,2.240000,-4.620000,-0.840000
86.593952,0.285968,0.145424,1.086776,-0.420000,0.000000,-0.280000
86.598018,0.262544,-0.076128,0.924272,-5.040000,-1.680000,0.280000
86.602084,0.273280,0.117608,1.037000,0.420000,-2.380000,0.000000
86.606150,0.226920,0.031232,1.154608,1.400000,1.960000,-0.700000
86.610216,0.252296,-0.171776,0.752496,-2.660000,-1.400000,-0.420000
86.614282,0.244488,0.081008,0.963800,1.260000,-1.540000,-0.140000
86.618348,0.172752,0.069296,1.102392,-0.700000,0.840000,-0.560000
86.622414,0.244976,-0.009760,0.805200,-1.540000,-1.820000,-0.560000
86.626479,0.254736,0.081008,1.059448,0.980000,-0.560000,0.280000
86.630545,0.178608,-0.072712,0.957456,-1.540000,-0.280000,-1.120000
86.634611,0.250344,0.079544,0.938424,-0.980000,-2.520000,0.140000
86.638677,0.318664,0.077104,1.141432,-0.700000,1.680000,0.280000
86.642743,0.230336,-0.021960,0.916952,-0.560000,-1.540000,-0.420000
86.646809,0.205448,0.071248,0.955504,0.700000,-1.400000,-0.980000
86.650875,0.307440,-0.030256,1.045296,-1.540000,1.820000,-0.560000
86.654941,0.218624,-0.024400,0.822768,-0.700000,-1.960000,-0.420000
86.659007,0.184952,0.143472,1.040904,1.260000,0.980000,0.000000
86.663073,0.198128,-0.054168,1.027240,-3.080000,3.360000,-0.560000
86.667138,0.251808,-0.034160,0.885232,0.140000,-3.080000,0.420000
86.671204,0.256200,0.108824,1.097024,1.540000,-0.280000,-0.700000
86.675270,0.200568,-0.041480,0.946232,-3.360000,1.120000,-1.260000
86.679336,0.316224,0.062952,0.903776,-0.980000,-3.500000,0.000000
86.683402,0.196176,0.093696,1.101904,0.280000,1.120000,-0.140000
86.687468,0.189344,-0.017568,0.915488,-1.540000,0.420000,-0.420000
86.691534,0.345992,0.005368,0.967216,-0.420000,0.420000,1.120000
86.695600,0.192272,0.003416,1.078480,-0.700000,0.840000,-0.420000
86.699666,0.175680,0.003416,0.830576,-0.980000,-1.820000,-1.260000
86.703732,0.300120,0.099064,1.063352,0.140000,0.000000,-0.280000
86.707797,0.160552,-0.079056,0.956480,-1.120000,0.280000,-1.120000
86.711863,0.260592,0.043920,0.899872,1.260000,-3.920000,-0.700000
86.715929,0.231312,0.084912,1.134600,-1.260000,3.640000,0.560000
86.719995,0.215208,-0.048800,0.907680,-1.820000,-1.400000,-0.560000
86.724061,0.320128,0.100528,0.920856,0.840000,-2.800000,0.280000
86.728127,0.162992,0.038552,1.130696,-2.100000,3.780000,-0.700000
86.732193,0.331840,-0.072224,0.855952,-1.540000,-3.220000,0.000000
86.736259,0.207400,0.061000,1.002840,1.540000,0.700000,0.280000
86.740325,0.113216,0.039040,1.096536,-1.540000,2.380000,-1.400000
86.744390,0.273768,-0.023912,0.796416,-1.680000,-4.760000,-0.140000
86.748456,0.232288,0.073688,1.015528,0.980000,0.700000,-0.140000
86.752522,0.250344,0.007320,1.065792,-1.260000,-0.840000,-0.700000
86.756588,0.235704,0.029768,0.870104,-1.260000,-2.660000,-0.140000
86.760654,0.271328,0.031232,1.133624,-0.840000,2.660000,0.280000
86.764720,0.184464,-0.010248,0.903776,-0.700000,-3.220000,-0.840000
86.768786,0.208864,0.083936,0.937936,0.000000,-2.240000,0.000000
86.772852,0.307440,-0.001464,1.100440,-2.380000,2.660000,-0.700000
86.776918,0.246440,-0.045872,0.872544,-0.140000,-5.040000,-0.140000
86.780984,0.208376,0.137128,1.015040,0.980000,-0.140000,-0.140000
86.785049,0.238632,-0.061976,0.986248,-2.800000,3.920000,-0.280000
86.789115,0.229848,0.007320,0.848632,-0.560000,-3.640000,-0.560000
86.793181,0.250344,0.143960,1.138504,1.260000,-0.420000,0.000000
86.797247,0.198128,-0.060512,0.964776,-3.220000,2.520000,-0.560000
86.801313,0.285480,0.019032,0.906216,0.420000,-3.360000,0.140000
86.805379,0.203496,0.072224,1.074576,-0.560000,-0.280000,-1.120000
86.809445,0.155672,-0.022936,0.877424,-2.660000,-0.700000,-0.700000
86.813511,0.430904,0.018544,0.995520,0.140000,-1.820000,0.560000
86.817577,0.151768,0.017568,1.097024,-0.560000,1.540000,-0.140000
86.821643,0.137616,0.025864,0.847168,0.140000,-2.100000,-1.120000
86.825708,0.336720,0.039528,1.039440,-0.420000,-0.280000,0.280000
86.829774,0.200080,-0.014640,1.020408,-0.980000,-0.560000,-0.840000
86.833840,0.206424,0.067832,0.850584,0.700000,-4.200000,-0.140000
86.837906,0.263032,0.074176,1.106784,-1.960000,3.500000,-0.140000
86.841972,0.233752,-0.076128,0.919880,-1.680000,-2.520000,-0.140000
86.846038,0.290360,0.073688,0.897432,1.960000,-2.380000,-0.140000
86.850104,0.203984,0.009272,1.122400,-2.380000,5.040000,-0.700000
86.854170,0.271328,-0.035136,0.888160,-1.960000,-2.100000,-0.280000
86.858236,0.207888,0.092232,0.939888,2.660000,-2.240000,0.280000
86.862301,0.150792,0.024400,1.110688,-1.680000,3.360000,-1.120000
86.866367,0.288896,-0.049776,0.831064,-1.960000,-3.920000,0.000000
86.870433,0.262544,0.095160,1.105808,1.400000,-0.840000,-0.140000
86.874499,0.168848,0.011712,1.018944,-0.420000,-0.560000,-0.700000
86.878565,0.258640,0.026352,0.853024,-1.120000,-2.800000,-0.560000
86.882631,0.277672,0.081984,1.094096,-1.120000,-0.560000,-0.280000
86.886697,0.202032,-0.068320,0.928664,-1.400000,-1.960000,-0.700000
86.890763,0.260104,0.049288,0.939400,-0.280000,0.280000,0.560000
86.894829,0.234728,0.004880,1.097024,-0.700000,1.680000,0.420000
86.898895,0.194224,-0.028304,0.802760,0.280000,-4.340000,-0.560000
86.902960,0.269376,0.131760,1.042368,0.980000,0.420000,-0.280000
86.907026,0.243024,-0.013176,1.065792,-2.660000,2.660000,-0.140000
86.911092,0.245952,0.016104,0.816424,0.420000,-4.480000,-0.560000
86.915158,0.206912,0.106872,1.100440,-0.280000,0.560000,-0.280000
86.919224,0.223992,-0.048800,0.999912,-2.240000,-0.140000,-0.840000
86.923290,0.283040,-0.005856,0.858880,0.840000,-3.080000,0.420000
86.927356,0.257176,0.084912,1.162416,0.000000,2.660000,-0.280000
86.931422,0.146400,-0.034648,0.850584,-2.940000,0.000000,-1.260000
86.935488,0.348920,0.025864,0.941352,-0.280000,-2.520000,0.420000
86.939553,0.166896,0.042944,1.074088,-0.420000,-0.140000,-0.420000
86.943619,0.187880,0.002440,0.882792,-0.980000,-2.660000,-0.980000
86.947685,0.357216,0.051728,1.018456,-0.140000,0.700000,-0.140000
86.951751,0.209840,0.013176,1.075552,-1.680000,1.120000,-0.140000
86.955817,0.158112,0.053192,0.819352,0.420000,-3.080000,-0.560000
86.959883,0.294264,0.068320,1.113128,-0.700000,3.080000,0.420000
86.963949,0.198128,-0.090280,0.930616,-2.240000,-0.980000,-0.700000
86.968015,0.293288,0.087840,0.926712,1.120000,-3.780000,0.140000
86.972081,0.238144,0.004880,1.121912,-1.540000,5.040000,-0.980000
86.976147,0.238632,-0.067344,0.872056,-1.820000,-1.400000,0.280000
86.980212,0.230336,0.097112,0.895480,1.960000,-2.240000,-0.560000
86.984278,0.190320,0.078080,1.151192,-1.680000,3.360000,-0.420000
86.988344,0.262056,-0.065392,0.839848,-1.400000,-1.540000,-0.700000
86.992410,0.279136,0.068808,1.021872,2.100000,-0.980000,0.420000
86.996476,0.128832,0.027816,1.065304,-2.100000,2.380000,-0.840000
87.000542,0.299144,-0.000488,0.875960,-1.260000,-2.800000,-0.140000
87.004608,0.248880,0.056608,1.054568,-0.280000,0.000000,0.000000
87.008674,0.148352,0.011712,0.999424,-1.260000,-0.280000,-1.260000
87.012740,0.296704,0.008784,0.860344,-0.420000,-2.240000,-0.700000
87.016806,0.293776,0.036600,1.187304,-2.100000,1.260000,0.840000
87.020871,0.158112,0.006344,0.868152,0.140000,-2.940000,-0.840000
87.024937,0.279624,0.074664,0.944280,1.400000,-0.980000,-0.280000
87.029003,0.290848,-0.022448,1.063352,-2.940000,3.220000,0.000000
87.033069,0.157136,-0.023912,0.804712,0.000000,-3.080000,-0.700000
87.037135,0.246928,0.146888,1.127280,1.540000,0.420000,-0.560000
87.041201,0.187392,-0.055632,0.972096,-3.500000,2.380000,-0.140000
87.045267,0.248880,0.008296,0.854000,0.700000,-3.500000,0.140000
87.049333,0.247416,0.055144,1.119960,0.700000,0.700000,-0.560000
87.053399,0.197152,-0.018056,0.986736,-3.500000,-0.280000,-1.120000
87.057464,0.303536,0.037576,0.847168,-0.140000,-3.360000,0.000000
87.061530,0.265472,0.104920,1.160464,0.140000,1.260000,0.140000
87.065596,0.131272,-0.028304,0.846192,-1.400000,-1.260000,-0.980000
87.069662,0.376248,0.032696,1.014064,0.560000,-1.120000,0.560000
87.073728,0.152744,-0.025376,1.035536,-0.840000,1.540000,-0.700000
87.077794,0.186904,0.026352,0.855952,0.140000,-3.780000,-0.700000
87.081860,0.277184,0.084912,1.014552,-1.260000,1.120000,-0.700000
87.085926,0.253272,-0.037576,1.035536,-2.520000,0.140000,0.000000
87.089992,0.209352,0.040016,0.848632,1.400000,-3.220000,-0.560000
87.094058,0.300608,0.096624,1.178032,-0.700000,4.200000,0.280000
87.098123,0.195200,-0.112240,0.893040,-2.380000,-0.980000,-0.420000
87.102189,0.275720,0.112728,0.929640,1.820000,-3.500000,0.420000
87.106255,0.155184,0.048800,1.071160,-0.840000,3.500000,-0.700000
87.110321,0.273768,-0.074176,0.877912,-1.960000,-1.960000,-0.560000
87.114387,0.277184,0.071248,0.976488,1.120000,-1.680000,-0.140000
87.118453,0.142008,0.019520,1.097512,-1.260000,1.820000,-0.700000
87.122519,0.300120,-0.002928,0.852048,-0.700000,-2.380000,-0.140000
87.126585,0.240096,0.065392,1.012600,0.420000,1.400000,0.840000
87.130651,0.158112,-0.003416,0.990152,-1.260000,-0.840000,-1.680000
87.134716,0.337208,0.069784,0.937448,-1.120000,-2.800000,-0.420000
87.138782,0.275232,0.021472,1.156072,-0.840000,2.800000,0.700000
87.142848,0.153232,-0.023912,0.829600,-0.280000,-0.980000,-0.840000
87.146914,0.290360,0.075152,1.034560,0.560000,-1.540000,-0.140000
87.150980,0.199592,-0.014152,1.045296,-2.380000,2.100000,-0.280000
87.155046,0.207888,-0.026840,0.825208,0.420000,-2.800000,-0.560000
87.159112,0.280112,0.080032,1.040416,1.260000,-0.840000,-0.560000
87.163178,0.152744,-0.037576,0.996496,-3.780000,1.680000,-0.840000
87.167244,0.248880,0.064904,0.873032,0.560000,-2.240000,0.420000
87.171310,0.281088,0.074664,1.109224,1.120000,0.280000,-0.140000
87.175375,0.194712,-0.036600,0.946232,-3.360000,0.700000,-0.700000
87.179441,0.324520,0.035136,0.892064,-0.420000,-3.500000,0.000000
87.183507,0.229848,0.069296,1.180960,-0.560000,2.240000,0.000000
87.187573,0.155672,-0.017568,0.905728,-0.280000,-2.100000,-0.980000
87.191639,0.326960,0.028792,0.878888,0.420000,-0.560000,-0.140000
87.195705,0.228872,-0.022936,1.086776,-1.540000,1.960000,-0.280000
87.199771,0.156160,0.019520,0.850584,0.280000,-3.360000,-0.280000
87.203837,0.274744,0.126392,1.026264,-0.140000,1.540000,0.000000
87.207903,0.212768,-0.062952,0.995032,-2.660000,1.680000,-0.280000
87.211969,0.217160,-0.002928,0.885232,1.400000,-5.740000,-0.700000
87.216034,0.251808,0.110288,1.141432,-0.420000,4.060000,0.420000
87.220100,0.221064,-0.014640,1.011624,-3.780000,1.680000,0.420000
87.224166,0.301096,0.077104,0.887184,1.820000,-6.160000,-0.560000
87.228232,0.179096,0.043432,1.061888,-1.820000,0.840000,-0.980000
87.232298,0.245952,-0.094184,0.891088,-3.220000,-1.540000,-0.980000
87.236364,0.318664,0.082960,1.023824,1.680000,-2.520000,0.840000
87.240430,0.148352,0.041480,1.028216,-0.700000,2.240000,-0.700000
87.244496,0.269376,-0.066856,0.794952,-1.260000,-0.980000,-0.280000
87.248562,0.214232,0.077592,1.059936,0.700000,-0.700000,-0.140000
87.252627,0.141520,0.028792,0.996496,0.140000,-1.960000,-0.420000
87.256693,0.347944,0.022448,0.870592,-1.260000,-0.980000,-0.840000
87.260759,0.324032,0.057584,1.203896,-2.100000,1.400000,0.840000
87.264825,0.111752,0.012200,0.893528,-0.280000,-2.240000,-0.980000
87.268891,0.269376,0.057096,0.967216,0.700000,0.560000,-0.140000
87.272957,0.322080,-0.022936,1.080432,-2.800000,1.820000,0.000000
87.277023,0.148352,-0.023424,0.773480,-0.280000,-5.740000,-1.120000
87.281089,0.234728,0.128832,1.047736,1.680000,0.140000,-0.840000
87.285155,0.239120,-0.047336,1.123376,-3.080000,3.080000,-0.140000
87.289221,0.229848,-0.009760,0.750056,0.420000,-2.100000,0.420000
87.293286,0.268400,0.131272,1.120448,0.700000,0.980000,-0.280000
87.297352,0.204960,-0.076128,0.975024,-3.500000,0.840000,-0.700000
87.301418,0.245952,0.021960,0.852536,0.700000,-3.500000,0.140000
87.305484,0.271816,0.113704,1.154120,0.000000,2.800000,-0.420000
87.309550,0.176168,-0.075640,0.901824,-2.660000,0.560000,-1.120000
87.313616,0.377712,0.051240,0.950624,0.280000,-2.380000,0.700000
87.317682,0.123464,0.036600,1.081408,-0.280000,3.220000,0.000000
87.321748,0.174216,-0.021472,0.921832,0.140000,-2.940000,-0.840000
87.325814,0.316712,0.066856,0.944280,0.000000,-1.260000,-0.140000
87.329879,0.183976,-0.011712,1.024312,-2.100000,1.120000,-1.260000
87.333945,0.208376,0.057584,0.909144,0.140000,-4.200000,-0.420000
87.338011,0.305488,0.102480,1.108736,-0.560000,1.260000,0.420000
87.342077,0.177632,-0.113704,0.931104,-2.100000,0.560000,0.140000
87.346143,0.308416,0.070760,0.918904,1.540000,-4.480000,-0.280000
87.350209,0.217648,0.055632,1.058960,-1.540000,3.500000,0.000000
87.354275,0.224968,-0.055632,0.862296,-2.940000,0.140000,-0.700000
87.358341,0.263032,0.086864,1.031144,2.380000,-3.360000,0.000000
87.362407,0.168360,0.003416,1.060424,-0.420000,1.540000,-0.840000
87.366473,0.285968,-0.042456,0.804224,-0.840000,-2.240000,0.000000
87.370538,0.276696,0.115656,1.098000,-0.560000,0.840000,0.280000
87.374604,0.143960,0.052216,1.026752,-1.400000,-0.980000,-1.120000
87.378670,0.261080,0.023424,0.843264,-0.280000,-1.680000,-0.420000
87.382736,0.285968,0.009760,1.130208,-0.980000,2.100000,0.140000
87.386802,0.208376,-0.035624,0.924760,-1.400000,-2.100000,-0.700000
87.390868,0.292800,0.047336,0.870592,-0.140000,-0.840000,-0.140000
87.394934,0.226432,0.012200,1.181448,-2.660000,4.760000,0.280000
87.399000,0.146888,-0.043432,0.782264,1.120000,-5.180000,-1.120000
87.403066,0.266936,0.116144,0.948184,0.140000,1.120000,0.000000
87.407132,0.301096,-0.018056,1.144848,-2.940000,3.640000,-0.280000
87.411197,0.205936,0.020984,0.839360,0.980000,-5.740000,0.140000
87.415263,0.190320,0.154208,1.059936,0.840000,3.080000,0.140000
87.419329,0.239120,-0.081984,1.035048,-4.900000,3.220000,-0.560000
87.423395,0.269376,0.000488,0.857904,1.400000,-6.720000,0.280000
87.427461,0.245952,0.107848,1.088728,1.120000,1.960000,-0.280000
87.431527,0.201544,-0.070760,0.968192,-3.920000,1.960000,-1.820000
87.435593,0.333792,0.041480,0.935984,0.560000,-4.060000,0.560000
87.439659,0.155184,0.075152,1.051152,0.000000,3.220000,-0.700000
87.443725,0.217648,-0.054168,0.900360,-1.820000,0.280000,-0.280000
87.447790,0.286456,0.005856,0.953064,-0.420000,-1.680000,0.560000
87.451856,0.132736,0.061488,1.056520,0.700000,0.840000,0.140000
87.455922,0.220088,0.016104,0.856440,-0.560000,-1.680000,-1.120000
87.459988,0.385032,0.062464,1.108248,-0.840000,-0.560000,0.140000
87.464054,0.150304,0.002440,0.945256,-0.840000,-1.120000,-1.260000
87.468120,0.271328,0.113704,0.944280,-0.700000,-0.560000,-0.280000
87.472186,0.292312,0.018056,1.138992,-1.680000,2.660000,0.140000
87.476252,0.143472,-0.091256,0.822768,-0.280000,-1.540000,-0.280000
87.480318,0.265960,0.054168,0.931592,0.980000,-0.280000,-0.280000
87.484384,0.260592,-0.005368,1.181936,-2.660000,3.920000,-0.700000
87.488449,0.204960,-0.025864,0.789584,-0.280000,-2.660000,-0.700000
87.492515,0.254248,0.086864,0.988200,1.680000,-0.560000,0.140000
87.496581,0.166408,0.009760,1.144360,-2.100000,1.260000,-1.120000
87.500647,0.263520,-0.016104,0.764208,-0.280000,-5.880000,-0.280000
87.504713,0.287432,0.119072,1.092632,0.000000,1.260000,0.420000
87.508779,0.165432,0.039528,1.085800,-2.800000,1.120000,-0.980000
87.512845,0.267424,0.022936,0.789096,0.140000,-4.340000,0.140000
87.516911,0.282552,0.056120,1.121912,-0.280000,2.800000,0.140000
87.520977,0.173728,-0.055632,0.985272,-0.560000,-2.240000,-1.400000
87.525043,0.284504,0.028792,0.877912,-0.280000,-2.520000,0.140000
87.529108,0.231312,0.023424,1.100928,-1.960000,4.200000,-0.140000
87.533174,0.220576,-0.026840,0.904264,-0.560000,-3.360000,-0.560000
87.537240,0.236192,0.097600,0.931104,1.400000,-1.540000,-0.140000
87.541306,0.178120,-0.053192,1.011136,-1.820000,3.360000,-0.140000
87.545372,0.270352,-0.016592,0.847656,0.280000,-4.760000,-0.140000
87.549438,0.251808,0.172752,1.088240,0.280000,2.100000,0.420000
87.553504,0.223992,-0.014152,0.996008,-3.080000,2.940000,-0.980000
87.557570,0.283040,0.032208,0.947696,-0.140000,-4.200000,-0.140000
87.561636,0.210328,0.080032,1.139480,-0.700000,0.700000,-0.280000
87.565701,0.222040,-0.073200,0.838872,-2.380000,1.260000,-0.560000
87.569767,0.349896,0.014640,1.009672,0.980000,-1.960000,0.280000
87.573833,0.124928,0.081496,1.085800,-0.280000,0.280000,-0.420000
87.577899,0.208864,-0.060512,0.789096,-0.700000,-1.960000,-0.980000
87.581965,0.300120,0.027816,1.035536,-0.140000,0.700000,0.140000
87.586031,0.177144,0.028304,1.037488,-0.420000,-1.680000,-0.700000
87.590097,0.217648,0.022936,0.795928,0.280000,-0.140000,-0.280000
87.594163,0.331840,0.071248,1.191696,-0.980000,3.360000,0.700000
87.598229,0.157624,-0.020008,0.898408,-0.840000,-3.640000,-0.560000
87.602295,0.278648,0.122488,0.927200,-0.140000,-0.560000,-0.140000
87.606360,0.321592,-0.056120,1.126792,-2.940000,5.040000,-0.140000
87.610426,0.173728,-0.039040,0.882304,0.280000,-3.780000,-0.140000
87.614492,0.145912,0.104920,0.925248,2.380000,0.840000,-0.140000
87.618558,0.245464,-0.023424,1.167784,-3.220000,4.200000,-0.280000
87.622624,0.251808,-0.000488,0.778360,0.560000,-6.300000,-0.700000
87.626690,0.231800,0.170312,1.077504,0.700000,0.560000,0.420000
87.630756,0.247416,-0.059536,1.000888,-4.340000,2.100000,-1.540000
87.634822,0.268400,-0.003904,0.907192,1.260000,-5.460000,0.560000
87.638888,0.177144,0.068320,1.107760,0.560000,2.520000,-0.420000
87.642953,0.282064,-0.069784,0.918416,-3.220000,0.140000,-0.840000
87.647019,0.339160,0.034648,0.916464,0.140000,-3.220000,0.420000
87.651085,0.075152,0.104920,1.024800,0.700000,0.700000,-0.700000
87.655151,0.251320,-0.045872,0.882792,-1.120000,0.140000,-1.120000
87.659217,0.351360,0.063440,1.074576,-1.260000,-0.280000,0.280000
87.663283,0.155184,0.031720,0.984784,0.140000,-0.140000,-0.140000
87.667349,0.161040,0.025864,0.894016,-0.420000,-0.280000,-0.280000
87.671415,0.342088,0.052704,1.125328,-1.400000,-0.140000,0.000000
87.675481,0.166408,-0.018544,0.898896,-0.560000,-3.080000,-1.120000
87.679547,0.251808,0.099064,0.939888,0.280000,-1.260000,-0.980000
87.683612,0.333792,-0.004392,1.162416,-2.520000,2.940000,0.000000
87.687678,0.227896,-0.067832,0.772992,-0.280000,-1.400000,0.140000
87.691744,0.181536,0.060512,0.967216,1.540000,1.540000,0.420000
87.695810,0.205936,-0.007320,1.114592,-2.520000,2.520000,-1.260000
87.699876,0.269864,-0.051728,0.811544,-0.700000,-4.900000,0.280000
87.703942,0.207400,0.143960,1.045784,1.680000,0.700000,-0.700000
87.708008,0.227408,0.004880,1.038952,-2.240000,1.120000,-1.120000
87.712074,0.305976,-0.000976,0.868640,-0.420000,-3.360000,0.840000
87.716140,0.210328,0.173240,1.157536,-0.280000,4.340000,-0.140000
87.720205,0.200568,-0.027816,1.006256,-1.680000,-0.980000,-0.700000
87.724271,0.327936,-0.024888,0.808616,-1.400000,-2.800000,-0.280000
87.728337,0.227408,0.023424,1.105808,0.140000,2.660000,-0.280000
87.732403,0.144448,-0.042456,0.901336,-0.560000,-1.260000,-1.260000
87.736469,0.300608,0.046360,0.970144,0.280000,-0.420000,0.000000
87.740535,0.156160,0.008296,0.984784,-1.960000,4.340000,0.560000
87.744601,0.206424,0.006344,0.855464,0.000000,-2.800000,-0.980000
87.748667,0.331352,0.117608,1.114592,0.420000,-0.140000,0.000000
87.752733,0.233264,-0.060024,0.974536,-2.940000,1.680000,-0.280000
87.756799,0.271816,0.084424,0.938912,-0.280000,-0.840000,-0.140000
87.760864,0.210816,0.071736,1.138504,-0.560000,1.680000,-0.420000
87.764930,0.207888,-0.083936,0.821792,-2.240000,0.280000,-0.560000
87.768996,0.317200,0.083936,1.011136,1.400000,-1.680000,-0.280000
87.773062,0.134200,0.065392,1.128256,-0.560000,0.840000,-1.120000
87.777128,0.249368,-0.083936,0.752008,-0.980000,-1.400000,-0.420000
87.781194,0.232288,0.069784,1.093120,-0.840000,1.120000,0.700000
87.785260,0.160064,0.006832,1.043832,-0.280000,-1.260000,-0.420000
87.789326,0.274256,0.027816,0.813984,-0.140000,-1.960000,-0.280000
87.793392,0.317200,0.066368,1.156560,-0.560000,1.960000,0.560000
87.797457,0.140544,-0.092232,0.859368,-1.120000,-2.240000,-1.820000
87.801523,0.301584,0.124928,0.965264,-0.140000,-0.840000,0.000000
87.805589,0.269376,-0.009760,1.102880,-1.820000,4.340000,-0.420000
87.809655,0.162504,-0.048312,0.810080,-0.420000,-3.640000,-0.560000
87.813721,0.240096,0.140056,0.978928,1.260000,-1.120000,0.000000
87.817787,0.268400,-0.004392,1.111176,-3.920000,3.780000,0.000000
87.821853,0.217160,0.009760,0.870592,1.260000,-3.920000,-0.700000
87.825919,0.233752,0.139568,1.115568,0.700000,0.700000,-0.140000
87.829985,0.274256,-0.103456,0.939400,-3.920000,1.540000,-1.260000
87.834051,0.245952,0.048800,0.922320,0.560000,-3.500000,0.000000
87.838116,0.161528,0.108824,1.117032,0.980000,1.120000,-0.280000
87.842182,0.283528,-0.088328,0.846192,-2.660000,0.560000,0.000000
87.846248,0.261568,0.019520,0.949648,-0.140000,0.140000,-0.140000
87.850314,0.174704,-0.006344,1.014552,-0.280000,0.000000,-0.420000
87.854380,0.272304,0.039528,0.888648,-2.240000,0.980000,-0.560000
87.858446,0.244488,0.067832,1.156560,-0.700000,1.400000,-0.140000
87.862512,0.161040,0.014640,0.918416,0.280000,-2.240000,-0.560000
87.866578,0.261080,0.069784,0.904752,-0.560000,-0.420000,-0.280000
87.870644,0.321104,-0.004880,1.159000,-2.520000,2.240000,-0.560000
87.874709,0.156160,-0.014640,0.778848,-0.700000,-3.080000,-0.140000
87.878775,0.191784,0.108824,1.063840,0.560000,0.840000,-0.280000
87.882841,0.270840,-0.095160,1.020896,-2.380000,2.100000,-1.120000
87.886907,0.279624,0.043920,0.874984,1.260000,-5.040000,0.420000
87.890973,0.201056,0.192272,1.147288,0.840000,2.940000,-0.840000
87.895039,0.289384,-0.117608,0.952576,-3.780000,0.700000,-0.840000
87.899105,0.209352,0.045872,0.817400,0.560000,-2.940000,0.000000
87.903171,0.213256,0.102480,1.176080,-0.280000,2.800000,-0.420000
87.907237,0.220576,-0.143960,0.846192,-2.660000,-0.700000,-0.840000
87.911303,0.274744,0.062464,0.958920,0.980000,-0.840000,0.980000
87.915368,0.140544,0.015128,0.997472,-0.980000,2.940000,-0.420000
87.919434,0.253272,0.003904,0.924272,-1.120000,-1.820000,-0.980000
87.923500,0.337696,0.104432,1.121424,0.420000,-0.980000,0.140000
87.927566,0.153232,0.009760,0.929640,-1.260000,0.000000,-1.260000
87.931632,0.231312,0.052704,0.950624,-0.840000,-1.540000,-0.840000
87.935698,0.313296,0.038552,1.146312,-1.540000,2.240000,0.980000
87.939764,0.162016,-0.054168,0.770064,0.700000,-2.240000,-0.980000
87.943830,0.274256,0.112240,1.068720,0.280000,0.140000,-0.280000
87.947896,0.247416,-0.079056,1.010160,-2.380000,0.980000,-0.280000
87.951961,0.171288,0.039528,0.856440,-0.140000,-2.240000,-0.140000
87.956027,0.272792,0.136640,1.149728,1.680000,1.120000,-1.400000
87.960093,0.201056,-0.134688,0.915000,-3.780000,-0.840000,-0.980000
87.964159,0.258640,0.069784,0.834480,0.140000,-3.500000,0.980000
87.968225,0.269376,0.072224,1.203896,-0.420000,4.060000,0.000000
87.972291,0.178608,-0.073688,0.809592,-1.260000,-0.560000,-0.700000
87.976357,0.301096,0.071736,0.982344,0.140000,-1.540000,0.000000
87.980423,0.165920,-0.006832,1.043832,-1.120000,2.800000,-1.680000
87.984489,0.225456,0.012200,0.866688,-0.560000,-1.960000,0.000000
87.988555,0.310856,0.129320,1.105320,0.140000,1.680000,0.980000
87.992620,0.187392,-0.018056,1.014064,-1.400000,0.280000,-1.260000
87.996686,0.235704,0.040992,0.880352,0.700000,-4.340000,-0.700000
88.000752,0.284016,0.061976,1.107272,-2.520000,4.060000,0.280000
88.004818,0.202032,-0.019032,0.922808,-1.400000,-0.560000,-0.980000
88.008884,0.248392,0.037576,0.952576,1.680000,-2.800000,-0.420000
88.012950,0.223992,-0.015128,1.063840,-1.820000,2.240000,-0.280000
88.017016,0.200568,-0.055632,0.809104,-1.120000,-1.400000,-0.280000
88.021082,0.246440,0.121024,1.110200,1.680000,-1.120000,-0.280000
88.025148,0.193248,-0.003416,0.979904,-2.380000,1.120000,-0.140000
88.029213,0.244976,0.014640,0.911584,-0.980000,-1.260000,-0.140000
88.033279,0.271328,0.061976,1.040904,0.560000,0.560000,-0.840000
88.037345,0.216672,-0.031232,0.898896,-2.100000,-0.980000,-0.140000
88.041411,0.316712,0.036600,1.013088,0.280000,-0.140000,0.140000
88.045477,0.138592,0.019520,1.032608,0.980000,1.260000,-0.420000
88.049543,0.164944,-0.019032,0.792024,-0.700000,-2.520000,-0.700000
88.053609,0.392840,0.118584,1.183400,-1.680000,1.820000,0.000000
88.057675,0.152256,-0.010248,0.987224,-0.980000,-0.980000,-1.540000
88.061741,0.223992,0.104432,0.899872,0.840000,-4.340000,0.000000
88.065807,0.337696,0.031720,1.061400,-2.380000,4.620000,-0.280000
88.069872,0.181048,-0.116144,0.925736,-1.260000,-1.960000,-0.420000
88.073938,0.215208,0.133712,0.957456,1.680000,-1.540000,-0.140000
88.078004,0.249856,-0.045384,1.086288,-2.800000,6.020000,0.000000
88.082070,0.200568,-0.079056,0.761768,-0.140000,-2.520000,-0.700000
88.086136,0.221064,0.135176,1.079456,1.960000,-1.820000,0.280000
88.090202,0.212280,-0.015616,1.022848,-3.360000,2.520000,-1.400000
88.094268,0.282064,0.030256,0.944768,-0.840000,-3.780000,0.280000
88.098334,0.233264,0.122000,1.070672,1.680000,1.120000,-0.280000
88.102400,0.207400,-0.068808,0.863272,-2.380000,0.420000,-0.840000
88.106466,0.372344,-0.000976,0.997472,-0.980000,-1.120000,-0.140000
88.110531,0.113704,0.067832,1.033096,0.700000,0.840000,-0.140000
88.114597,0.166896,0.026840,0.854000,-0.980000,-0.420000,-1.120000
88.118663,0.337696,0.036112,1.118008,-1.120000,1.120000,0.140000
88.122729,0.179584,-0.039528,0.973072,-0.700000,-1.960000,-0.700000
88.126795,0.214720,0.121512,0.920368,-0.140000,-2.240000,-0.140000
88.130861,0.334280,0.058072,1.174616,-1.960000,2.380000,-0.420000
88.134927,0.197640,-0.103944,0.801784,-0.420000,-2.940000,-0.560000
88.138993,0.255224,0.075640,0.974048,1.820000,-0.700000,-0.140000
88.143059,0.196664,-0.019520,1.076528,-3.080000,5.180000,-0.700000
88.147124,0.230336,-0.020008,0.831552,-0.980000,-3.780000,0.420000
88.151190,0.210328,0.129320,1.026264,1.960000,0.140000,-0.560000
88.155256,0.251320,-0.071248,1.032120,-2.940000,1.960000,-0.980000
88.159322,0.238632,0.009272,0.875472,-0.420000,-2.660000,0.560000
88.163388,0.223504,0.161040,1.118008,0.840000,2.240000,-0.140000
88.167454,0.224968,-0.036600,0.936960,-2.940000,0.980000,-1.540000
88.171520,0.339648,-0.004880,0.907192,-0.140000,-3.360000,0.420000
88.175586,0.147864,0.086864,1.085800,0.280000,2.660000,-0.140000
88.179652,0.141032,-0.032208,0.886696,-1.820000,-0.560000,-0.840000
88.183718,0.325496,0.042456,1.060424,-0.420000,-1.120000,0.140000
88.187783,0.216184,0.009272,1.012112,-0.700000,0.700000,0.560000
88.191849,0.245464,0.053680,0.918904,0.560000,-2.240000,-1.260000
88.195915,0.245464,0.077104,1.072136,-1.260000,-0.140000,-0.840000
88.199981,0.218136,-0.070272,0.905728,-1.260000,-3.080000,-0.140000
88.204047,0.253272,0.067832,0.955992,0.560000,0.560000,-0.280000
88.208113,0.264496,-0.011712,1.076528,-1.960000,3.080000,-0.140000
88.212179,0.163480,-0.049776,0.740296,-1.120000,-1.680000,0.420000
88.216245,0.257664,0.104432,1.110688,1.120000,0.980000,-1.120000
88.220311,0.254248,-0.039528,1.015040,-1.540000,1.960000,-0.980000
88.224376,0.239608,0.042944,0.862784,0.280000,-3.360000,0.140000
88.228442,0.221064,0.157624,1.124840,0.140000,4.060000,-0.280000
88.232508,0.188856,-0.076616,0.955016,-3.220000,-0.560000,-0.560000
88.236574,0.298656,0.061976,0.909632,-0.700000,-1.680000,0.420000
88.240640,0.224480,0.073200,1.118984,-0.140000,2.380000,-0.560000
88.244706,0.170312,-0.089304,0.849120,-0.980000,-2.660000,-1.400000
88.248772,0.327448,0.064904,0.993568,0.280000,-0.560000,0.420000
88.252838,0.171288,0.007808,1.071160,-1.680000,3.780000,-0.420000
88.256904,0.205936,0.034160,0.843752,0.840000,-3.920000,-1.260000
88.260970,0.281088,0.101992,1.072136,-0.840000,1.120000,0.140000
88.265035,0.229360,-0.056608,0.976000,-2.660000,2.100000,-0.280000
88.269101,0.265472,0.029768,0.945744,1.260000,-2.940000,-0.560000
88.273167,0.261568,0.026840,1.063840,-0.840000,3.500000,-0.280000
88.277233,0.174704,-0.076616,0.831064,-2.520000,1.260000,-0.280000
88.281299,0.198128,0.120048,1.030656,1.820000,-1.540000,0.000000
88.285365,0.200568,0.003904,1.040416,-0.700000,1.680000,-0.560000
88.289431,0.292312,-0.021960,0.851072,-1.400000,-1.400000,0.000000
88.293497,0.227896,0.137128,1.112152,0.140000,0.280000,-0.980000
88.297563,0.198616,0.002928,0.968680,-1.960000,-0.980000,-0.280000
88.301628,0.306952,0.037088,0.910608,-1.260000,0.140000,0.140000
88.305694,0.236192,0.039040,1.187304,0.140000,2.380000,-0.280000
88.309760,0.142984,-0.032208,0.804712,0.280000,-3.920000,-1.540000
88.313826,0.316224,0.031720,0.986248,-0.980000,1.260000,0.000000
88.317892,0.206912,-0.012200,1.082872,-0.980000,2.940000,-0.700000
88.321958,0.210816,0.011224,0.794952,1.260000,-4.620000,0.140000
88.326024,0.261080,0.124440,1.094584,-0.980000,3.780000,-0.140000
88.330090,0.179584,-0.101016,0.964288,-2.380000,0.840000,-0.560000
88.334156,0.287432,0.053680,0.887672,1.400000,-4.900000,0.000000
88.338222,0.219112,0.091256,1.153632,-0.840000,6.440000,-0.420000
88.342287,0.248392,-0.098576,0.884744,-2.520000,-0.840000,-0.980000
88.346353,0.248880,0.103944,0.947696,2.100000,-3.220000,0.280000
88.350419,0.124440,0.021960,1.065792,-1.540000,4.480000,-1.120000
88.354485,0.315736,-0.070760,0.860344,-2.100000,-2.380000,-0.420000
88.358551,0.236192,0.161528,1.099952,1.820000,-1.400000,0.280000
88.362617,0.119560,0.000976,0.950136,-0.980000,2.100000,-1.260000
88.366683,0.385520,0.005368,0.938424,-1.820000,-1.120000,-0.280000
88.370749,0.208376,0.084912,1.124352,0.140000,0.700000,0.280000
88.374815,0.126880,0.035624,0.908168,-0.420000,-0.840000,-0.840000
88.378880,0.334280,-0.051728,0.927688,-0.840000,1.820000,-0.280000
88.382946,0.217648,-0.028304,1.081896,-1.260000,-0.840000,-0.420000
88.387012,0.181048,0.028792,0.779336,0.420000,-2.940000,-0.840000
88.391078,0.253272,0.110776,1.123376,-0.980000,4.760000,0.140000
88.395144,0.203496,-0.050264,0.976488,-1.120000,0.140000,-0.140000
88.399210,0.264008,0.040504,0.867176,1.400000,-2.520000,-0.280000
88.403276,0.226920,0.041968,1.125816,-2.100000,5.180000,-1.400000
88.407342,0.269376,-0.061000,0.925248,-1.960000,-2.940000,-0.140000
88.411408,0.179584,0.125904,0.922808,2.240000,-1.540000,0.560000
88.415474,0.176656,0.018544,1.135576,-1.400000,4.060000,-1.120000
88.419539,0.303536,-0.081008,0.814472,-2.380000,-4.480000,-0.140000
88.423605,0.238632,0.170800,1.039928,0.700000,-1.260000,0.140000
88.427671,0.179584,0.013176,1.046272,-1.820000,2.800000,-1.260000
88.431737,0.314272,-0.037088,0.882792,-1.120000,-3.220000,0.280000
88.435803,0.227896,0.089792,1.108736,0.560000,0.980000,-0.140000
88.439869,0.152744,-0.012200,0.946232,-1.400000,0.980000,-1.260000
88.443935,0.309392,-0.001464,0.929640,-0.140000,-1.260000,0.000000
88.448001,0.205936,0.030744,1.070672,-0.560000,0.560000,-0.280000
88.452067,0.203496,-0.027328,0.809104,-0.700000,-2.940000,-0.840000
88.456132,0.254248,0.084424,1.076040,-0.840000,1.960000,-0.420000
88.460198,0.199592,-0.046848,0.953064,-1.820000,0.000000,0.980000
88.464264,0.200080,0.032696,0.881328,0.420000,-2.380000,-0.560000
88.468330,0.305000,0.126392,1.221952,-0.420000,2.660000,-0.700000
88.472396,0.228872,-0.113216,0.848632,-2.100000,-2.240000,-0.280000
88.476462,0.236680,0.125904,0.908168,0.840000,-1.820000,-0.840000
88.480528,0.194712,0.041480,1.159488,-1.400000,2.660000,-0.560000
88.484594,0.243512,-0.096136,0.788608,-1.400000,-2.520000,0.280000
88.488660,0.232288,0.129320,1.071648,1.540000,0.140000,0.140000
88.492726,0.197152,0.028792,1.060424,-1.680000,1.960000,-0.420000
88.496791,0.262056,-0.033184,0.840336,-0.700000,-3.920000,-0.280000
88.500857,0.248880,0.126392,1.116056,0.280000,1.540000,-0.280000
88.504923,0.199104,-0.020984,0.966728,-1.960000,-0.840000,-1.120000
88.508989,0.263520,0.012200,0.924760,0.280000,-2.380000,0.280000
88.513055,0.217160,0.002928,1.067744,-0.420000,2.380000,-0.280000
88.517121,0.239120,-0.042944,0.876936,-1.680000,-1.540000,-0.420000
88.521187,0.207400,0.074664,1.017480,0.420000,-1.120000,-0.280000
88.525253,0.188856,-0.002440,1.004792,-1.120000,0.420000,-0.140000
88.529319,0.223504,-0.025376,0.807152,0.140000,-3.220000,-1.260000
88.533384,0.312320,0.159088,1.190232,-0.840000,-0.280000,0.140000
88.537450,0.214720,-0.043432,0.919880,-2.240000,0.280000,-0.280000
88.541516,0.267912,0.055144,0.927200,0.840000,-1.260000,-0.280000
88.545582,0.229360,0.029768,1.124840,-0.840000,0.840000,-0.420000
88.549648,0.179096,-0.093696,0.784216,-2.380000,-2.520000,-0.420000
88.553714,0.242536,0.156648,1.083360,1.680000,-0.840000,-0.560000
88.557780,0.181536,0.041968,1.065792,-0.980000,0.000000,-0.280000
88.561846,0.265960,-0.044896,0.798856,-1.120000,-3.920000,-0.420000
88.565912,0.244976,0.085400,1.162416,-0.420000,1.260000,0.140000
88.569978,0.194224,-0.005856,0.990640,-1.680000,-2.100000,-0.560000
88.574043,0.259128,0.017568,0.830576,-0.420000,-3.360000,-0.280000
88.578109,0.304024,0.035624,1.187304,-1.120000,1.540000,0.280000
88.582175,0.115656,-0.106872,0.815936,-0.420000,-3.360000,-1.400000
88.586241,0.308904,0.129320,0.999424,1.680000,-2.520000,0.140000
88.590307,0.190808,-0.030256,0.947696,-2.240000,3.780000,0.000000
88.594373,0.208864,0.011712,0.870104,-0.140000,-5.600000,-0.980000
88.598439,0.301584,0.150792,1.151192,-0.560000,0.420000,0.140000
88.602505,0.195688,-0.104920,0.948672,-2.660000,2.380000,-0.280000
88.606571,0.285968,0.076616,0.938912,1.960000,-2.940000,-0.840000
88.610636,0.189832,0.046848,1.078480,-1.120000,1.400000,-0.140000
88.614702,0.205936,-0.093696,0.846680,-2.660000,-1.680000,-1.120000
88.618768,0.283528,0.158600,1.080920,2.520000,-3.360000,0.560000
88.622834,0.116144,0.034160,0.980392,-1.400000,0.700000,-0.420000
88.626900,0.311344,-0.023912,0.859368,-1.820000,-3.080000,0.280000
88.630966,0.260104,0.091744,1.184864,0.560000,0.840000,0.000000
88.635032,0.187392,-0.033184,0.919392,-0.840000,-2.380000,-0.840000
88.639098,0.317200,0.004880,0.852536,-1.260000,-0.560000,-0.420000
88.643164,0.203984,0.003416,1.150216,-0.700000,1.680000,-0.420000
88.647230,0.168848,-0.031232,0.805688,1.260000,-5.320000,-0.840000
88.651295,0.282064,0.125904,1.042368,-0.140000,2.660000,0.000000
88.655361,0.210816,-0.042456,1.030168,-1.540000,0.840000,-0.280000
88.659427,0.212768,0.019032,0.806176,-0.280000,-4.900000,-0.280000
88.663493,0.283040,0.152744,1.199992,-0.980000,3.640000,-0.280000
88.667559,0.207888,-0.149328,0.889624,-2.520000,-1.820000,-0.560000
88.671625,0.274256,0.114192,0.899872,1.260000,-4.900000,0.000000
88.675691,0.198616,0.067344,1.155096,-0.980000,4.200000,-0.280000
88.679757,0.248392,-0.093696,0.847168,-2.240000,-0.840000,-0.700000
88.683823,0.266936,0.117120,0.991128,1.960000,-2.660000,0.000000
88.687889,0.139080,0.011712,1.042856,-2.520000,2.940000,-0.980000
88.691954,0.258152,-0.018544,0.911096,-1.120000,-2.940000,0.000000
88.696020,0.203496,0.116144,1.112152,1.960000,-2.240000,0.840000
88.700086,0.203008,0.024400,0.980880,-1.960000,-0.420000,-0.840000
88.704152,0.315736,-0.011224,0.861808,-2.520000,-2.240000,-0.700000
88.708218,0.266448,0.038064,1.119960,-0.420000,-1.680000,0.420000
88.712284,0.175192,-0.077104,0.833016,0.000000,-1.820000,-0.420000
88.716350,0.233752,0.026840,1.026752,-0.560000,0.700000,-0.560000
88.720416,0.218136,0.022936,1.071160,-0.980000,-2.240000,0.140000
88.724482,0.193736,-0.001464,0.760304,0.000000,-4.900000,-0.980000
88.728547,0.329888,0.164944,1.143384,-0.840000,2.100000,-0.560000
88.732613,0.232776,-0.064416,0.915976,-3.220000,-2.940000,0.140000
88.736679,0.210816,0.106872,0.937936,0.140000,-1.820000,-0.420000
88.740745,0.270840,0.017568,1.157536,-0.700000,4.340000,-0.840000
88.744811,0.240096,-0.179096,0.787144,-1.260000,-2.520000,0.420000
88.748877,0.183976,0.184464,0.989176,2.520000,-0.980000,-0.140000
88.752943,0.202032,0.051240,1.120448,-1.820000,2.800000,-0.840000
88.757009,0.262544,-0.028304,0.831064,-0.840000,-5.320000,-0.840000
88.761075,0.262056,0.112728,1.038464,0.560000,-0.140000,0.280000
88.765141,0.215208,-0.017080,1.048224,-2.660000,2.240000,-0.560000
88.769206,0.237168,-0.002928,0.906704,-0.560000,-2.940000,0.140000
88.773272,0.262056,0.071736,1.084824,-0.280000,1.260000,0.140000
88.777338,0.207400,-0.063440,0.878888,-1.400000,-0.700000,-0.560000
88.781404,0.265472,0.048800,1.004792,0.560000,-2.380000,-0.840000
88.785470,0.193736,-0.022448,1.000400,-1.120000,-0.280000,0.140000
88.789536,0.237656,-0.009760,0.820816,-0.560000,-1.960000,-1.680000
88.793602,0.284992,0.129808,1.165344,-0.560000,0.700000,0.000000
88.797668,0.140056,-0.024400,0.944768,-1.540000,0.280000,0.280000
88.801734,0.250344,0.065880,0.886696,0.980000,-3.220000,-0.700000
88.805799,0.316224,0.033184,1.183888,-0.700000,0.420000,-0.420000
88.809865,0.220576,-0.077104,0.782752,-2.800000,-2.520000,0.000000
88.813931,0.214720,0.145912,1.056032,0.560000,-0.140000,-0.140000
88.817997,0.187392,0.005368,1.066280,-1.680000,1.120000,-0.700000
88.822063,0.250344,-0.086376,0.751520,-0.840000,-4.900000,0.140000
88.826129,0.228872,0.162504,1.163880,0.560000,2.380000,0.140000
88.830195,0.244000,0.008784,1.060912,-1.260000,-1.960000,0.140000
88.834261,0.247416,-0.020008,0.792024,-0.560000,-4.200000,-0.980000
88.838327,0.285968,0.088816,1.116056,-1.120000,1.680000,-0.560000
88.842393,0.149816,-0.041968,0.917440,-1.820000,-1.400000,-0.980000
88.846458,0.261080,0.067344,0.997472,1.120000,-1.960000,0.700000
88.850524,0.181048,-0.059048,1.011624,-0.980000,3.500000,0.140000
88.854590,0.260104,-0.051240,0.845216,-0.280000,-5.880000,-0.980000
88.858656,0.275720,0.114192,1.045296,-0.420000,-1.960000,-0.280000
88.862722,0.164944,0.030256,1.016504,-2.660000,1.960000,-0.280000
88.866788,0.230824,0.026352,0.876448,0.980000,-4.200000,-1.120000
88.870854,0.316712,0.046848,1.118496,-0.280000,-0.420000,0.000000
88.874920,0.230824,-0.079056,0.861808,-2.660000,0.140000,0.140000
88.878986,0.241560,0.137128,1.019432,1.120000,-0.980000,0.560000
88.883051,0.205936,0.056608,1.032608,-0.840000,1.260000,-0.420000
88.887117,0.265960,-0.087840,0.762744,-2.520000,-2.940000,-0.700000
88.891183,0.247904,0.079056,1.175592,0.840000,0.980000,-0.840000
88.895249,0.163480,0.030744,0.992592,-0.980000,0.280000,0.000000
88.899315,0.295240,0.029768,0.868152,-0.840000,-1.120000,0.000000
88.903381,0.283040,0.051240,1.115080,-0.140000,1.820000,-0.560000
88.907447,0.173240,-0.025376,0.911096,-1.120000,-3.080000,-0.980000
88.911513,0.250344,0.042944,0.920368,-0.840000,1.400000,0.140000
88.915579,0.265472,-0.000488,1.146800,-1.400000,3.360000,-0.140000
88.919645,0.172264,-0.055632,0.784216,-0.140000,-4.760000,-0.560000
88.923710,0.224480,0.084424,1.030656,0.840000,0.700000,-0.560000
88.927776,0.232776,-0.003904,1.085800,-2.240000,2.240000,0.140000
88.931842,0.207888,0.013664,0.790072,1.120000,-5.880000,-0.700000
88.935908,0.273280,0.143960,1.131184,-0.700000,1.960000,0.140000
88.939974,0.264984,-0.071248,0.971608,-4.340000,0.840000,-0.420000
88.944040,0.258152,0.087352,0.981856,1.820000,-4.620000,0.000000
88.948106,0.161040,0.077592,1.038952,0.140000,1.960000,-0.700000
88.952172,0.287920,-0.153232,0.799344,-3.080000,-0.980000,-0.280000
88.956238,0.241560,0.147864,1.090680,1.260000,-2.100000,-0.420000
88.960303,0.156648,0.030744,0.990640,-0.280000,1.260000,-0.420000
88.964369,0.299632,-0.044896,0.891088,-1.960000,-0.140000,-0.140000
88.968435,0.259128,0.075640,1.138504,0.560000,0.140000,0.140000
88.972501,0.159088,0.021960,0.894504,-0.280000,-1.820000,-1.260000
88.976567,0.311832,-0.002928,0.938424,-1.820000,0.560000,-0.420000
88.980633,0.234728,0.013664,1.111176,-0.700000,1.400000,-0.420000
88.984699,0.192760,-0.024400,0.757376,-0.280000,-3.640000,-0.700000
88.988765,0.270352,0.087352,1.102880,-0.280000,4.340000,0.560000
88.992831,0.168848,-0.057584,1.029192,-1.680000,0.700000,-0.140000
88.996897,0.206424,0.059536,0.769088,1.120000,-5.460000,-0.980000
89.000962,0.316224,0.094672,1.173152,-1.400000,3.780000,-0.700000
89.005028,0.247904,-0.060512,0.972584,-3.360000,-0.840000,-0.420000
89.009094,0.217160,0.125416,0.893040,2.100000,-3.500000,0.280000
89.013160,0.188368,0.047824,1.142896,-1.540000,5.040000,-0.840000
89.017226,0.276696,-0.170800,0.829112,-2.660000,-2.520000,-0.280000
89.021292,0.266448,0.173240,1.051152,2.380000,-2.520000,0.840000
89.025358,0.121024,0.033184,1.000888,-0.840000,4.340000,-0.980000
89.029424,0.321592,-0.058560,0.872544,-1.680000,-3.640000,-0.560000
89.033490,0.231800,0.107360,1.076528,0.280000,-0.840000,0.140000
89.037556,0.146400,0.013176,1.035048,-1.400000,1.260000,-1.260000
89.041621,0.323056,-0.017080,0.875960,-0.700000,-1.960000,-0.420000
89.045687,0.281088,0.049776,1.092144,0.000000,0.700000,0.980000
89.049753,0.105408,-0.049776,0.786656,-0.140000,-1.400000,-1.120000
89.053819,0.292312,0.048800,1.064816,-0.420000,0.700000,-0.140000
89.057885,0.184464,0.011224,1.062376,-1.120000,0.560000,0.700000
89.061951,0.172264,0.022936,0.804224,0.840000,-4.060000,-0.980000
89.066017,0.303048,0.104432,1.161440,-0.980000,1.540000,0.000000
89.070083,0.304024,-0.047824,0.947696,-3.080000,-3.920000,-0.140000
89.074149,0.226432,0.080520,0.861320,1.400000,-2.940000,-0.560000
89.078214,0.193736,0.057584,1.168760,-0.840000,4.200000,-0.700000
89.082280,0.301584,-0.135176,0.810568,-1.400000,-3.780000,0.420000
89.086346,0.232288,0.161528,1.034072,2.100000,0.700000,0.140000
89.090412,0.164456,0.017568,1.023336,-1.260000,3.500000,-1.260000
89.094478,0.268400,-0.098088,0.789096,-2.520000,-5.180000,0.140000
89.098544,0.242048,0.161040,1.158512,0.000000,1.680000,0.980000
89.102610,0.176656,0.025376,1.048712,-0.560000,1.120000,-0.560000
89.106676,0.307440,-0.018544,0.874984,-0.280000,-3.360000,-0.700000
89.110742,0.239608,0.007320,1.024312,-0.840000,1.260000,0.420000
89.114808,0.180560,-0.028304,0.889136,-1.680000,-0.700000,-1.540000
89.118873,0.293776,0.099552,1.021872,0.280000,-1.820000,0.700000
89.122939,0.156648,-0.026840,1.027728,-0.700000,1.260000,0.420000
89.127005,0.272304,-0.037576,0.819352,0.420000,-2.940000,-0.840000
89.131071,0.276696,0.077104,1.101416,-1.120000,1.400000,-0.420000
89.135137,0.199592,0.022448,0.954040,-2.100000,-0.280000,0.140000
89.139203,0.271328,0.107848,0.915976,0.420000,-1.960000,-1.260000
89.143269,0.250832,0.022448,1.118984,-0.420000,2.520000,-0.700000
89.147335,0.270352,-0.097112,0.829112,-1.260000,-1.540000,0.280000
89.151401,0.208376,0.095160,1.053104,1.680000,2.800000,0.700000
89.155466,0.155184,0.049288,1.101904,-1.120000,3.920000,-0.700000
89.159532,0.260104,-0.068808,0.738832,-1.120000,-5.460000,-0.420000
89.163598,0.249368,0.116632,1.114104,0.280000,1.120000,-1.120000
89.167664,0.161040,-0.006832,1.070184,-1.820000,-0.700000,-1.400000
89.171730,0.323056,0.023912,0.853512,0.000000,-4.200000,0.560000
89.175796,0.226920,0.061976,1.107272,-0.280000,4.620000,0.560000
89.179862,0.207888,-0.032696,0.933544,-0.140000,-2.380000,-0.420000
89.183928,0.240096,0.043432,0.903776,-0.700000,-2.380000,-0.280000
89.187994,0.206912,0.017568,1.096536,-1.400000,3.360000,-0.420000
89.192060,0.232288,-0.078568,0.771040,0.000000,-3.640000,-0.980000
89.196125,0.287432,0.136152,1.126792,-0.280000,-0.280000,0.280000
89.200191,0.203008,-0.025864,0.961848,-2.520000,1.680000,-0.140000
89.204257,0.216672,0.055632,0.914512,0.980000,-2.240000,-0.700000
89.208323,0.277184,0.068320,1.139968,0.000000,0.980000,-0.560000
89.212389,0.271328,-0.091256,0.833016,-2.380000,-0.980000,-0.840000
89.216455,0.208376,0.104432,0.987712,0.980000,-1.400000,-0.700000
89.220521,0.176656,0.049776,1.071160,-1.120000,1.120000,-0.140000
89.224587,0.264008,-0.074664,0.763720,-2.100000,-0.700000,0.280000
89.228653,0.249856,0.136640,1.200968,0.700000,2.240000,0.140000
89.232718,0.159088,0.011224,0.950136,-0.840000,-0.980000,-1.120000
89.236784,0.342576,-0.023424,0.900848,-0.280000,-2.940000,-0.280000
89.240850,0.248392,0.044896,1.116544,0.420000,3.920000,-0.560000
89.244916,0.158112,0.033184,0.948184,-0.840000,-2.240000,-0.280000
89.248982,0.256688,0.057584,0.913536,-0.420000,-1.260000,0.000000
89.253048,0.246928,-0.044408,1.031632,-1.400000,3.080000,0.140000
89.257114,0.187880,-0.067344,0.764696,-0.840000,-4.900000,-0.280000
89.261180,0.241072,0.163480,1.164368,0.000000,1.400000,0.280000
89.265246,0.221064,-0.049776,1.031632,-1.540000,1.960000,-0.280000
89.269312,0.264984,0.022448,0.833016,1.540000,-5.460000,-0.700000
89.273377,0.225456,0.078568,1.079456,-0.700000,0.560000,-0.700000
89.277443,0.253272,-0.045384,0.935008,-3.220000,0.420000,-0.280000
89.281509,0.264496,0.139080,1.003328,1.820000,-2.660000,-0.280000
89.285575,0.182024,0.018544,1.063352,-0.280000,1.960000,-0.560000
89.289641,0.307928,-0.112728,0.741760,-2.520000,-1.540000,0.000000
89.293707,0.197640,0.123952,1.174616,0.840000,0.700000,0.420000
89.297773,0.151768,0.031720,0.998448,0.140000,-0.560000,-0.840000
89.301839,0.326472,-0.000488,0.880840,-1.960000,-0.980000,0.000000
89.305905,0.291336,0.052704,1.113128,-0.980000,1.260000,-0.140000
89.309970,0.151768,-0.029768,0.856440,-0.980000,-2.100000,-0.980000
89.314036,0.247904,0.019520,0.970144,0.560000,0.980000,-0.140000
89.318102,0.193248,-0.009760,1.053592,-2.240000,2.940000,0.280000
89.322168,0.250832,-0.006832,0.795928,0.420000,-4.060000,-0.700000
89.326234,0.260592,0.122976,1.125328,0.000000,2.660000,-0.140000
89.330300,0.228872,-0.040504,1.004304,-1.400000,1.120000,0.000000
89.334366,0.203496,0.050264,0.885232,0.980000,-3.640000,-0.280000
89.338432,0.248880,0.092720,1.176568,-0.840000,2.940000,-0.840000
89.342498,0.248392,-0.112728,0.805688,-2.940000,-1.260000,-0.420000
89.346564,0.266448,0.149328,1.013576,1.260000,-2.800000,0.140000
89.350629,0.146888,0.048800,1.081408,-0.840000,1.680000,-0.980000
89.354695,0.302560,-0.105408,0.801296,-1.120000,-3.360000,0.000000
89.358761,0.221064,0.098576,1.092144,1.120000,1.960000,0.420000
89.362827,0.198616,0.017568,0.990152,-1.400000,1.120000,-0.560000
89.366893,0.263032,0.022936,0.904752,-1.540000,-1.820000,-0.700000
89.370959,0.267912,0.050752,1.107272,0.140000,1.400000,-0.420000
89.375025,0.173240,-0.049288,0.840336,-0.560000,-1.960000,-1.400000
89.379091,0.329888,0.047824,0.997960,-0.700000,-0.280000,0.560000
89.383157,0.206912,-0.018056,1.058960,-1.260000,4.060000,0.700000
89.387222,0.142008,0.005368,0.819840,0.560000,-1.820000,-0.420000
89.391288,0.259616,0.102480,1.082384,-0.280000,1.400000,-0.980000
89.395354,0.223504,-0.065880,1.011136,-2.520000,-1.540000,-0.700000
89.399420,0.249856,0.102968,0.881816,0.980000,-4.760000,-0.840000
89.403486,0.243024,0.093208,1.175104,-0.840000,2.660000,0.140000
89.407552,0.234728,-0.113704,0.826184,-2.940000,-1.120000,-0.280000
89.411618,0.303536,0.124928,1.013088,1.540000,-0.840000,0.280000
89.415684,0.156648,0.017080,1.075064,-0.840000,3.220000,-0.560000
89.419750,0.228872,-0.084424,0.761768,-1.400000,-2.660000,-0.420000
89.423816,0.302072,0.152744,1.188280,0.980000,-0.420000,0.420000
89.427881,0.157624,-0.006832,0.930616,-1.120000,0.560000,-1.400000
89.431947,0.319640,-0.004392,0.866688,-1.120000,-1.960000,-0.280000
89.436013,0.254248,0.062464,1.130696,-1.540000,4.340000,0.560000
89.440079,0.127856,-0.029768,0.940376,-0.980000,-0.560000,-0.700000
89.444145,0.263032,0.019032,0.921832,1.260000,-0.420000,-0.700000
89.448211,0.255224,-0.045872,1.027240,-1.540000,0.560000,-0.280000
89.452277,0.195200,0.015616,0.825696,-0.420000,-2.800000,-0.700000
89.456343,0.250344,0.186904,1.155096,0.140000,2.100000,0.000000
89.460409,0.244000,-0.069296,0.955992,-2.380000,0.420000,0.280000
89.464475,0.224968,0.049776,0.869616,1.260000,-2.660000,-0.840000
89.468540,0.260592,0.032696,1.100928,-1.540000,3.500000,-0.700000
89.472606,0.281088,-0.085400,0.878400,-3.220000,0.420000,0.560000
89.476672,0.170800,0.150792,1.012112,2.660000,-0.700000,-0.560000
89.480738,0.191296,0.003904,1.038952,0.140000,1.820000,-0.420000
89.484804,0.290848,-0.076128,0.795928,-2.380000,-2.660000,-0.140000
89.488870,0.240096,0.226920,1.192672,0.280000,2.660000,0.140000
89.492936,0.208864,-0.001464,0.974536,-0.980000,1.120000,-0.420000
89.497002,0.266448,-0.013664,0.866200,-1.120000,0.000000,-0.140000
89.501068,0.233264,-0.002928,1.135576,0.560000,0.980000,-0.700000
89.505133,0.174704,-0.054168,0.852536,-0.280000,-1.960000,-0.840000
89.509199,0.291336,0.090280,1.029192,-0.280000,0.420000,0.000000
89.513265,0.203984,-0.003416,0.976488,-1.400000,2.380000,0.000000
89.517331,0.199104,-0.009760,0.833504,0.420000,-3.360000,-0.980000
89.521397,0.268400,0.134688,1.192672,-1.120000,2.380000,-0.140000
89.525463,0.244000,-0.119072,0.926224,-1.960000,0.280000,0.000000
89.529529,0.264496,0.083448,0.869128,1.260000,-1.260000,-0.420000
89.533595,0.244000,0.040504,1.131184,-0.560000,3.640000,-0.980000
89.537661,0.168848,-0.088816,0.824232,-2.660000,-0.280000,-0.560000
89.541727,0.281576,0.157136,0.995032,2.240000,-1.540000,0.000000
89.545792,0.174216,0.007808,1.080920,-1.960000,4.760000,0.000000
89.549858,0.268888,-0.016104,0.856440,-1.400000,-1.400000,-0.420000
89.553924,0.266936,0.147864,1.154608,0.840000,0.280000,0.420000
89.557990,0.150792,-0.042944,0.940376,-2.240000,1.120000,-1.680000
89.562056,0.307928,0.029768,0.885720,-0.700000,-1.960000,-0.140000
89.566122,0.262056,0.017080,1.142408,0.000000,2.100000,0.560000
89.570188,0.137616,-0.080032,0.796904,-0.140000,-0.280000,-0.840000
89.574254,0.305000,0.107848,1.041392,0.840000,1.400000,0.000000
89.578320,0.156648,-0.044408,0.980880,-2.380000,3.220000,-0.700000
89.582385,0.220576,0.008296,0.832040,0.700000,-3.360000,-1.400000
89.586451,0.305488,0.140056,1.159488,-0.700000,2.520000,0.280000
89.590517,0.163968,-0.056120,0.997472,-2.520000,1.820000,0.280000
89.594583,0.269376,0.077592,0.867664,2.660000,-3.360000,-0.700000
89.598649,0.261080,0.048800,1.142408,-2.380000,4.480000,-0.280000
89.602715,0.210816,-0.108824,0.833016,-3.640000,0.000000,-1.260000
89.606781,0.261080,0.160064,1.022848,2.940000,-2.380000,0.560000
89.610847,0.129320,0.002928,1.048712,-1.540000,4.340000,-0.560000
89.614913,0.288896,-0.040504,0.848632,-1.960000,-3.500000,-0.280000
89.618979,0.285968,0.120048,1.131184,0.560000,0.840000,0.140000
89.623044,0.146888,-0.015616,0.960384,-1.960000,2.660000,-0.840000
89.627110,0.299144,0.020984,0.896456,-0.560000,-1.120000,-0.280000
89.631176,0.202032,0.010736,1.100928,0.000000,1.400000,0.140000
89.635242,0.191784,-0.065880,0.853024,0.000000,-2.380000,-1.540000
89.639308,0.320616,0.082960,0.998936,-0.560000,1.260000,-0.420000
89.643374,0.204472,-0.015128,1.052616,-1.540000,3.080000,0.280000
89.647440,0.141032,0.031720,0.743224,0.700000,-1.960000,-0.840000
89.651506,0.322080,0.123952,1.185352,-0.140000,2.660000,0.280000
89.655572,0.198616,-0.061976,0.943304,-2.940000,1.960000,0.840000
89.659637,0.266936,0.131760,0.960872,1.540000,-1.400000,-0.280000
89.663703,0.205448,0.029280,1.150704,-1.260000,3.080000,-1.260000
89.667769,0.229848,-0.121024,0.842776,-2.660000,-1.120000,-0.980000
89.671835,0.245952,0.084424,0.971608,2.240000,-0.560000,0.280000
89.675901,0.192760,0.028304,1.106296,-0.840000,2.100000,-0.980000
89.679967,0.240584,-0.048312,0.743224,-1.540000,-3.220000,-0.560000
89.684033,0.212280,0.179096,1.138504,0.700000,1.680000,0.560000
89.688099,0.252784,-0.055144,0.958920,-0.980000,1.820000,-1.120000
89.692165,0.322568,0.009760,0.879376,-0.560000,-0.560000,-0.700000
89.696231,0.232776,0.021960,1.119472,-1.820000,4.620000,0.700000
89.700296,0.111752,-0.029280,0.863272,-0.420000,0.140000,-0.560000
89.704362,0.282064,0.068808,1.016016,1.960000,1.260000,-0.140000
89.708428,0.185440,-0.023912,1.051640,-2.800000,3.220000,-0.280000
89.712494,0.182024,0.024400,0.823744,-0.280000,-5.880000,-1.960000
89.716560,0.284016,0.174704,1.130696,0.280000,0.840000,0.140000
89.720626,0.227896,-0.074664,0.935984,-2.940000,2.380000,0.140000
89.724692,0.275720,0.098576,0.974536,0.980000,-3.360000,0.000000
89.728758,0.192272,0.056608,1.135088,-0.560000,2.800000,-0.420000
89.732824,0.257664,-0.162992,0.748104,-2.240000,-0.420000,-0.420000
89.736889,0.291336,0.135176,1.083848,0.700000,0.700000,-0.140000
89.740955,0.142008,0.044408,1.036512,-1.120000,2.240000,-0.280000
89.745021,0.238632,-0.011712,0.820816,-0.980000,-0.840000,-0.980000
89.749087,0.306464,0.094184,1.171688,0.560000,3.640000,0.560000
89.753153,0.130296,-0.081008,0.902312,-0.560000,0.140000,-1.120000
89.757219,0.284016,0.060512,0.886208,0.140000,-0.700000,-0.560000
89.761285,0.244488,-0.000488,1.131672,-1.960000,4.480000,-0.280000
89.765351,0.159576,-0.049288,0.830088,-0.280000,-2.100000,-0.980000
89.769417,0.280600,0.134200,1.032608,1.120000,2.660000,0.140000
89.773483,0.187880,-0.042944,1.027728,-2.940000,4.760000,0.420000
89.777548,0.207400,0.026352,0.843752,1.120000,-4.760000,-0.840000
89.781614,0.283528,0.118096,1.103856,0.280000,3.080000,0.280000
89.785680,0.253272,-0.067344,0.972584,-4.480000,4.340000,-0.420000
89.789746,0.285480,0.101504,0.955016,1.260000,-2.660000,-0.280000
89.793812,0.149816,0.055144,1.114104,0.840000,3.920000,-0.700000
89.797878,0.198616,-0.151768,0.784704,-3.220000,2.100000,-1.120000
89.801944,0.310856,0.116144,1.092144,1.540000,-1.960000,0.140000
89.806010,0.115656,0.069296,1.044320,-0.140000,1.820000,-0.140000
89.810076,0.256200,0.005368,0.825208,-1.680000,1.540000,-0.700000
89.814141,0.277184,0.052704,1.112152,-0.420000,0.140000,-0.280000
89.818207,0.158112,-0.023912,0.929640,-1.680000,-0.140000,-0.980000
89.822273,0.245464,0.014640,0.947208,-0.980000,1.120000,-0.280000
89.826339,0.315736,0.007320,1.149240,-0.560000,1.960000,0.700000
89.830405,0.114192,-0.071736,0.725168,0.980000,-2.240000,-0.420000
89.834471,0.281576,0.151768,1.075064,0.280000,3.220000,-0.420000
89.838537,0.223992,-0.026840,1.047248,-3.500000,3.080000,-0.140000
89.842603,0.193248,0.034160,0.817400,0.840000,-3.220000,-0.840000
89.846669,0.225944,0.116144,1.112152,0.420000,4.340000,-1.260000
89.850735,0.265472,-0.122000,0.997960,-4.060000,0.140000,0.140000
89.854800,0.220576,0.129320,0.899872,1.400000,-3.220000,0.420000
89.858866,0.200080,0.122488,1.193648,-0.280000,5.600000,0.000000
89.862932,0.276696,-0.139080,0.825696,-2.940000,0.000000,-0.840000
89.866998,0.240096,0.053680,0.946232,2.100000,-2.520000,-0.140000
89.871064,0.125416,0.056120,1.038952,-1.120000,2.940000,-1.540000
89.875130,0.311344,-0.033672,0.923296,-2.800000,-0.840000,0.000000
89.879196,0.202520,0.105896,1.074576,1.400000,1.680000,0.700000
89.883262,0.167872,-0.004392,0.958920,0.700000,0.700000,-0.560000
89.887328,0.283528,-0.006344,0.926712,-1.820000,1.540000,-0.560000
89.891393,0.219112,-0.003416,1.124840,-1.400000,-0.560000,0.000000
89.895459,0.202032,-0.009272,0.793488,-0.420000,-2.520000,-0.980000
89.899525,0.223016,0.073688,1.010160,0.280000,2.800000,-0.420000
89.903591,0.252296,-0.032696,1.062864,-1.260000,0.980000,0.560000
89.907657,0.122000,0.055632,0.785192,1.260000,-2.940000,-0.140000
89.911723,0.303536,0.129320,1.191696,-0.840000,4.060000,-0.700000
89.915789,0.308904,-0.077592,0.937448,-3.080000,-0.840000,-0.140000
89.919855,0.221552,0.126392,0.943792,1.680000,-2.660000,-0.560000
89.923921,0.175192,0.046848,1.127768,-1.400000,5.320000,-1.680000
89.927987,0.264496,-0.162504,0.860832,-3.780000,-1.680000,0.000000
89.932052,0.192760,0.130784,0.963312,2.660000,-0.140000,0.560000
89.936118,0.196664,0.075640,1.158512,0.140000,4.060000,-0.700000
89.940184,0.215696,-0.102968,0.758840,-2.100000,-3.080000,-0.980000
89.944250,0.293288,0.116632,1.055056,0.560000,-0.840000,0.140000
89.948316,0.143472,0.016104,1.023824,-2.380000,3.500000,-0.980000
89.952382,0.253272,0.024888,0.929152,-0.280000,-1.680000,-0.140000
89.956448,0.247416,0.018544,1.061888,-0.560000,1.540000,0.980000
89.960514,0.190808,-0.073688,0.841312,-1.540000,0.420000,-0.980000
89.964580,0.293776,0.056608,1.037976,0.700000,0.280000,-0.140000
89.968646,0.166408,0.006344,1.017480,-1.260000,2.240000,0.280000
89.972711,0.202520,0.047824,0.802760,0.700000,-1.400000,-1.120000
89.976777,0.254248,0.108336,1.191208,-0.840000,3.360000,-0.420000
89.980843,0.230336,-0.056608,0.934032,-2.100000,-1.260000,0.140000
89.984909,0.275232,0.123952,0.961848,0.980000,-0.840000,0.280000
89.988975,0.220088,0.038064,1.155096,-0.700000,4.200000,-1.260000
89.993041,0.226920,-0.129808,0.722240,-2.100000,-2.380000,-0.980000
89.997107,0.264008,0.115656,1.020408,1.120000,1.260000,0.280000
90.001173,0.141032,0.035624,1.164368,-0.420000,6.020000,-0.700000
90.005239,0.213256,-0.061000,0.755912,-0.700000,-1.820000,-0.280000
90.009304,0.241560,0.099064,1.079944,-0.280000,2.100000,0.420000
90.013370,0.194224,-0.008296,1.028704,-1.820000,0.980000,-1.680000
90.017436,0.270840,0.027816,0.917440,0.560000,-2.240000,0.280000
90.021502,0.200568,0.029768,1.091168,-1.260000,4.900000,0.140000
90.025568,0.191296,-0.037576,0.903776,-0.840000,-2.380000,-0.980000
90.029634,0.265960,0.096624,0.976976,1.260000,-1.540000,-0.140000
90.033700,0.226920,-0.022448,1.063352,-1.960000,3.780000,-0.140000
90.037766,0.225456,-0.010736,0.833016,0.000000,-3.780000,-1.120000
90.041832,0.178120,0.170800,1.127768,1.260000,-0.560000,0.280000
90.045898,0.210816,-0.057096,0.959408,-2.240000,2.100000,-0.840000
90.049963,0.296216,0.008296,0.884744,-0.560000,-2.240000,-0.140000
90.054029,0.253272,0.128832,1.157536,-0.140000,1.400000,-0.420000
90.058095,0.161040,-0.114192,0.796904,-2.240000,0.560000,-0.420000
90.062161,0.291824,0.078568,1.055544,1.540000,0.840000,0.560000
90.066227,0.137616,0.001952,1.061888,0.280000,1.260000,-0.840000
90.070293,0.219600,0.000000,0.805200,-1.960000,-1.260000,-1.120000
90.074359,0.251320,0.077104,1.092144,-0.420000,2.660000,-0.280000
90.078425,0.212768,-0.029280,1.003328,-0.700000,-0.560000,-0.420000
90.082491,0.212768,0.058560,0.842288,-0.700000,-0.980000,0.000000
90.086556,0.255712,0.043432,1.175592,-1.260000,3.500000,0.000000
90.090622,0.184952,-0.075640,0.850584,0.560000,-2.940000,-0.420000
90.094688,0.264984,0.095160,0.948672,0.980000,0.980000,-0.140000
90.098754,0.279136,-0.009760,1.126304,-2.660000,5.040000,-0.420000
90.102820,0.145424,0.010248,0.791048,0.280000,-4.620000,-1.120000
90.106886,0.194224,0.173240,1.075552,1.120000,1.260000,-0.420000
90.110952,0.281088,-0.070760,1.042856,-4.060000,4.060000,-0.280000
90.115018,0.227408,-0.001952,0.873032,0.980000,-3.220000,-0.140000
90.119084,0.190808,0.199104,1.171688,0.840000,2.660000,0.140000
90.123150,0.224968,-0.157136,0.897920,-3.080000,2.240000,-0.980000
90.127215,0.265960,-0.000488,0.938424,1.540000,-1.960000,0.140000
90.131281,0.180072,0.068320,1.033096,0.280000,1.120000,-0.560000
90.135347,0.207888,-0.030256,0.848144,-2.660000,0.980000,-0.700000
90.139413,0.258640,0.090768,1.098488,1.120000,0.840000,0.420000
90.143479,0.139080,0.021960,0.936960,-0.560000,1.120000,-0.420000
90.147545,0.278648,0.024888,0.903776,-1.680000,0.420000,-0.420000
90.151611,0.311344,0.026352,1.176568,-0.700000,1.260000,0.420000
90.155677,0.126392,-0.024888,0.827160,0.280000,-2.800000,-0.840000
90.159743,0.269864,0.088328,0.999912,-0.280000,2.940000,-0.700000
90.163808,0.311832,-0.023912,1.122888,-2.100000,3.220000,-0.420000
90.167874,0.112240,0.011224,0.756400,0.700000,-4.060000,-0.840000
90.171940,0.187392,0.145912,1.138992,0.420000,3.220000,-0.420000
90.176006,0.235704,-0.089792,1.044320,-3.500000,2.520000,-0.560000
90.180072,0.260104,0.030256,0.820328,1.400000,-4.760000,0.280000
90.184138,0.196176,0.155672,1.169248,0.140000,4.620000,0.000000
90.188204,0.229848,-0.095160,0.980880,-3.640000,0.420000,-0.840000
90.192270,0.212280,0.018056,0.829112,1.260000,-3.220000,0.140000
90.196336,0.235704,0.021960,1.135088,-0.560000,3.360000,-0.980000
90.200402,0.204960,-0.074664,0.831552,-1.960000,-0.980000,-0.700000
90.204467,0.265472,0.115168,1.023824,0.980000,0.140000,0.840000
90.208533,0.114680,0.027816,0.990640,-0.280000,4.200000,-0.560000
90.212599,0.246440,-0.008296,0.897920,-1.120000,-1.260000,-0.420000
90.216665,0.264496,0.108824,1.099952,-0.140000,0.000000,0.840000
90.220731,0.192272,-0.007320,1.010160,-1.400000,0.280000,-0.980000
90.224797,0.204472,0.003904,0.926224,-0.140000,-2.520000,-1.400000
90.228863,0.330376,0.048800,1.135088,-1.540000,0.000000,0.140000
90.232929,0.126880,-0.027328,0.792024,-0.560000,-0.280000,-0.560000
90.236995,0.228384,0.135176,1.086776,1.540000,-0.420000,-0.700000
90.241060,0.236680,-0.014640,1.012600,-2.660000,-0.560000,0.000000
90.245126,0.200568,-0.034648,0.813008,-0.420000,-0.980000,0.000000
90.249192,0.225944,0.079056,1.159000,1.120000,1.680000,-0.700000
90.253258,0.216672,-0.070272,0.945744,-3.360000,-0.280000,-0.140000
90.257324,0.178608,0.041968,0.834480,-0.140000,-1.680000,0.140000
90.261390,0.271328,0.090768,1.210728,0.980000,1.540000,-0.700000
90.265456,0.193248,-0.069784,0.823744,-1.820000,-2.940000,-0.700000
90.269522,0.287432,0.080032,0.944280,0.000000,-0.280000,0.280000
90.273588,0.209840,0.005368,1.079456,-0.840000,3.220000,-0.840000
90.277654,0.162504,-0.022936,0.826184,-0.840000,-1.260000,0.420000
90.281719,0.269376,0.128344,1.138992,0.560000,1.820000,0.000000
90.285785,0.180560,-0.016104,0.966728,-1.260000,0.140000,-0.980000
90.289851,0.235216,0.072712,0.930616,-0.840000,-4.200000,-1.260000
90.293917,0.288408,0.047336,1.097024,-1.820000,2.240000,0.140000
90.297983,0.200568,-0.063928,0.924760,-1.260000,0.560000,-0.700000
90.302049,0.212280,0.101504,0.979904,1.960000,-1.680000,0.280000
90.306115,0.191296,-0.025864,1.001864,-2.380000,3.780000,-0.980000
90.310181,0.254248,-0.078568,0.825208,-1.260000,-1.260000,0.000000
90.314247,0.211304,0.140544,1.132160,1.680000,-0.280000,0.000000
90.318312,0.162992,-0.016104,0.955504,-1.680000,1.820000,-0.980000
90.322378,0.240096,-0.009272,0.908168,-1.260000,-1.120000,0.000000
90.326444,0.238632,0.106872,1.138016,0.560000,0.280000,-0.420000
90.330510,0.226920,-0.026352,0.895480,-1.120000,0.280000,-0.840000
90.334576,0.290848,0.029280,0.916952,-0.980000,0.140000,0.140000
90.338642,0.173240,0.060512,1.155096,-0.140000,0.000000,-0.560000
90.342708,0.148352,0.012200,0.846680,-1.260000,-1.680000,-0.980000
90.346774,0.309880,0.035624,1.017968,-0.700000,2.660000,0.560000
90.350840,0.199592,-0.019520,1.048224,-1.400000,1.400000,-0.560000
90.354906,0.191784,0.005856,0.890112,1.540000,-4.340000,-0.140000
90.358971,0.187392,0.096624,1.101416,-0.560000,3.640000,-0.560000
90.363037,0.226920,-0.074176,0.985272,-2.240000,-1.960000,-0.280000
90.367103,0.212768,0.082960,0.819352,1.400000,-5.180000,-0.420000
90.371169,0.233264,0.083936,1.184864,-2.380000,2.940000,-1.120000
90.375235,0.240096,-0.119560,0.848632,-2.660000,-2.100000,0.560000
90.379301,0.229360,0.122976,0.985760,2.800000,-2.380000,0.840000
90.383367,0.187392,-0.011224,1.057008,-0.560000,4.900000,-1.120000
90.387433,0.249368,-0.081008,0.816912,-2.240000,-2.380000,-0.420000
90.391499,0.194712,0.201056,1.074088,0.980000,-2.380000,0.000000
90.395564,0.183000,0.014152,1.000888,-1.960000,2.240000,-1.680000
90.399630,0.333792,-0.012200,0.962336,-1.680000,-2.940000,0.140000
90.403696,0.231312,0.088328,1.098000,0.140000,1.260000,0.700000
90.407762,0.094672,-0.058560,0.909144,-0.980000,0.560000,-0.980000
90.411828,0.322568,0.010248,0.956968,-0.420000,-0.700000,-0.560000
90.415894,0.189832,0.015128,1.006256,-1.260000,-0.840000,-0.140000
90.419960,0.140056,0.056608,0.846192,0.560000,-1.680000,-1.680000
90.424026,0.335744,0.089792,1.165832,0.000000,1.960000,0.140000
90.428092,0.150792,-0.115656,0.924272,-2.520000,1.260000,1.260000
90.432158,0.216672,0.078080,0.817888,1.400000,-1.680000,-0.840000
90.436223,0.300120,0.089792,1.205848,-1.120000,4.480000,0.000000
90.440289,0.178120,-0.101504,0.835456,-2.520000,-2.100000,-0.980000
90.444355,0.261568,0.140056,0.992592,1.540000,-1.400000,0.140000
90.448421,0.159088,-0.008784,1.129720,-1.120000,5.460000,-0.980000
90.452487,0.240096,-0.083448,0.816424,-1.540000,-3.780000,0.000000
90.456553,0.246440,0.161528,1.032608,1.400000,0.420000,0.280000
90.460619,0.150792,0.029280,1.094096,-1.960000,2.240000,-1.120000
90.464685,0.267424,-0.044408,0.832040,-0.420000,-4.620000,-0.420000
90.468751,0.238144,0.109800,1.094584,0.560000,3.360000,0.000000
90.472816,0.234240,-0.037088,0.998448,-1.540000,1.540000,-1.260000
90.476882,0.216184,0.015128,0.865224,-0.700000,-1.260000,0.000000
90.480948,0.189344,0.034648,1.093120,0.140000,2.520000,0.560000
90.485014,0.166408,-0.046848,0.862296,-0.420000,-1.260000,-0.980000
90.489080,0.245464,0.071736,0.996496,0.000000,-0.280000,-0.560000
90.493146,0.238144,-0.007320,1.055056,-2.380000,3.220000,0.000000
90.497212,0.222528,0.012688,0.927200,0.560000,-2.660000,-0.280000
90.501278,0.167384,0.145912,1.058472,0.980000,0.840000,-0.140000
90.505344,0.256200,-0.020984,0.932080,-2.800000,0.560000,-0.140000
90.509410,0.274744,0.026840,0.933056,-0.140000,-2.660000,-0.280000
90.513475,0.182512,0.101504,1.203408,0.280000,1.960000,-0.280000
90.517541,0.217648,-0.087352,0.811056,-2.520000,1.260000,-0.700000
90.521607,0.301096,0.014640,0.987712,-0.420000,0.280000,0.140000
90.525673,0.128344,0.044408,1.063352,-0.140000,1.680000,-1.260000
90.529739,0.219112,-0.053192,0.804224,-0.840000,-1.540000,-0.140000
90.533805,0.235704,0.089304,1.055544,-0.420000,3.640000,0.140000
90.537871,0.174216,-0.011224,1.057496,-0.140000,-0.280000,-0.840000
90.541937,0.235216,0.030256,0.800808,-0.140000,-1.540000,-0.980000
90.546003,0.311832,0.084424,1.206336,-1.260000,3.920000,0.420000
90.550069,0.141520,-0.009272,0.919392,-1.120000,-0.560000,-1.120000
90.554134,0.216184,0.142008,0.939888,0.840000,-2.380000,0.140000
90.558200,0.281576,-0.007320,1.149728,-2.380000,6.160000,-0.280000
90.562266,0.192760,-0.133224,0.845704,0.280000,-3.780000,-0.140000
90.566332,0.195688,0.091256,0.948672,1.540000,-0.560000,-0.420000
90.570398,0.180072,0.008296,1.126304,-4.200000,6.160000,-0.840000
90.574464,0.199104,-0.046360,0.817400,-0.560000,-3.500000,-0.840000
90.578530,0.210328,0.111752,1.020896,2.800000,-3.220000,-0.980000
90.582596,0.229848,-0.004880,1.069208,-3.500000,2.940000,-0.700000
90.586662,0.251808,-0.002928,0.911096,-0.700000,-3.500000,0.420000
90.590727,0.213744,0.170800,1.101904,1.400000,0.420000,0.280000
90.594793,0.153720,-0.051728,0.911584,-3.220000,2.240000,-0.840000
90.598859,0.352336,0.016592,0.936472,-1.120000,-3.780000,-0.280000
90.602925,0.194224,0.045872,1.063840,0.420000,-0.420000,0.140000
90.606991,0.120536,-0.012200,0.915488,-0.980000,0.840000,-0.700000
90.611057,0.303048,0.014152,1.069208,-0.280000,-0.420000,0.140000
90.615123,0.183488,0.010248,0.965752,-0.420000,0.560000,-0.280000
90.619189,0.185440,0.060024,0.830088,0.000000,-2.660000,-0.980000
90.623255,0.290360,0.070272,1.138504,-1.960000,2.380000,-0.280000
90.627321,0.169824,-0.068320,0.886208,-1.960000,-1.120000,0.140000
90.631386,0.224480,0.047336,0.946232,0.980000,-0.840000,-0.560000
90.635452,0.253760,0.042944,1.195600,-1.960000,4.480000,-0.840000
90.639518,0.196176,-0.077104,0.810080,-1.680000,-2.380000,0.280000
90.643584,0.214232,0.126880,0.961360,1.540000,-1.400000,-0.560000
90.647650,0.163480,0.072712,1.179496,-1.540000,2.240000,-1.120000
90.651716,0.230336,-0.094184,0.748104,-0.700000,-5.180000,-0.560000
90.655782,0.301584,0.136640,1.098000,0.420000,0.280000,0.700000
90.659848,0.113704,-0.010248,1.059936,-1.820000,1.820000,-0.840000
90.663914,0.226920,-0.011224,0.844728,0.140000,-4.900000,0.000000
90.667979,0.295728,0.103456,1.106296,0.000000,2.520000,0.560000
90.672045,0.192272,-0.028304,0.977952,-1.120000,0.140000,-0.700000
90.676111,0.245952,0.031720,0.880352,0.280000,-1.540000,0.000000
90.680177,0.224968,0.000976,1.127768,-1.260000,4.060000,0.140000
90.684243,0.158600,-0.053680,0.834480,-0.700000,-2.940000,-1.120000
90.688309,0.223016,0.099552,0.978928,0.840000,-1.960000,0.000000
90.692375,0.211304,0.017568,1.056520,-2.520000,2.380000,-0.140000
90.696441,0.225456,0.003416,0.912072,0.560000,-4.060000,-0.980000
90.700507,0.216184,0.131760,1.082384,0.700000,0.840000,-0.560000
90.704573,0.214232,-0.057584,0.937448,-4.340000,1.960000,-0.420000
90.708638,0.292312,0.061488,0.993568,0.420000,-3.080000,0.140000
90.712704,0.179096,0.076616,1.099952,1.120000,-0.700000,-0.140000
90.716770,0.207400,-0.077592,0.828136,-1.820000,0.560000,-0.560000
90.720836,0.273280,0.025864,0.984784,-0.280000,0.280000,0.140000
90.724902,0.163968,0.027328,1.068720,0.000000,0.560000,-0.700000
90.728968,0.214232,-0.026840,0.810568,-0.980000,0.000000,-0.140000
90.733034,0.228872,0.072712,1.116544,-0.980000,2.100000,-0.280000
90.737100,0.172264,0.005856,0.919392,0.000000,-2.660000,-1.120000
90.741166,0.244000,0.080032,0.922808,0.000000,-0.700000,0.280000
90.745231,0.249368,0.039528,1.193160,-1.960000,4.900000,0.000000
90.749297,0.228872,-0.026840,0.851072,-0.140000,-4.200000,-0.700000
90.753363,0.183488,0.087840,0.878400,-0.420000,0.700000,-0.420000
90.757429,0.291336,-0.017080,1.183400,-2.940000,4.760000,-0.840000
90.761495,0.206912,-0.054168,0.828136,0.700000,-4.200000,0.000000
90.765561,0.150304,0.155672,1.038952,1.960000,2.800000,-0.280000
90.769627,0.220576,-0.053680,1.054568,-3.220000,4.620000,-1.260000
90.773693,0.254248,-0.048312,0.833992,-0.280000,-3.780000,0.420000
90.777759,0.178120,0.162504,1.060424,1.120000,0.560000,-0.280000
90.781825,0.232776,-0.005368,1.070672,-3.360000,3.080000,-0.700000
90.785890,0.216184,-0.024888,0.875960,0.420000,-2.940000,0.140000
