Time [s],lsm6dsv16x_acc_x [g],lsm6dsv16x_acc_y [g],lsm6dsv16x_acc_z [g],lsm6dsv16x_gyro_x [dps],lsm6dsv16x_gyro_y [dps],lsm6dsv16x_gyro_z [dps]
68.183581,0.213744,0.079056,1.100928,1.260000,0.840000,-0.420000
68.187646,0.240584,-0.147864,0.833016,-4.760000,1.260000,-0.140000
68.191712,0.264496,0.086376,1.074088,1.680000,-1.540000,-0.280000
68.195778,0.111264,0.046848,1.058960,1.120000,1.960000,-0.560000
68.199844,0.224968,-0.073688,0.848632,-2.940000,1.120000,-0.420000
68.203910,0.205936,0.078080,1.069696,0.560000,0.000000,-0.280000
68.207976,0.171776,0.001952,0.947696,0.560000,-2.240000,-0.980000
68.212042,0.223016,0.025864,0.880840,-1.960000,-0.140000,-0.700000
68.216108,0.254248,0.068320,1.176080,-1.260000,1.540000,0.420000
68.220174,0.157624,0.012200,0.892552,-1.260000,-1.120000,-0.140000
68.224240,0.179584,0.048800,0.935008,0.140000,0.000000,-0.560000
68.228305,0.275232,-0.038552,1.213168,-1.540000,2.380000,-0.420000
68.232371,0.210816,-0.008784,0.800808,-0.700000,-4.060000,0.140000
68.236437,0.132736,0.112728,1.009184,0.140000,0.840000,-0.840000
68.240503,0.262056,-0.029768,1.138992,-2.520000,1.960000,-0.840000
68.244569,0.153232,-0.022448,0.747616,0.280000,-5.040000,0.140000
68.248635,0.220088,0.140056,1.102392,1.540000,1.540000,-0.700000
68.252701,0.219600,-0.107360,1.001864,-3.920000,2.240000,-0.700000
68.256767,0.193248,0.033672,0.808616,0.280000,-3.920000,1.120000
68.260833,0.175680,0.100040,1.166808,1.400000,2.240000,-0.980000
68.264898,0.256200,-0.072712,0.987224,-3.080000,0.700000,-1.260000
68.268964,0.261568,0.059536,0.822280,-0.140000,-3.500000,0.280000
68.273030,0.190808,0.097600,1.138016,-0.280000,5.040000,-0.420000
68.277096,0.148352,-0.080520,0.940376,-1.120000,0.840000,-0.980000
68.281162,0.231800,0.039528,0.929640,0.280000,-0.980000,0.980000
68.285228,0.217160,0.032696,1.117032,-0.840000,2.800000,-0.700000
68.289294,0.158600,-0.031720,0.850096,0.280000,-2.940000,-0.840000
68.293360,0.203008,0.106872,1.025288,-0.140000,0.700000,0.000000
68.297426,0.226920,-0.019520,1.074576,-2.660000,1.960000,-0.980000
68.301492,0.174704,-0.000976,0.884256,-0.280000,-3.360000,-0.560000
68.305557,0.255712,0.119072,1.129720,-0.140000,2.380000,0.840000
68.309623,0.171288,-0.075152,0.961848,-2.520000,0.280000,-0.140000
68.313689,0.173728,0.062952,0.918904,1.120000,-4.900000,-0.700000
68.317755,0.187880,0.060024,1.064328,-1.260000,0.000000,-0.700000
68.321821,0.277672,-0.094672,0.874008,-2.520000,-1.260000,-0.280000
68.325887,0.216672,0.107848,1.072136,1.400000,-1.260000,-0.420000
68.329953,0.145424,0.028304,1.020896,0.000000,0.700000,-0.140000
68.334019,0.201544,-0.033184,0.835944,-2.100000,-0.420000,0.000000
68.338085,0.201544,0.059536,1.110200,0.420000,0.280000,-0.140000
68.342150,0.182024,0.030256,0.941840,-0.140000,-3.780000,-0.980000
68.346216,0.253272,0.019520,0.896456,-1.680000,-0.840000,-0.140000
68.350282,0.267424,0.028792,1.227808,-0.980000,2.520000,0.280000
68.354348,0.138104,-0.057096,0.793976,0.140000,-2.520000,-0.280000
68.358414,0.229360,0.044896,0.943792,0.000000,0.980000,-0.700000
68.362480,0.225944,0.031232,1.174128,-2.800000,2.380000,0.000000
68.366546,0.163968,0.007320,0.781776,1.120000,-5.320000,-0.420000
68.370612,0.188856,0.122000,1.021384,1.820000,1.960000,-0.980000
68.374678,0.289384,-0.083936,1.075552,-4.480000,2.240000,-0.560000
68.378744,0.120536,0.040016,0.821792,0.000000,-2.800000,0.700000
68.382809,0.181536,0.138592,1.181448,2.100000,1.540000,-0.280000
68.386875,0.202032,-0.124928,0.985760,-3.920000,0.140000,-1.540000
68.390941,0.238144,0.055632,0.849608,0.000000,-4.900000,0.280000
68.395007,0.197640,0.066856,1.089216,1.120000,1.260000,-0.700000
68.399073,0.240096,-0.067832,0.977464,-2.520000,-0.420000,-0.980000
68.403139,0.223504,0.040504,0.899872,-0.140000,-1.260000,0.700000
68.407205,0.173728,0.100528,1.135576,-1.540000,3.360000,-0.140000
68.411271,0.187880,-0.052216,0.834968,-0.980000,-2.100000,-0.560000
68.415337,0.245952,0.023424,1.006256,1.120000,-1.680000,0.140000
68.419402,0.196176,0.026840,1.065304,-2.380000,2.100000,-0.700000
68.423468,0.188368,0.024888,0.909144,-0.700000,-1.260000,-0.420000
68.427534,0.161040,0.101504,1.065792,0.980000,0.700000,-0.840000
68.431600,0.246928,-0.077592,0.960872,-2.100000,-0.700000,0.140000
68.435666,0.161528,0.021472,0.884744,0.700000,-4.060000,-0.700000
68.439732,0.224480,0.101016,1.153632,-0.420000,0.840000,0.280000
68.443798,0.274744,-0.067832,0.927200,-3.220000,-0.560000,0.140000
68.447864,0.177632,0.062952,0.984296,1.120000,-0.980000,-0.560000
68.451930,0.140544,0.024400,1.052128,0.000000,-0.280000,-0.980000
68.455996,0.238632,-0.033672,0.827648,-2.800000,-2.660000,0.000000
68.460061,0.251320,0.101992,1.128744,1.820000,-1.260000,-0.140000
68.464127,0.156160,0.004880,0.954528,0.000000,-0.700000,-0.280000
68.468193,0.248880,0.005856,0.859368,-2.240000,-0.140000,0.000000
68.472259,0.199592,0.058072,1.166320,-0.700000,3.080000,0.280000
68.476325,0.157624,-0.051728,0.862784,0.980000,-3.360000,-0.700000
68.480391,0.247904,0.044408,0.937448,-0.980000,0.280000,-0.420000
68.484457,0.260104,-0.001952,1.197552,-2.380000,4.060000,-0.420000
68.488523,0.143472,-0.016592,0.795928,0.420000,-4.620000,-0.140000
68.492589,0.170800,0.129808,1.011624,1.400000,1.260000,-0.140000
68.496654,0.234240,-0.053192,1.111664,-3.500000,2.100000,-0.840000
68.500720,0.200080,0.026840,0.788608,-0.140000,-5.600000,-0.280000
68.504786,0.158112,0.104432,1.098000,1.400000,0.420000,-0.560000
68.508852,0.262544,-0.061000,1.047736,-3.220000,2.100000,-0.840000
68.512918,0.173240,0.010736,0.802760,-0.140000,-2.940000,1.120000
68.516984,0.184952,0.068808,1.191208,0.980000,1.820000,-0.980000
68.521050,0.244488,-0.092720,0.945744,-1.960000,-0.560000,-0.840000
68.525116,0.272304,0.086864,0.878400,0.280000,-2.660000,0.280000
68.529182,0.154696,0.109312,1.124840,-0.560000,2.520000,-1.120000
68.533248,0.160552,-0.054168,0.863272,-2.380000,-1.680000,-0.420000
68.537313,0.253760,0.053680,1.001376,-0.140000,-1.120000,0.420000
68.541379,0.196664,0.006344,1.130208,-1.260000,2.100000,0.560000
68.545445,0.160552,-0.026352,0.797392,0.280000,-4.200000,-1.120000
68.549511,0.223992,0.085888,1.034072,0.980000,-0.280000,0.000000
68.553577,0.176656,-0.033184,1.039440,-3.080000,2.100000,-0.980000
68.557643,0.172264,0.052704,0.936472,1.260000,-5.320000,-0.560000
68.561709,0.265960,0.058560,1.049200,-0.420000,1.120000,-0.420000
68.565775,0.254736,-0.079056,0.914512,-4.200000,0.840000,0.140000
68.569841,0.212768,0.091744,0.997960,1.680000,-2.520000,-0.280000
68.573906,0.155672,0.067832,1.070184,-0.140000,2.800000,0.000000
68.577972,0.224480,-0.092232,0.853512,-2.380000,0.420000,-0.560000
68.582038,0.249368,0.081496,1.061888,1.820000,-0.980000,0.000000
68.586104,0.148352,0.023424,1.005768,-1.400000,0.700000,-0.980000
68.590170,0.208864,0.007808,0.843264,-1.960000,-1.400000,-0.420000
68.594236,0.209840,0.072712,1.155096,-0.140000,1.260000,-0.140000
68.598302,0.195688,-0.016104,0.957456,0.140000,-2.380000,-0.420000
68.602368,0.239608,0.000000,0.868152,-0.280000,0.140000,-0.840000
68.606434,0.210816,0.047336,1.170712,-2.240000,4.060000,-0.420000
68.610500,0.147864,0.016104,0.881328,-0.980000,-3.360000,0.000000
68.614565,0.216672,0.087840,0.966728,0.980000,0.280000,0.000000
68.618631,0.285968,-0.061488,1.136064,-2.940000,2.240000,-0.840000
68.622697,0.142984,-0.033672,0.794464,-1.400000,-4.620000,-0.280000
68.626763,0.191784,0.137128,1.122400,1.540000,1.400000,-0.140000
68.630829,0.195688,-0.075152,1.041880,-2.380000,3.920000,-0.560000
68.634895,0.183976,0.011712,0.751520,1.120000,-5.600000,0.280000
68.638961,0.197152,0.115168,1.099952,1.120000,-0.140000,-1.400000
68.643027,0.219112,-0.051240,1.042368,-4.060000,0.560000,-1.260000
68.647093,0.236680,0.048312,0.882304,-0.140000,-2.800000,1.120000
68.651158,0.211792,0.100528,1.156560,-0.280000,3.640000,0.280000
68.655224,0.175680,-0.087840,0.884256,-2.380000,-0.980000,-0.280000
68.659290,0.275232,0.028792,0.927688,0.700000,-2.940000,0.140000
68.663356,0.177144,0.039528,1.128256,-0.560000,2.660000,-0.560000
68.667422,0.154696,-0.015128,0.864736,-0.980000,-1.960000,-0.980000
68.671488,0.247416,0.090768,1.006256,0.560000,-0.280000,0.000000
68.675554,0.202032,-0.007808,1.033584,-2.240000,1.820000,-0.420000
68.679620,0.180072,0.026840,0.862784,1.120000,-3.220000,-0.560000
68.683686,0.222528,0.090280,1.081896,-0.280000,2.940000,-0.420000
68.687752,0.217648,-0.125416,0.963312,-3.360000,0.840000,-0.280000
68.691817,0.209352,0.078080,0.954528,1.960000,-1.540000,-0.140000
68.695883,0.195200,0.041968,1.070184,0.560000,1.540000,-1.120000
68.699949,0.244488,-0.058560,0.915488,-3.220000,0.840000,-0.560000
68.704015,0.249368,0.103456,1.018456,1.540000,-1.120000,0.840000
68.708081,0.072224,0.074664,1.037000,-0.700000,3.080000,0.420000
68.712147,0.239608,-0.053192,0.844240,-1.680000,-1.680000,-0.700000
68.716213,0.210328,0.027816,1.112640,0.700000,-0.560000,-0.420000
68.720279,0.193736,0.025864,0.969168,-0.280000,-0.980000,-0.980000
68.724345,0.195688,-0.006344,0.887672,-0.980000,-0.140000,-0.420000
68.728410,0.216672,0.058560,1.144848,0.280000,1.540000,-0.280000
68.732476,0.149816,0.010248,0.843752,-0.280000,-3.500000,0.140000
68.736542,0.254248,0.037576,0.981856,-0.560000,0.420000,-0.700000
68.740608,0.275232,-0.024400,1.156560,-2.380000,2.380000,-0.700000
68.744674,0.126392,-0.010736,0.808128,-0.280000,-3.920000,0.700000
68.748740,0.104920,0.140056,1.069208,0.980000,2.520000,-0.840000
68.752806,0.353800,-0.049776,1.111176,-1.680000,-0.280000,-0.140000
68.756872,0.156160,-0.017568,0.695400,0.840000,-5.600000,-0.140000
68.760938,0.193248,0.178120,1.184864,0.980000,2.660000,-1.120000
68.765003,0.278648,-0.079544,1.026264,-3.780000,1.540000,-0.420000
68.769069,0.133224,0.009272,0.821792,0.140000,-1.820000,0.560000
68.773135,0.169336,0.057096,1.173152,0.420000,2.100000,-1.400000
68.777201,0.267424,-0.056120,0.911584,-3.220000,-1.680000,0.560000
68.781267,0.219112,0.048800,0.911584,1.680000,-2.800000,0.700000
68.785333,0.158600,0.077104,1.101416,0.980000,2.520000,-0.560000
68.789399,0.166896,-0.095648,0.864248,-2.100000,-0.840000,-0.980000
68.793465,0.249368,0.116144,1.064816,0.560000,-1.960000,0.280000
68.797531,0.187392,-0.006344,1.004304,-0.840000,-0.420000,-1.260000
68.801597,0.155672,0.034648,0.912072,-1.260000,-3.780000,-0.420000
68.805662,0.320128,0.122976,1.114104,0.140000,-1.400000,0.280000
68.809728,0.192760,-0.098576,0.961848,-1.680000,0.700000,-0.280000
68.813794,0.182512,0.088328,0.954528,1.680000,-1.260000,-0.980000
68.817860,0.196664,-0.014152,1.053104,-1.400000,0.000000,0.140000
68.821926,0.213744,-0.075152,0.842776,-2.800000,-0.700000,-0.280000
68.825992,0.169824,0.092232,1.041392,2.520000,-1.680000,-0.560000
68.830058,0.239120,0.006832,1.041880,-1.260000,0.140000,-0.420000
68.834124,0.188368,-0.049288,0.811056,-2.240000,-1.260000,0.140000
68.838190,0.185440,0.142496,1.143384,0.980000,0.280000,-0.560000
68.842255,0.217648,-0.015128,0.894504,-2.100000,-0.280000,0.000000
68.846321,0.256688,0.040504,0.992104,-1.400000,-0.840000,0.140000
68.850387,0.224480,0.071248,1.179008,1.120000,0.700000,-0.980000
68.854453,0.152744,-0.078568,0.840824,-0.700000,-2.380000,-0.140000
68.858519,0.209840,0.032208,0.958432,-0.980000,0.560000,-0.420000
68.862585,0.224480,0.031720,1.138016,-1.540000,0.280000,0.140000
68.866651,0.129320,0.011224,0.765672,0.700000,-4.900000,-0.420000
68.870717,0.245464,0.109312,1.117032,0.000000,1.960000,-0.700000
68.874783,0.205448,-0.117608,0.981856,-2.660000,0.280000,-0.280000
68.878849,0.156160,0.044408,0.862296,1.120000,-4.480000,-0.420000
68.882914,0.272792,0.120536,1.157536,-0.420000,3.360000,0.000000
68.886980,0.219600,-0.113216,0.938424,-3.220000,-1.400000,0.140000
68.891046,0.168848,0.124440,0.881816,2.100000,-5.040000,-0.280000
68.895112,0.210816,0.046848,1.154608,-1.540000,3.500000,-0.980000
68.899178,0.270840,-0.144936,0.806664,-3.220000,-1.400000,-0.280000
68.903244,0.150304,0.166408,1.043832,2.380000,-1.680000,0.140000
68.907310,0.170312,0.024400,1.052616,-0.980000,1.820000,-0.980000
68.911376,0.252784,-0.048800,0.877424,-1.820000,-1.260000,0.000000
68.915442,0.227896,0.136640,1.105320,0.840000,-0.140000,-0.140000
68.919507,0.204960,-0.030256,0.963800,-1.540000,0.140000,-0.840000
68.923573,0.194712,-0.024400,0.951112,-1.400000,-0.140000,-0.840000
68.927639,0.193248,0.020496,1.090680,0.280000,0.140000,0.140000
68.931705,0.201056,-0.048312,0.806664,-0.280000,-1.540000,-0.560000
68.935771,0.223016,0.094672,1.093608,-0.980000,1.820000,0.000000
68.939837,0.166408,0.020008,1.003816,-1.260000,0.280000,0.420000
68.943903,0.170800,0.009760,0.828136,0.560000,-3.920000,-0.420000
68.947969,0.246440,0.081496,1.149240,0.000000,1.680000,-1.680000
68.952035,0.235216,-0.076128,0.934520,-3.500000,-2.520000,0.420000
68.956101,0.209840,0.137616,0.967216,0.560000,-2.240000,-0.140000
68.960166,0.178608,0.043920,1.156072,0.000000,2.240000,-0.700000
68.964232,0.250832,-0.125416,0.768600,-2.240000,-2.240000,0.140000
68.968298,0.169336,0.111752,1.018944,1.260000,0.280000,0.000000
68.972364,0.182512,-0.012200,1.076528,-0.840000,1.960000,-1.260000
68.976430,0.245952,-0.020496,0.805688,-1.820000,-3.220000,0.000000
68.980496,0.194224,0.105408,1.141432,0.420000,2.800000,-0.280000
68.984562,0.218624,-0.051728,0.978928,-0.420000,-0.560000,-1.120000
68.988628,0.218136,0.052216,0.890600,-0.700000,0.140000,0.000000
68.992694,0.217160,0.032696,1.144848,-0.840000,3.220000,0.000000
68.996759,0.161040,-0.009272,0.862296,-1.680000,-1.400000,-0.420000
69.000825,0.155672,0.075640,1.008208,0.700000,-1.260000,-0.140000
69.004891,0.258640,-0.033672,1.088728,-1.400000,1.540000,-0.700000
69.008957,0.212768,-0.041480,0.839848,-0.560000,-4.900000,-0.420000
69.013023,0.093696,0.166408,1.122400,0.840000,0.700000,-0.140000
69.017089,0.279624,-0.012200,1.011624,-1.820000,-0.700000,-0.420000
69.021155,0.230336,-0.037576,0.838384,0.560000,-4.200000,0.000000
69.025221,0.195688,0.097112,1.127768,-0.280000,0.280000,-0.980000
69.029287,0.238144,-0.045384,0.886696,-3.500000,-0.560000,0.560000
69.033353,0.223992,0.014152,1.061888,-0.140000,0.560000,-0.140000
69.037418,0.143960,0.052216,1.025776,1.400000,0.280000,-0.140000
69.041484,0.201056,-0.080520,0.755912,-1.400000,-2.800000,-0.700000
69.045550,0.229360,0.092720,1.131672,0.140000,-0.280000,0.000000
69.049616,0.156648,0.025864,0.973072,0.000000,-2.240000,-0.840000
69.053682,0.188856,0.055144,0.866688,-0.560000,-0.420000,-0.840000
69.057748,0.332816,0.041480,1.215120,-2.240000,2.800000,-0.420000
69.061814,0.141032,-0.031720,0.915488,-1.540000,-2.660000,0.700000
69.065880,0.142984,0.137128,0.992592,1.680000,-2.240000,0.140000
69.069946,0.262544,-0.055144,1.110200,-2.520000,2.940000,-0.420000
69.074011,0.224480,-0.105896,0.785192,-0.980000,-6.580000,-0.140000
69.078077,0.162992,0.148840,1.008696,1.960000,-0.280000,-0.560000
69.082143,0.218136,-0.029280,1.118984,-2.940000,3.220000,-0.840000
69.086209,0.169824,-0.039040,0.740296,-0.840000,-4.620000,0.000000
69.090275,0.204472,0.137128,1.123864,3.080000,-1.540000,-0.420000
69.094341,0.251808,-0.066856,0.994544,-4.060000,1.820000,-0.840000
69.098407,0.227408,0.060512,0.944768,-1.260000,-3.080000,0.560000
69.102473,0.170312,0.111752,1.080432,0.560000,0.560000,-0.840000
69.106539,0.203984,-0.082472,0.902312,-2.380000,-1.400000,-0.560000
69.110605,0.243024,-0.010248,0.982832,0.140000,-1.960000,0.280000
69.114670,0.153232,0.073200,1.061888,0.840000,-0.560000,0.140000
69.118736,0.187880,0.010248,0.833504,-1.260000,-1.680000,-1.120000
69.122802,0.286456,0.073200,1.139480,-1.540000,-0.140000,0.280000
69.126868,0.173728,0.016104,0.947208,-0.980000,-1.260000,-0.280000
69.130934,0.186904,0.040992,0.947696,0.000000,-1.960000,-0.700000
69.135000,0.265960,0.013176,1.155584,-1.260000,2.660000,-0.420000
69.139066,0.152744,-0.121512,0.788608,-0.700000,-2.520000,0.420000
69.143132,0.228872,0.075640,1.028704,1.820000,-0.700000,-1.120000
69.147198,0.244976,0.013176,1.077992,-1.540000,1.960000,0.000000
69.151263,0.182024,0.001952,0.742736,-1.120000,-2.240000,-0.280000
69.155329,0.184464,0.131272,1.098976,1.540000,-0.280000,-1.120000
69.159395,0.195688,-0.043432,1.040416,-3.080000,0.840000,-0.700000
69.163461,0.211792,0.019520,0.860344,-0.980000,-2.240000,1.120000
69.167527,0.213256,0.104920,1.212680,0.980000,1.260000,-0.560000
69.171593,0.165920,-0.058072,0.960384,-1.680000,-2.660000,-1.120000
69.175659,0.292312,0.037576,0.865712,-0.140000,-3.920000,0.000000
69.179725,0.231312,0.040992,1.148752,-0.840000,1.820000,-0.420000
69.183791,0.108824,-0.014152,0.896456,-1.260000,-2.520000,-0.840000
69.187857,0.182024,0.063440,0.964776,0.700000,-1.260000,0.280000
69.191922,0.231800,-0.080520,1.000888,-1.120000,0.140000,0.280000
69.195988,0.175192,0.006344,0.827160,0.000000,-4.340000,0.140000
69.200054,0.223016,0.172752,1.177544,-0.420000,1.260000,-0.560000
69.204120,0.261568,-0.073688,0.987224,-3.220000,0.280000,-0.280000
69.208186,0.203984,0.064904,0.907192,1.120000,-3.220000,-0.560000
69.212252,0.149328,0.031232,1.056032,0.560000,0.280000,-0.840000
69.216318,0.274256,-0.095160,0.916464,-3.500000,-1.540000,0.000000
69.220384,0.212768,0.096624,1.044320,1.540000,-1.820000,0.840000
69.224450,0.094184,0.076616,1.045784,0.560000,0.280000,-0.980000
69.228515,0.267424,-0.085400,0.779824,-2.520000,-2.520000,-0.840000
69.232581,0.222528,0.079544,1.094096,0.140000,-0.560000,-0.140000
69.236647,0.184464,0.050264,1.017968,-0.560000,-2.380000,-0.700000
69.240713,0.252296,0.003416,0.917928,-0.840000,-0.560000,-0.140000
69.244779,0.194224,0.021960,1.139968,-0.280000,1.680000,-0.140000
69.248845,0.155672,-0.030256,0.840824,-0.420000,-3.500000,0.000000
69.252911,0.250344,0.038552,0.945256,-0.280000,-0.980000,-0.700000
69.256977,0.264008,0.037088,1.144848,-1.820000,1.260000,0.000000
69.261043,0.145912,-0.020984,0.781776,-0.840000,-3.920000,-0.560000
69.265109,0.185440,0.145912,1.125816,0.700000,1.820000,-0.280000
69.269174,0.253272,-0.077104,1.042368,-2.100000,-0.140000,0.000000
69.273240,0.152744,-0.002928,0.756888,0.140000,-5.460000,0.140000
69.277306,0.230336,0.147376,1.168272,0.420000,-0.840000,-0.840000
69.281372,0.271328,-0.075152,1.025288,-3.360000,-0.280000,-0.980000
69.285438,0.178608,0.043920,0.848632,0.000000,-2.240000,0.140000
69.289504,0.224480,0.044408,1.162904,0.280000,2.520000,-0.980000
69.293570,0.207400,-0.109800,0.806176,-1.540000,-1.260000,0.140000
69.297636,0.157624,0.093696,1.013576,1.260000,-1.400000,0.700000
69.301702,0.170800,0.050752,1.076040,-0.280000,0.420000,-1.260000
69.305767,0.223992,-0.040992,0.824232,-1.960000,-2.940000,-0.280000
69.309833,0.269376,0.118096,1.083360,-0.420000,-0.560000,-0.140000
69.313899,0.182512,-0.028304,1.047736,-1.540000,-1.120000,-0.840000
69.317965,0.164456,0.067344,0.933056,0.140000,-3.360000,-0.280000
69.322031,0.276208,0.035624,1.071160,-0.700000,1.540000,0.280000
69.326097,0.226920,-0.079544,0.919392,-1.820000,-0.420000,0.000000
69.330163,0.175680,0.065392,0.909632,1.260000,-3.220000,-0.560000
69.334229,0.225456,0.020008,1.100928,-1.680000,1.680000,-0.840000
69.338295,0.252296,-0.084424,0.818864,-1.820000,0.000000,-0.280000
69.342361,0.130296,0.125416,1.057008,2.240000,0.000000,0.000000
69.346426,0.154208,-0.004880,0.998936,-1.400000,0.560000,-0.840000
69.350492,0.250344,-0.018056,0.911584,-1.960000,-2.100000,0.420000
69.354558,0.186904,0.143472,1.129720,1.680000,-1.680000,-0.420000
69.358624,0.190320,0.003416,0.949160,-1.260000,-2.100000,-0.280000
69.362690,0.296216,-0.030256,0.929152,-1.960000,-1.120000,-0.560000
69.366756,0.187880,0.038552,1.196576,-0.560000,0.000000,-0.280000
69.370822,0.161040,0.010736,0.843264,0.140000,-4.340000,-0.420000
69.374888,0.246928,0.014152,0.987224,0.000000,0.420000,0.000000
69.378954,0.173728,-0.021472,1.055056,-1.960000,-0.980000,-0.700000
69.383019,0.220088,0.025376,0.726144,0.280000,-5.460000,-0.560000
69.387085,0.270352,0.095648,1.160952,0.000000,3.360000,-0.840000
69.391151,0.166408,-0.085888,0.974536,-2.800000,0.700000,0.140000
69.395217,0.162504,0.091744,0.820816,1.540000,-3.920000,-0.140000
69.399283,0.238632,0.109800,1.251232,-0.700000,3.220000,-0.420000
69.403349,0.220576,-0.089792,0.904752,-3.360000,-1.820000,-0.700000
69.407415,0.243512,0.075640,0.894016,1.120000,-4.060000,0.140000
69.411481,0.165432,0.053192,1.174616,-1.400000,2.520000,-0.980000
69.415547,0.217648,-0.114680,0.827160,-2.800000,-1.680000,-0.420000
69.419613,0.221064,0.089304,1.011136,2.660000,-2.380000,-0.140000
69.423678,0.189832,0.025376,1.066768,-1.540000,1.960000,-0.980000
69.427744,0.203984,-0.017080,0.884256,-1.960000,-2.800000,-0.280000
69.431810,0.200568,0.123464,1.023824,1.820000,-1.540000,0.280000
69.435876,0.242536,-0.040992,1.006256,-2.240000,-0.560000,-0.560000
69.439942,0.220576,-0.008296,0.870104,-1.120000,-2.240000,-0.560000
69.444008,0.233264,0.065880,1.159000,-0.840000,0.420000,0.280000
69.448074,0.171288,-0.039528,0.867176,-1.120000,-0.700000,-0.280000
69.452140,0.204960,0.088816,0.967704,0.560000,-1.120000,-1.120000
69.456206,0.270352,-0.008296,1.061888,-1.400000,0.700000,0.140000
69.460271,0.153232,-0.029768,0.850096,-1.260000,-1.960000,-0.420000
69.464337,0.171776,0.136152,1.134112,1.680000,0.560000,-0.840000
69.468403,0.236192,-0.056120,0.942328,-2.940000,-0.280000,0.000000
69.472469,0.216672,0.015616,0.866200,-1.400000,-1.540000,0.280000
69.476535,0.228872,0.128832,1.232200,0.980000,0.980000,-0.280000
69.480601,0.173240,-0.084424,0.844240,-2.240000,-1.120000,0.000000
69.484667,0.245952,-0.004880,0.965752,0.280000,-0.840000,0.140000
69.488733,0.160552,0.007808,1.093120,0.840000,0.280000,-1.260000
69.492799,0.230824,-0.026840,0.797392,-0.980000,-2.380000,-0.280000
69.496864,0.218136,0.122000,1.076040,-1.400000,1.540000,-0.140000
69.500930,0.183000,0.053192,1.058960,-0.560000,-0.420000,-0.280000
69.504996,0.168360,0.024400,0.805688,-0.140000,-4.480000,0.000000
69.509062,0.327448,0.040992,1.194624,-1.400000,1.820000,-0.420000
69.513128,0.188856,-0.112728,0.915000,-1.540000,-0.840000,-0.420000
69.517194,0.179584,0.140056,0.936960,0.980000,-1.540000,-0.140000
69.521260,0.267912,-0.009272,1.119960,-1.120000,4.060000,-0.840000
69.525326,0.153720,-0.096136,0.842776,-1.960000,-2.380000,-0.420000
69.529392,0.192272,0.155184,0.943304,2.380000,-3.220000,-0.560000
69.533458,0.220088,-0.033672,1.112640,-3.640000,4.480000,-0.280000
69.537523,0.196176,-0.027816,0.814960,-0.560000,-2.660000,0.420000
69.541589,0.177144,0.150792,1.101416,2.380000,-1.260000,0.000000
69.545655,0.199104,-0.063440,0.994544,-3.220000,0.280000,-1.820000
69.549721,0.278648,0.036112,0.961360,-1.400000,-3.500000,0.280000
69.553787,0.210328,0.098576,1.135088,1.260000,-0.280000,-0.420000
69.557853,0.185928,-0.048312,0.901336,-0.980000,-1.400000,-0.980000
69.561919,0.274256,-0.012688,0.914024,-0.700000,-0.420000,-0.280000
69.565985,0.162016,0.052216,1.047248,-1.120000,1.120000,0.140000
69.570051,0.185440,-0.015128,0.803248,0.140000,-1.120000,-0.280000
69.574116,0.223504,0.086864,1.118984,-0.560000,2.240000,-0.420000
69.578182,0.191784,-0.029768,1.010160,-1.820000,-0.280000,-0.140000
69.582248,0.224480,0.043432,0.862784,0.420000,-2.100000,-0.980000
69.586314,0.279136,0.045872,1.198528,-0.140000,3.500000,0.000000
69.590380,0.147864,-0.064904,0.847168,-2.520000,0.140000,0.280000
69.594446,0.206424,0.132736,0.982344,1.680000,-2.800000,-0.420000
69.598512,0.172264,0.025376,1.124840,-1.400000,1.820000,-1.260000
69.602578,0.285480,-0.091256,0.840336,-2.100000,-3.220000,0.280000
69.606644,0.207400,0.076128,1.014064,1.540000,0.420000,-0.700000
69.610710,0.133224,0.006832,1.054568,-1.400000,0.840000,-1.400000
69.614775,0.222528,0.008296,0.793000,-2.240000,-3.220000,0.560000
69.618841,0.233752,0.098088,1.157048,0.840000,2.380000,0.280000
69.622907,0.213256,-0.020008,0.968192,-0.700000,-2.240000,-1.260000
69.626973,0.253760,0.023912,0.903288,-0.700000,-1.400000,0.000000
69.631039,0.212768,-0.008784,1.148752,-1.260000,5.040000,-0.140000
69.635105,0.158600,-0.008296,0.815448,-0.700000,-1.820000,-0.140000
69.639171,0.191784,0.092232,0.963312,0.420000,-0.840000,-0.420000
69.643237,0.265960,-0.055144,1.100928,-2.380000,2.240000,-0.560000
69.647303,0.214232,-0.019032,0.823256,1.260000,-3.640000,0.000000
69.651368,0.163968,0.158600,1.106296,0.840000,4.060000,-0.420000
69.655434,0.238632,-0.038552,1.023336,-3.780000,2.520000,-0.980000
69.659500,0.213744,0.054656,0.853512,0.140000,-2.380000,-0.420000
69.663566,0.232776,0.083936,1.140456,0.980000,1.120000,-0.560000
69.667632,0.222528,-0.119072,0.875472,-2.940000,1.400000,-0.280000
69.671698,0.241072,0.059048,0.994056,-0.280000,1.820000,0.420000
69.675764,0.161040,0.056608,1.083360,0.140000,3.640000,-0.280000
69.679830,0.164944,-0.070272,0.822768,-0.980000,0.000000,-0.700000
69.683896,0.215208,0.058560,1.027728,0.140000,1.400000,-0.420000
69.687962,0.198616,0.034648,1.005768,-0.980000,-0.420000,-1.260000
69.692027,0.204960,0.003904,0.874984,-0.700000,0.000000,-0.700000
69.696093,0.254248,0.111752,1.229760,-0.560000,4.340000,0.700000
69.700159,0.165920,-0.039528,0.899384,-1.120000,0.560000,-0.280000
69.704225,0.199592,0.065880,0.926712,0.000000,-1.120000,-0.980000
69.708291,0.254736,-0.006832,1.109712,-1.680000,2.940000,-0.700000
69.712357,0.218624,-0.072712,0.861808,-1.820000,-0.560000,0.140000
69.716423,0.193736,0.104432,0.999424,2.240000,1.680000,-0.420000
69.720489,0.187880,-0.039528,1.083848,-1.540000,4.760000,-0.840000
69.724555,0.211304,-0.044408,0.772992,-0.280000,-2.240000,0.140000
69.728620,0.189832,0.188368,1.087264,2.100000,1.400000,-0.700000
69.732686,0.160552,-0.014640,1.012112,-2.800000,1.820000,-1.540000
69.736752,0.280600,0.006832,0.897432,-1.540000,-1.820000,0.420000
69.740818,0.224968,0.083448,1.149240,1.120000,4.340000,0.140000
69.744884,0.175192,-0.073688,0.969168,-2.100000,1.540000,-0.560000
69.748950,0.209840,0.036600,0.876936,-0.980000,0.140000,-0.280000
69.753016,0.228872,0.054656,1.129720,-0.140000,3.360000,-0.420000
69.757082,0.184464,-0.061000,0.824720,-0.700000,-1.540000,-0.700000
69.761148,0.222040,0.091744,1.030656,0.140000,1.960000,-0.140000
69.765214,0.173240,-0.013664,1.031632,-2.380000,4.340000,-0.420000
69.769279,0.179096,-0.009272,0.834968,-0.420000,-1.820000,0.000000
69.773345,0.205936,0.136152,1.124352,1.960000,2.100000,-0.560000
69.777411,0.234240,-0.053192,0.979416,-3.360000,2.660000,-0.280000
69.781477,0.229360,0.044896,0.914512,0.280000,-1.540000,-0.980000
69.785543,0.179096,0.107848,1.193160,0.000000,1.680000,-0.980000
69.789609,0.217160,-0.089792,0.846680,-1.540000,1.820000,-0.140000
69.793675,0.241072,0.009760,0.969656,0.700000,0.000000,0.280000
69.797741,0.161528,0.045872,1.118496,0.000000,3.220000,-1.120000
69.801807,0.186416,-0.072712,0.810080,-1.540000,0.280000,0.140000
69.805872,0.206912,0.105896,1.047248,0.420000,1.540000,-0.420000
69.809938,0.204960,0.000976,0.979904,0.000000,-0.980000,-0.700000
69.814004,0.212280,0.060512,0.846680,-0.980000,-0.560000,-0.560000
69.818070,0.243024,0.077592,1.220000,-0.840000,3.640000,0.140000
69.822136,0.177144,-0.061976,0.949160,-0.980000,0.000000,-0.560000
69.826202,0.212280,0.093696,0.922320,0.140000,-0.700000,-0.140000
69.830268,0.259128,-0.001464,1.107760,-1.960000,4.760000,-0.700000
69.834334,0.181536,-0.099064,0.796904,-0.420000,-1.260000,0.140000
69.838400,0.147376,0.126880,1.003328,2.380000,0.000000,-0.560000
69.842466,0.212768,-0.030256,1.120936,-2.800000,6.300000,-0.980000
69.846531,0.186904,-0.046848,0.847168,-1.120000,-0.980000,-0.280000
69.850597,0.213744,0.127856,1.023336,3.360000,-0.280000,0.000000
69.854663,0.207888,-0.022936,1.052616,-3.220000,3.360000,-0.560000
69.858729,0.177632,0.056608,0.883280,-1.820000,-2.520000,-0.280000
69.862795,0.248392,0.119560,1.151680,0.980000,-0.420000,-0.280000
69.866861,0.183488,-0.048800,0.989664,-2.660000,2.100000,-0.980000
69.870927,0.263520,-0.048800,0.881328,-0.140000,-0.700000,-0.280000
69.874993,0.165920,0.063928,1.100928,-0.280000,3.220000,0.140000
69.879059,0.169336,-0.049776,0.893040,-0.700000,-1.540000,-0.560000
69.883124,0.220088,0.065880,0.954040,0.980000,0.140000,-0.700000
69.887190,0.209840,0.000000,1.021872,-1.820000,1.960000,0.140000
69.891256,0.148352,0.017080,0.804224,-0.560000,-1.120000,-1.400000
69.895322,0.233752,0.121512,1.221464,0.140000,1.960000,-0.420000
69.899388,0.210328,-0.060024,0.948672,-2.240000,1.260000,0.420000
69.903454,0.223992,0.070760,0.918904,0.560000,-1.540000,0.000000
69.907520,0.165432,0.066368,1.147288,-0.140000,2.520000,-0.840000
69.911586,0.204960,-0.083936,0.844728,-3.500000,-1.400000,-0.140000
69.915652,0.263032,0.063440,1.017480,0.840000,-0.700000,0.140000
69.919718,0.132736,0.022936,1.136064,0.280000,2.520000,-1.260000
69.923783,0.169824,-0.097600,0.782752,-1.680000,-3.220000,-0.560000
69.927849,0.299144,0.102968,1.042368,1.120000,1.820000,0.140000
69.931915,0.123952,0.015128,1.029192,-0.560000,1.540000,-0.700000
69.935981,0.198128,0.030256,0.783240,-0.840000,-1.820000,-0.140000
69.940047,0.233752,0.085888,1.203408,-0.560000,2.800000,-0.140000
69.944113,0.177144,-0.035136,0.960872,-1.260000,-0.980000,-1.400000
69.948179,0.208376,0.055144,0.848144,0.000000,-2.240000,-0.140000
69.952245,0.304024,0.002928,1.228784,-1.820000,5.880000,-0.140000
69.956311,0.175680,-0.028792,0.881816,-0.700000,-2.100000,-0.280000
69.960376,0.121512,0.139080,0.946232,1.540000,-0.560000,-0.280000
69.964442,0.272304,-0.052704,1.072136,-3.080000,3.920000,-1.540000
69.968508,0.157624,-0.042944,0.848144,-2.380000,-2.940000,0.420000
69.972574,0.163968,0.132736,1.066768,3.360000,0.280000,-0.420000
69.976640,0.211304,-0.061000,1.036512,-2.520000,2.800000,-0.700000
69.980706,0.228872,-0.010248,0.840824,-2.100000,-2.800000,0.560000
69.984772,0.177632,0.181048,1.061400,1.120000,0.420000,-0.280000
69.988838,0.232288,-0.062952,1.048224,-2.240000,1.400000,-0.700000
69.992904,0.209840,-0.013664,0.907680,-0.560000,-1.820000,-0.140000
69.996970,0.248880,0.078080,1.105320,0.840000,1.120000,-0.560000
70.001035,0.147376,-0.071736,0.868640,-2.240000,0.980000,-0.700000
70.005101,0.215696,0.085400,1.017480,-0.280000,1.400000,0.280000
70.009167,0.176168,0.017568,1.027728,-0.560000,1.960000,0.280000
70.013233,0.195200,-0.014640,0.867176,-0.420000,-1.260000,-1.120000
70.017299,0.221064,0.071248,1.090192,0.000000,1.120000,-0.840000
70.021365,0.215696,-0.019520,0.963800,-1.820000,-0.140000,0.140000
70.025431,0.176168,0.048312,0.886208,0.840000,0.000000,-0.840000
70.029497,0.207888,0.054168,1.188280,-0.280000,2.800000,-0.420000
70.033563,0.199104,-0.043432,0.844728,-2.380000,-0.980000,0.280000
70.037628,0.231800,0.063440,0.988688,0.560000,-0.420000,-0.420000
70.041694,0.147376,0.011224,1.094584,-1.260000,1.680000,-1.400000
70.045760,0.187880,-0.055632,0.817400,-1.960000,-2.520000,0.280000
70.049826,0.228872,0.108336,1.122888,0.980000,2.240000,0.280000
70.053892,0.188368,-0.016592,1.074088,-0.280000,0.280000,-0.700000
70.057958,0.174704,0.013176,0.765672,-1.260000,-3.220000,-0.700000
70.062024,0.268888,0.096136,1.172176,-1.260000,2.100000,-0.140000
70.066090,0.177632,-0.052216,0.958920,-0.700000,-2.240000,-0.420000
70.070156,0.180560,0.046848,0.856440,0.840000,-1.120000,-0.140000
70.074221,0.264984,0.021960,1.206336,-1.680000,4.060000,-0.280000
70.078287,0.160552,-0.050752,0.839360,-2.100000,-1.540000,-0.280000
70.082353,0.169824,0.134200,0.948184,1.540000,-0.700000,-0.280000
70.086419,0.250832,-0.039528,1.104344,-2.380000,2.520000,-0.560000
70.090485,0.181048,-0.050264,0.820816,-0.840000,-4.200000,-0.840000
70.094551,0.152256,0.159576,1.107760,1.820000,0.560000,-0.560000
70.098617,0.241560,-0.057584,1.057496,-2.940000,3.640000,-0.840000
70.102683,0.212280,0.005856,0.855952,-0.140000,-2.380000,0.700000
70.106749,0.130296,0.141032,1.061400,1.400000,-0.700000,-0.840000
70.110815,0.250344,-0.087840,0.933544,-2.520000,-0.140000,-0.840000
70.114880,0.306952,-0.002440,0.936960,-0.560000,-0.980000,0.280000
70.118946,0.152256,0.098088,1.118008,0.420000,3.500000,-0.280000
70.123012,0.156160,-0.048312,0.848144,-1.960000,2.380000,-0.700000
70.127078,0.253760,0.046848,1.033096,0.140000,0.980000,0.140000
70.131144,0.156648,0.033184,1.000400,0.980000,-0.840000,-0.560000
70.135210,0.131760,0.010248,0.865224,-1.400000,-0.140000,-1.120000
70.139276,0.267424,0.080032,1.195112,-1.400000,1.820000,-0.280000
70.143342,0.157136,-0.033184,0.928176,-1.260000,-0.560000,0.420000
70.147408,0.211304,0.058072,0.975512,1.120000,-1.400000,-0.700000
70.151473,0.190808,0.023424,1.086288,-1.680000,1.820000,-1.400000
70.155539,0.239120,-0.063440,0.873520,-1.960000,-3.920000,0.280000
70.159605,0.186904,0.094672,0.961848,2.100000,0.420000,-0.140000
70.163671,0.195688,-0.012688,1.096048,-1.400000,4.200000,-0.980000
70.167737,0.242048,-0.054656,0.766160,-1.680000,-2.100000,0.700000
70.171803,0.127368,0.151280,1.122400,1.400000,1.400000,-0.840000
70.175869,0.210328,-0.023424,1.030656,-0.700000,1.260000,-0.420000
70.179935,0.231312,0.001464,0.851560,-1.820000,-2.380000,0.280000
70.184001,0.199592,0.118584,1.152656,-0.700000,3.360000,-0.980000
70.188066,0.174216,-0.026352,0.989176,-1.960000,-0.700000,-0.420000
70.192132,0.217648,0.006344,0.841312,0.280000,-1.540000,0.420000
70.196198,0.273768,0.019520,1.193160,-0.700000,3.920000,0.280000
70.200264,0.131272,-0.069296,0.834480,-0.560000,-1.120000,-1.680000
70.204330,0.193736,0.067344,0.960384,0.840000,-0.560000,-0.560000
70.208396,0.228384,0.013664,1.090192,-2.100000,4.060000,-0.560000
70.212462,0.169824,0.021472,0.873520,-0.840000,-3.500000,0.140000
70.216528,0.141520,0.149328,1.035048,1.540000,-0.980000,-0.560000
70.220594,0.276696,-0.070760,1.059936,-2.660000,2.240000,-0.840000
70.224660,0.198616,-0.015128,0.851560,-0.420000,-2.800000,0.000000
70.228725,0.125904,0.142008,1.127768,0.700000,0.840000,-0.560000
70.232791,0.257664,-0.088328,1.000400,-3.500000,1.120000,-0.140000
70.236857,0.225944,0.027816,0.917440,0.000000,-1.400000,0.140000
70.240923,0.183976,0.080032,1.090192,1.400000,-0.280000,-0.700000
70.244989,0.186416,-0.100040,0.832040,-3.500000,0.000000,-0.980000
70.249055,0.223992,0.071248,1.026264,-0.840000,1.120000,0.280000
70.253121,0.150304,0.070272,1.031144,0.560000,-0.140000,0.560000
70.257187,0.201056,0.001464,0.866688,-0.560000,-0.560000,-0.700000
70.261253,0.230824,0.024400,1.118008,-0.560000,1.120000,-0.700000
70.265318,0.181048,0.016592,0.939888,-1.960000,-1.960000,-0.560000
70.269384,0.173728,0.083448,0.946232,0.420000,-1.260000,-0.280000
70.273450,0.285968,0.018056,1.161440,-0.980000,3.220000,-0.700000
70.277516,0.191296,-0.093696,0.855952,-1.960000,-1.260000,0.000000
70.281582,0.159088,0.095160,0.982832,1.260000,0.000000,-0.840000
70.285648,0.216184,-0.024400,1.102880,-1.680000,3.360000,-0.560000
70.289714,0.116632,-0.046360,0.799832,-0.980000,-3.780000,0.420000
70.293780,0.175192,0.122488,1.033584,1.960000,-1.400000,-0.700000
70.297846,0.248392,-0.003416,1.069696,-3.780000,2.100000,-0.980000
70.301912,0.188368,0.001464,0.857416,-0.980000,-3.640000,0.140000
70.305977,0.232776,0.153232,1.158024,1.120000,1.260000,0.000000
70.310043,0.186904,-0.081496,0.961848,-2.100000,0.140000,-0.840000
70.314109,0.273280,0.024400,0.920856,-1.260000,-2.800000,-0.280000
70.318175,0.174216,0.072712,1.111664,0.700000,2.520000,0.140000
70.322241,0.122976,-0.059048,0.843264,-1.260000,-1.260000,-0.420000
70.326307,0.241072,0.073200,0.985272,-0.140000,-0.700000,-0.280000
70.330373,0.193736,-0.051240,1.040416,-1.680000,1.540000,-0.280000
70.334439,0.171288,0.005856,0.881328,0.700000,-2.240000,-1.260000
70.338505,0.216184,0.132736,1.127768,0.420000,2.800000,-0.840000
70.342570,0.162504,-0.064416,0.974536,-3.640000,-0.560000,-0.560000
70.346636,0.223504,0.099064,0.901824,0.560000,-5.320000,-0.140000
70.350702,0.197152,0.072224,1.112640,-0.140000,1.120000,-0.140000
70.354768,0.246928,-0.079544,0.915488,-3.080000,-0.560000,0.420000
70.358834,0.193248,0.059048,1.016504,1.120000,-1.540000,-0.420000
70.362900,0.142496,0.009760,1.095072,-0.140000,1.400000,-1.260000
70.366966,0.210328,-0.088328,0.748592,-2.660000,-2.800000,-0.980000
70.371032,0.204960,0.125904,1.120936,0.000000,-0.700000,0.280000
70.375098,0.180560,0.059048,1.005280,-0.280000,-0.840000,-0.420000
70.379163,0.247904,-0.010736,0.845704,-1.120000,-0.280000,-0.420000
70.383229,0.232776,0.020984,1.151680,0.000000,1.680000,-0.420000
70.387295,0.144936,-0.046848,0.906216,-1.260000,-1.680000,-0.560000
70.391361,0.235704,0.067832,0.943792,-0.280000,0.700000,-0.560000
70.395427,0.225456,0.027816,1.142896,-2.100000,1.820000,-0.140000
70.399493,0.133224,-0.038552,0.814960,0.560000,-5.180000,-0.140000
70.403559,0.125904,0.114192,1.031144,0.980000,0.560000,-0.700000
70.407625,0.314272,-0.035624,1.061400,-3.220000,0.840000,-0.840000
70.411691,0.144936,0.014640,0.846680,-0.280000,-3.080000,0.140000
70.415757,0.199592,0.185440,1.199016,1.680000,1.400000,-0.560000
70.419822,0.233752,-0.152256,0.925248,-3.220000,1.120000,-0.420000
70.423888,0.185440,0.013664,0.866688,-0.420000,-2.660000,0.420000
70.427954,0.159576,0.081496,1.162904,0.000000,1.540000,-0.700000
70.432020,0.233264,-0.065392,0.867176,-1.820000,-0.840000,-0.280000
70.436086,0.228872,0.053192,0.935984,0.420000,-1.540000,0.140000
70.440152,0.132736,0.040992,1.082872,-0.560000,-0.280000,-0.560000
70.444218,0.189832,0.021960,0.846192,-0.560000,-1.960000,-0.560000
70.448284,0.282064,0.060512,1.148264,-0.140000,0.280000,0.420000
70.452350,0.212768,-0.025864,0.966240,-1.540000,0.140000,-0.560000
70.456415,0.122000,0.086864,0.945744,0.280000,-2.800000,0.000000
70.460481,0.238144,0.036112,1.123376,-0.420000,1.960000,-1.120000
70.464547,0.188368,-0.113216,0.864248,-1.960000,-2.800000,0.000000
70.468613,0.192760,0.091256,0.985272,1.540000,-1.680000,-0.700000
70.472679,0.212768,-0.008296,1.042368,-1.540000,1.820000,-0.140000
70.476745,0.230824,-0.059536,0.875472,-1.120000,-1.120000,0.840000
70.480811,0.114192,0.126392,1.031144,1.820000,-1.120000,-0.700000
70.484877,0.212280,0.006344,1.002840,-2.240000,0.700000,-0.980000
70.488943,0.240584,0.024888,0.852048,-1.960000,-3.640000,0.420000
70.493009,0.241560,0.130784,1.199504,1.260000,0.420000,-0.420000
70.497074,0.175192,-0.088328,0.911096,-1.820000,0.280000,-1.120000
70.501140,0.276696,0.002928,0.977952,-1.960000,1.260000,0.140000
70.505206,0.105408,0.058560,1.112640,0.700000,2.240000,0.140000
70.509272,0.145912,-0.035624,0.802760,1.120000,-4.620000,-0.840000
70.513338,0.239120,0.060512,1.026264,-0.980000,-0.420000,-0.560000
70.517404,0.163480,0.004392,1.103368,-2.240000,0.280000,-0.280000
70.521470,0.165920,0.010736,0.811544,1.120000,-3.780000,-0.560000
70.525536,0.256688,0.105896,1.120936,-0.560000,1.540000,-0.280000
70.529602,0.183000,-0.071248,0.956480,-4.480000,-1.540000,0.140000
70.533667,0.217648,0.110288,0.963800,2.100000,-5.320000,0.140000
70.537733,0.199592,0.017568,1.116056,0.700000,1.400000,-1.260000
70.541799,0.272304,-0.116144,0.857416,-3.780000,-0.560000,-0.140000
70.545865,0.180560,0.129808,0.996496,0.140000,-1.260000,-0.140000
70.549931,0.105408,0.084912,1.094584,0.000000,2.100000,-1.120000
70.553997,0.226432,-0.105896,0.789584,-1.260000,-3.780000,-0.700000
70.558063,0.210816,0.081496,1.098976,0.280000,-1.120000,0.420000
70.562129,0.191296,0.020496,1.035048,-1.120000,-0.420000,-0.560000
70.566195,0.208376,0.021472,0.886696,-1.540000,-0.560000,-0.140000
70.570260,0.209352,0.039528,1.130696,0.000000,-0.280000,-0.420000
70.574326,0.158112,-0.048312,0.852048,-0.840000,-3.640000,-0.840000
70.578392,0.240096,0.035624,0.976488,-0.140000,-0.560000,-0.280000
70.582458,0.272792,0.029280,1.158024,-1.960000,0.700000,0.420000
70.586524,0.130296,-0.029768,0.754448,0.420000,-2.800000,-0.840000
70.590590,0.181048,0.128344,1.067744,0.420000,1.540000,-1.120000
70.594656,0.236680,-0.042944,1.045296,-3.220000,-0.280000,0.000000
70.598722,0.178120,0.044408,0.899384,0.980000,-3.920000,0.140000
70.602788,0.181048,0.107848,1.133624,1.260000,0.280000,-1.260000
70.606854,0.268888,-0.089792,0.931592,-4.620000,-1.820000,0.280000
70.610919,0.202520,0.070760,0.932080,0.280000,-1.400000,-0.280000
70.614985,0.174704,0.033184,1.153144,1.260000,1.120000,-0.980000
70.619051,0.198128,-0.112728,0.750056,-2.940000,-1.680000,-0.840000
70.623117,0.144936,0.081984,1.033096,-0.420000,-0.560000,-0.140000
70.627183,0.188856,0.028792,1.065792,0.420000,-1.540000,-0.560000
70.631249,0.247416,0.019032,0.867664,-0.140000,-2.100000,0.700000
70.635315,0.214232,0.064904,1.137040,-0.420000,1.120000,-0.560000
70.639381,0.191784,0.003904,0.962824,-1.960000,-2.940000,-0.980000
70.643447,0.179096,0.061488,0.916464,-0.140000,-2.940000,-0.420000
70.647512,0.268400,-0.011224,1.162416,-1.120000,1.540000,-0.280000
70.651578,0.230824,-0.053680,0.807152,-1.120000,-4.200000,0.280000
70.655644,0.114192,0.124928,1.034072,1.120000,-0.280000,-0.140000
70.659710,0.224480,-0.021960,1.055056,-1.260000,1.960000,-0.980000
70.663776,0.223016,-0.063440,0.811056,-0.980000,-2.380000,0.000000
70.667842,0.142008,0.173728,1.104832,1.540000,0.420000,-0.980000
70.671908,0.206912,-0.055632,0.985272,-4.340000,0.140000,-0.700000
70.675974,0.245464,0.012200,0.892552,-0.700000,-3.080000,0.280000
70.680040,0.137128,0.060024,1.100928,0.140000,0.140000,-0.980000
70.684106,0.192760,-0.061000,0.950136,-2.100000,-0.980000,0.280000
70.688171,0.285480,0.015616,0.966728,0.280000,-1.680000,0.280000
70.692237,0.175192,0.082960,1.073112,1.120000,-1.400000,-0.420000
70.696303,0.135176,0.018056,0.806664,-1.540000,-1.960000,-1.260000
70.700369,0.277184,0.080032,1.133624,-0.560000,0.140000,-0.420000
70.704435,0.156160,-0.033184,0.990152,-1.820000,-0.980000,-0.840000
70.708501,0.206424,0.060512,0.970144,0.140000,-4.060000,0.000000
70.712567,0.249856,0.038064,1.089704,-1.120000,2.240000,-0.700000
70.716633,0.213256,-0.080520,0.852048,-1.680000,-3.080000,0.000000
70.720699,0.185440,0.073200,0.969168,1.260000,-1.680000,-0.700000
70.724764,0.231312,0.008296,1.111176,-1.540000,2.240000,-0.560000
70.728830,0.169336,-0.066856,0.760792,-1.260000,-1.960000,0.140000
70.732896,0.119560,0.110776,1.048712,1.680000,-1.400000,-1.260000
70.736962,0.220576,0.000976,1.074088,-2.800000,0.000000,-0.140000
70.741028,0.234240,0.038064,0.887184,-1.120000,-2.940000,0.560000
70.745094,0.214720,0.129808,1.189256,0.980000,-0.420000,-0.420000
70.749160,0.181048,-0.071736,0.902800,-2.380000,-1.680000,-0.840000
70.753226,0.290848,0.009272,0.928664,-0.840000,-2.800000,0.140000
70.757292,0.172752,0.056608,1.134112,0.420000,1.260000,-0.560000
70.761357,0.135664,-0.052704,0.854976,0.140000,-3.780000,-0.700000
70.765423,0.228872,0.088816,0.955504,0.140000,0.140000,-0.420000
70.769489,0.203496,-0.029280,1.077504,-2.100000,0.000000,0.000000
70.773555,0.155672,0.032696,0.832528,-0.140000,-4.340000,-0.840000
70.777621,0.253760,0.123464,1.148752,-1.120000,0.700000,0.000000
70.781687,0.201056,-0.126880,0.950624,-2.380000,-0.700000,0.280000
70.785753,0.181048,0.072712,0.919392,2.240000,-5.040000,-0.280000
70.789819,0.218624,0.040504,1.175592,-0.700000,3.080000,-0.280000
70.793885,0.209840,-0.083448,0.853024,-3.220000,-2.100000,-0.420000
70.797951,0.192272,0.134200,0.983320,2.100000,-5.460000,-0.560000
70.802016,0.164456,0.040016,0.989176,-1.120000,-0.280000,-0.840000
70.806082,0.262544,-0.043920,0.883768,-2.940000,-1.820000,0.000000
70.810148,0.168360,0.104432,1.157048,1.120000,-0.840000,-0.420000
70.814214,0.173240,-0.037088,0.962824,-0.840000,-1.260000,-0.840000
70.818280,0.257176,-0.035624,0.856928,-1.120000,-1.680000,0.140000
70.822346,0.212280,0.050264,1.132160,-0.560000,0.280000,-0.420000
70.826412,0.220576,0.023424,0.879864,-0.700000,-3.920000,-0.420000
70.830478,0.183488,0.051728,1.021872,-0.840000,0.980000,-0.980000
70.834544,0.220088,-0.006344,1.073112,-0.700000,1.120000,0.420000
70.838609,0.129808,-0.040992,0.729072,0.140000,-4.760000,0.140000
70.842675,0.162504,0.140056,1.194136,-0.140000,1.680000,-0.700000
70.846741,0.261080,-0.027328,0.985760,-2.940000,-3.080000,-0.280000
70.850807,0.211304,0.056120,0.883280,0.560000,-4.620000,0.000000
70.854873,0.247904,0.067832,1.160952,0.560000,2.100000,-0.980000
70.858939,0.244000,-0.170312,0.854000,-3.500000,-1.120000,-0.140000
70.863005,0.164944,0.166896,0.988688,1.120000,-1.260000,-0.140000
70.867071,0.164944,0.039528,1.088240,-0.700000,1.820000,-0.420000
70.871137,0.237168,-0.095648,0.773968,-1.820000,-2.520000,0.140000
70.875202,0.195200,0.119072,1.096536,0.840000,-1.260000,0.000000
70.879268,0.164944,-0.006832,1.065792,-0.980000,0.140000,-1.540000
70.883334,0.215696,0.022448,0.894016,-1.820000,-1.680000,-0.280000
70.887400,0.244488,0.049288,1.094096,0.980000,-0.840000,0.700000
70.891466,0.162016,-0.052704,0.847168,-1.120000,-1.540000,-0.700000
70.895532,0.229360,0.041968,0.992592,-0.280000,-1.400000,-0.840000
70.899598,0.255224,0.010736,1.125328,-1.680000,0.840000,0.420000
70.903664,0.166896,-0.008296,0.819840,0.000000,-2.240000,-0.280000
70.907730,0.150792,0.121024,1.071160,0.980000,1.260000,-1.120000
70.911796,0.217648,-0.041480,1.020408,-3.220000,-2.100000,-0.140000
70.915861,0.212768,0.048800,0.895968,0.560000,-3.780000,0.140000
70.919927,0.204472,0.136640,1.170712,0.980000,1.400000,-1.120000
70.923993,0.205936,-0.104432,0.894992,-4.480000,-1.680000,-0.840000
70.928059,0.254248,0.000000,0.928176,-0.420000,-3.500000,0.140000
70.932125,0.152744,0.022936,1.148752,0.980000,2.240000,-0.980000
70.936191,0.141520,-0.040016,0.826184,-1.540000,-3.220000,-0.280000
70.940257,0.260104,0.072224,1.031632,0.140000,-2.520000,-0.980000
70.944323,0.196176,0.003904,1.057496,-0.140000,-1.680000,-1.120000
70.948389,0.148352,0.037088,0.737856,-1.120000,-3.640000,-0.420000
70.952454,0.305000,0.102480,1.229760,-0.840000,0.420000,0.700000
70.956520,0.174216,-0.056608,0.936960,-1.540000,-2.800000,-0.980000
70.960586,0.205936,0.077104,0.893528,0.280000,-2.940000,-0.420000
70.964652,0.330864,-0.006832,1.129232,-1.540000,3.080000,-0.700000
70.968718,0.148352,-0.054656,0.830576,-0.980000,-1.680000,-0.280000
70.972784,0.107848,0.161528,1.064816,1.820000,-0.420000,-0.140000
70.976850,0.255712,-0.052216,1.046272,-2.520000,2.660000,-0.420000
70.980916,0.190808,-0.039528,0.798368,-0.700000,-4.200000,-0.420000
70.984982,0.189832,0.160552,1.118008,1.400000,-0.980000,0.000000
70.989048,0.238144,-0.071248,1.021384,-4.060000,2.240000,-0.980000
70.993113,0.201056,-0.011224,0.880352,-0.140000,-2.800000,0.560000
70.997179,0.150304,0.075640,1.093120,1.400000,0.140000,-1.400000
71.001245,0.267912,-0.068808,0.894504,-1.820000,-1.260000,-0.980000
71.005311,0.250832,0.043432,0.974048,-0.980000,-1.540000,0.280000
71.009377,0.135664,0.118096,1.080432,0.280000,0.700000,0.140000
71.013443,0.166408,-0.004880,0.856440,-0.700000,-0.560000,-0.700000
71.017509,0.293776,0.038552,1.098976,-0.980000,-0.700000,-0.280000
71.021575,0.179584,-0.019520,0.955016,-1.680000,-2.100000,-0.280000
71.025641,0.171776,0.055632,0.954040,0.420000,-2.240000,-0.700000
71.029706,0.292312,0.042456,1.157536,-0.420000,2.520000,0.000000
71.033772,0.187880,-0.088328,0.812520,-1.400000,-1.680000,0.000000
71.037838,0.172752,0.088328,0.983808,1.260000,-1.400000,-1.260000
71.041904,0.217648,0.000000,1.102880,-2.380000,2.520000,-0.140000
71.045970,0.161528,-0.030744,0.796416,-1.260000,-2.800000,0.840000
71.050036,0.193248,0.116144,1.074088,2.800000,-0.560000,-0.840000
71.054102,0.237656,-0.053192,1.040416,-3.360000,0.840000,-0.840000
71.058168,0.194224,0.016592,0.841312,-2.520000,-3.080000,0.140000
71.062234,0.204960,0.131272,1.177056,1.120000,0.420000,-0.560000
71.066300,0.196176,-0.052216,0.945744,-1.120000,-1.960000,-0.840000
71.070365,0.308416,0.024888,0.882792,-0.700000,-2.800000,-0.700000
71.074431,0.202520,0.048312,1.153144,-0.980000,3.500000,-0.700000
71.078497,0.088328,-0.039040,0.865224,-0.840000,-1.680000,-0.700000
71.082563,0.242048,0.087352,1.011624,0.700000,-0.840000,-0.140000
71.086629,0.189832,-0.036600,1.077504,-1.960000,0.560000,0.000000
71.090695,0.133224,-0.002440,0.806664,0.420000,-5.600000,-1.540000
71.094761,0.294264,0.111752,1.118008,-0.280000,0.420000,-0.280000
71.098827,0.194224,-0.100528,0.955504,-3.640000,-0.280000,0.000000
71.102893,0.153720,0.121024,0.915488,0.560000,-4.200000,0.280000
71.106958,0.270352,0.065392,1.159000,-0.140000,0.980000,-0.980000
71.111024,0.264984,-0.146888,0.844240,-2.800000,-1.680000,-0.560000
71.115090,0.154696,0.086376,0.946232,1.960000,-1.820000,-1.120000
71.119156,0.173728,0.055632,1.100440,-0.840000,0.280000,-0.700000
71.123222,0.237656,-0.009760,0.864248,-2.520000,-0.560000,-0.140000
71.127288,0.178608,0.123464,1.133624,0.840000,-0.560000,-0.840000
71.131354,0.210328,-0.007808,0.947208,-0.560000,-3.920000,-0.840000
71.135420,0.265472,-0.013664,0.916464,-1.540000,-0.840000,0.280000
71.139486,0.205448,0.035136,1.162416,-0.140000,1.540000,-0.700000
71.143551,0.189344,-0.006832,0.833504,-0.700000,-3.220000,-0.700000
71.147617,0.208864,0.026352,0.999912,-0.980000,1.820000,-0.140000
71.151683,0.164944,-0.026840,1.025288,-0.140000,0.560000,-0.140000
71.155749,0.189344,-0.012688,0.791536,0.840000,-5.180000,-0.140000
71.159815,0.226432,0.141520,1.168272,-1.540000,2.660000,-0.700000
71.163881,0.221064,-0.041480,0.983320,-1.960000,-0.980000,-0.560000
71.167947,0.184464,0.035136,0.850096,0.840000,-3.360000,-0.560000
71.172013,0.192272,0.087840,1.181936,-1.400000,3.640000,-1.260000
71.176079,0.243024,-0.099552,0.931104,-3.220000,-3.220000,-0.560000
71.180145,0.203008,0.080520,0.943304,3.080000,-4.900000,-0.140000
71.184210,0.173240,0.049288,1.133624,-1.400000,2.940000,-0.840000
71.188276,0.232776,-0.072712,0.801784,-2.940000,-3.780000,-0.700000
71.192342,0.198128,0.126392,1.077504,0.980000,-1.400000,0.000000
71.196408,0.158600,-0.000976,1.001864,-1.960000,0.140000,-1.540000
71.200474,0.270840,-0.040992,0.870592,-1.540000,-4.900000,-0.840000
71.204540,0.206424,0.078568,1.077016,0.000000,-0.140000,0.420000
71.208606,0.225456,-0.059536,0.927688,-0.840000,-0.140000,-1.260000
71.212672,0.262544,0.059536,0.974048,0.280000,0.000000,-0.420000
71.216738,0.163480,0.003904,1.066768,-0.840000,1.820000,-0.280000
71.220803,0.160552,-0.014152,0.818864,-0.560000,-2.380000,-1.120000
71.224869,0.213256,0.106872,1.089216,-0.140000,0.140000,-0.280000
71.228935,0.241072,0.010736,1.000400,-2.380000,-0.700000,0.000000
71.233001,0.203496,0.033672,0.893040,-0.980000,-3.500000,-0.280000
71.237067,0.146400,0.087840,1.186328,0.560000,2.100000,-0.700000
71.241133,0.291336,-0.085400,0.893528,-2.380000,-2.240000,0.280000
71.245199,0.194224,0.045872,0.927688,1.120000,-1.260000,-0.420000
71.249265,0.163968,0.071736,1.156072,0.560000,0.000000,-1.540000
71.253331,0.256688,-0.105408,0.789584,-2.940000,-2.800000,-0.280000
71.257397,0.176656,0.064904,1.059448,-0.560000,2.800000,-0.560000
71.261462,0.176168,0.010736,1.047248,0.000000,-0.840000,-1.960000
71.265528,0.238632,-0.034648,0.796416,-0.980000,-3.500000,-0.420000
71.269594,0.228384,0.119072,1.141920,-0.280000,2.800000,-0.140000
71.273660,0.177144,-0.000488,0.991128,-0.980000,-0.700000,-0.700000
71.277726,0.209840,0.048312,0.850584,0.000000,-2.520000,-0.980000
71.281792,0.277184,0.027328,1.207800,-2.380000,3.220000,0.000000
71.285858,0.139568,-0.074176,0.878888,-1.260000,-3.080000,-0.420000
71.289924,0.168848,0.119072,0.902800,2.240000,-2.240000,0.140000
71.293990,0.303048,-0.005856,1.156072,-2.660000,3.360000,-0.560000
71.298055,0.149328,-0.042944,0.793488,-1.540000,-3.780000,-1.120000
71.302121,0.182512,0.188856,1.114104,2.800000,-1.120000,-0.140000
71.306187,0.207400,-0.133712,0.975512,-3.080000,2.940000,-1.260000
71.310253,0.202520,-0.015128,0.893040,-0.420000,-4.620000,-0.280000
71.314319,0.210816,0.174704,1.116544,1.260000,-1.120000,-0.280000
71.318385,0.223992,-0.050752,0.963312,-3.500000,1.680000,-0.700000
71.322451,0.244976,-0.027816,0.909632,0.140000,-1.540000,-0.700000
71.326517,0.170312,0.058560,1.050664,0.000000,-0.700000,-0.840000
71.330583,0.259128,-0.053680,0.882792,-2.520000,0.420000,-1.120000
71.334649,0.226920,0.080520,1.057008,0.280000,2.100000,0.000000
71.338714,0.132248,0.052704,0.980880,0.140000,-1.400000,-0.700000
71.342780,0.212280,0.041968,0.868152,-1.680000,-0.840000,-0.700000
71.346846,0.259616,0.023424,1.165344,-0.140000,1.400000,-0.280000
71.350912,0.183488,-0.015616,0.904264,-0.700000,-2.240000,0.000000
71.354978,0.197152,0.073688,0.969168,-0.700000,-0.700000,-0.700000
71.359044,0.210816,-0.015616,1.155096,-1.960000,2.940000,-0.700000
71.363110,0.207888,-0.034648,0.853512,-0.280000,-3.500000,0.000000
71.367176,0.224968,0.047336,0.938912,2.800000,-1.260000,-0.420000
71.371242,0.190808,0.010248,1.096536,-2.940000,2.380000,-1.260000
71.375307,0.178608,-0.019520,0.781288,-2.520000,-2.520000,0.280000
71.379373,0.195688,0.143472,1.102392,1.120000,0.980000,-1.400000
71.383439,0.223016,-0.076616,1.008208,-1.960000,0.420000,-1.540000
71.387505,0.225944,-0.000488,0.827648,-1.260000,-3.780000,0.000000
71.391571,0.219112,0.131272,1.205360,0.280000,2.240000,-1.120000
71.395637,0.173728,-0.040016,0.979416,-1.540000,-0.560000,-1.260000
71.399703,0.244488,0.042456,0.841800,-0.420000,-3.080000,-0.280000
71.403769,0.278648,0.074176,1.167296,-1.260000,3.080000,0.000000
71.407835,0.126880,-0.069296,0.884256,-1.400000,-2.240000,-1.540000
71.411900,0.194712,0.086376,0.998448,0.980000,-2.660000,0.420000
71.415966,0.202032,-0.032208,1.092144,-1.680000,3.780000,-0.280000
71.420032,0.179584,-0.045872,0.794952,0.140000,-4.760000,-0.280000
71.424098,0.227408,0.147864,1.053592,0.700000,-1.120000,-0.420000
71.428164,0.234728,-0.044896,1.051152,-3.220000,0.980000,0.280000
71.432230,0.169824,0.053192,0.877424,0.700000,-4.620000,-1.260000
71.436296,0.262056,0.085400,1.100440,-0.140000,1.540000,-0.560000
71.440362,0.256200,-0.140544,0.878400,-4.200000,0.560000,0.000000
71.444428,0.179584,0.108824,1.050176,1.960000,-0.560000,0.000000
71.448494,0.141520,0.072712,1.061400,0.420000,0.560000,-0.700000
71.452559,0.262544,-0.100528,0.785680,-3.080000,-0.980000,-1.400000
71.456625,0.250832,0.084424,1.103368,1.680000,0.000000,-0.560000
71.460691,0.087840,0.029280,0.989664,-0.700000,0.700000,-1.120000
71.464757,0.275232,0.032696,0.932080,-0.980000,-1.540000,-0.700000
71.468823,0.207400,0.033184,1.109712,-0.560000,1.260000,0.420000
71.472889,0.138592,-0.015128,0.887672,-1.260000,-2.660000,-0.980000
71.476955,0.275232,0.019520,0.943792,-0.980000,-0.700000,-0.560000
71.481021,0.221552,0.014152,1.186328,-2.380000,2.380000,0.280000
71.485087,0.113216,-0.013664,0.769576,0.140000,-5.180000,-0.420000
71.489152,0.280112,0.078080,1.052128,1.260000,1.540000,-0.700000
71.493218,0.218624,-0.051240,1.087752,-2.660000,0.980000,-0.140000
71.497284,0.095160,0.032696,0.749080,0.420000,-6.580000,-0.560000
71.501350,0.287920,0.177144,1.204384,0.700000,1.820000,-0.840000
71.505416,0.270840,-0.117608,0.939888,-3.920000,0.000000,-0.140000
71.509482,0.159576,0.099064,0.901824,0.840000,-3.500000,-0.980000
71.513548,0.206912,0.054168,1.199504,0.140000,2.940000,-1.120000
71.517614,0.237168,-0.163480,0.843264,-2.800000,-1.260000,-1.120000
71.521680,0.199104,0.088816,0.960384,2.660000,-2.380000,-0.420000
71.525746,0.185440,0.044408,1.067744,-0.560000,2.240000,-1.260000
71.529811,0.191784,-0.024400,0.838384,-3.220000,-2.100000,-0.560000
71.533877,0.199104,0.138592,1.074088,1.120000,-0.420000,0.560000
71.537943,0.194224,-0.066368,0.983808,-0.980000,-0.700000,-1.680000
71.542009,0.223504,-0.012200,0.873032,-1.960000,-2.240000,-1.540000
71.546075,0.244976,0.061488,1.163392,-1.400000,0.840000,-0.560000
71.550141,0.183488,-0.025864,0.888160,-1.120000,-0.840000,-0.980000
71.554207,0.191784,0.085888,0.989176,1.680000,-0.840000,-1.820000
71.558273,0.256688,-0.022448,1.038464,-1.260000,0.420000,-0.840000
71.562339,0.157136,-0.011712,0.853024,-2.100000,-2.660000,-1.120000
71.566404,0.214720,0.173728,1.151680,0.980000,1.680000,-0.980000
71.570470,0.216184,-0.066368,0.960384,-2.240000,-0.980000,-1.400000
71.574536,0.175680,0.010736,0.892064,-0.840000,-3.220000,-0.840000
71.578602,0.257664,0.117608,1.147288,0.700000,0.000000,-1.260000
71.582668,0.234240,-0.087840,0.902800,-3.080000,-0.420000,-0.700000
71.586734,0.220088,0.041480,0.958432,0.140000,-0.700000,-0.700000
71.590800,0.173240,0.012200,1.085800,-0.140000,3.360000,-1.960000
71.594866,0.199592,-0.073200,0.764696,-0.840000,-3.780000,-1.400000
71.598932,0.212280,0.090280,1.048224,-0.420000,1.400000,-0.980000
71.602998,0.175680,0.022936,1.084824,-1.260000,1.120000,-1.820000
71.607063,0.215696,0.005368,0.799344,-0.280000,-2.240000,-1.400000
71.611129,0.296216,0.080032,1.172176,-1.540000,3.080000,-0.560000
71.615195,0.141032,-0.025864,0.945256,-1.680000,-1.540000,-1.820000
71.619261,0.179584,0.106384,0.897432,0.700000,-1.820000,-0.280000
71.623327,0.314272,0.009272,1.162416,-1.820000,3.500000,-0.420000
71.627393,0.183976,-0.062464,0.878400,-1.400000,-2.940000,-0.840000
71.631459,0.116144,0.113704,0.945256,1.680000,-0.140000,-0.840000
71.635525,0.265472,-0.025376,1.118008,-3.500000,3.780000,-0.280000
71.639591,0.177632,-0.048800,0.829600,-0.280000,-2.940000,-0.840000
71.643656,0.198616,0.130296,1.022848,2.520000,-1.820000,-1.120000
71.647722,0.248880,-0.048800,1.041880,-4.340000,1.820000,-0.840000
71.651788,0.196664,0.001464,0.904264,-1.120000,0.000000,0.140000
71.655854,0.205936,0.134688,1.126792,2.800000,0.560000,-0.280000
71.659920,0.212768,-0.086864,0.905728,-2.940000,-0.140000,-1.260000
71.663986,0.265472,0.010736,0.935984,-0.980000,-1.960000,-0.560000
71.668052,0.152744,0.100528,1.073600,0.280000,1.400000,-0.560000
71.672118,0.185928,-0.046848,0.858880,-1.960000,0.560000,-0.980000
71.676184,0.249368,0.034160,1.063840,0.000000,0.420000,-1.260000
71.680249,0.171776,0.027816,1.016016,-0.700000,-0.980000,-0.980000
71.684315,0.145912,0.045384,0.869616,-0.700000,-0.840000,-1.260000
71.688381,0.309392,0.030744,1.141920,-1.400000,2.380000,-0.980000
71.692447,0.183488,-0.034160,0.937936,-1.540000,-1.680000,-0.420000
71.696513,0.211792,0.088816,0.953552,1.400000,-1.260000,-1.260000
71.700579,0.254248,-0.029280,1.110200,-1.260000,3.360000,-1.400000
71.704645,0.168848,-0.050264,0.832040,-2.660000,-2.100000,0.000000
71.708711,0.201056,0.128832,0.981368,2.100000,0.000000,-1.400000
71.712777,0.230824,-0.050264,1.105320,-2.100000,3.920000,-2.240000
71.716843,0.212768,-0.025864,0.741272,-1.260000,-2.520000,-0.980000
71.720908,0.159088,0.132248,1.120936,1.260000,3.640000,-1.680000
71.724974,0.222040,-0.025376,1.058472,-2.100000,2.940000,-1.680000
71.729040,0.182512,0.003904,0.849120,-0.840000,-3.360000,-0.560000
71.733106,0.231312,0.134688,1.169248,0.840000,1.960000,-1.400000
71.737172,0.160552,-0.084912,0.923784,-3.080000,-0.280000,-1.820000
71.741238,0.300120,0.035136,0.910608,-0.280000,-1.960000,-0.560000
71.745304,0.207400,0.067344,1.169248,-0.700000,2.800000,-0.980000
71.749370,0.090280,-0.023424,0.907192,-1.400000,-1.680000,-1.960000
71.753436,0.274256,0.043432,0.908656,0.420000,-2.660000,-0.560000
71.757501,0.193248,-0.010736,1.121424,-1.960000,2.100000,-0.140000
71.761567,0.169336,-0.008784,0.816424,0.840000,-4.060000,-1.680000
71.765633,0.238632,0.130296,1.105320,-0.140000,0.000000,-0.140000
71.769699,0.168848,-0.042944,0.975512,-3.780000,1.120000,-0.980000
71.773765,0.209352,0.038552,0.874008,1.260000,-4.900000,-0.560000
71.777831,0.259128,0.053680,1.129232,0.560000,0.840000,-0.700000
71.781897,0.203984,-0.085888,0.917928,-3.780000,0.840000,-0.700000
71.785963,0.247416,0.093696,0.977464,1.120000,-1.820000,-1.260000
71.790029,0.160064,-0.003416,1.032608,-0.840000,2.100000,-1.540000
71.794095,0.240584,-0.043920,0.840824,-1.400000,-2.660000,-0.980000
71.798160,0.147376,0.089304,1.100440,0.420000,0.560000,-0.840000
71.802226,0.101504,0.056608,1.030168,-1.960000,-0.560000,-1.680000
71.806292,0.314272,-0.035136,0.864248,-1.120000,-4.340000,-0.280000
71.810358,0.253760,0.099552,1.148264,0.140000,1.540000,-0.560000
71.814424,0.177144,-0.011224,0.917928,-0.700000,-1.960000,-1.400000
71.818490,0.210816,0.008296,0.895480,-2.100000,-0.280000,-1.820000
71.822556,0.234728,0.004392,1.188768,-0.980000,3.080000,-1.820000
71.826622,0.174216,-0.039528,0.805200,-0.420000,-3.500000,-0.980000
71.830688,0.256688,0.080032,1.016992,0.280000,0.280000,-1.960000
71.834753,0.168360,-0.021960,1.116544,-2.380000,2.800000,-0.700000
71.838819,0.146400,0.015128,0.744200,0.280000,-4.900000,-1.540000
71.842885,0.244976,0.106872,1.098488,0.280000,2.100000,-1.260000
71.846951,0.241560,-0.033672,1.083848,-3.500000,0.280000,-1.820000
71.851017,0.161528,0.069296,0.778848,0.700000,-6.440000,-1.680000
71.855083,0.194712,0.113216,1.188280,0.140000,2.940000,-1.400000
71.859149,0.233264,-0.141032,0.950136,-4.200000,0.840000,-1.680000
71.863215,0.231312,0.060024,0.891576,1.960000,-5.740000,-0.700000
71.867281,0.183000,0.078568,1.143384,0.140000,3.080000,-2.100000
71.871347,0.211792,-0.109800,0.890600,-3.500000,-1.260000,-1.680000
71.875412,0.270840,0.123464,0.928176,1.400000,-3.360000,-0.560000
71.879478,0.139568,0.060024,1.155584,-1.400000,2.240000,-1.260000
71.883544,0.175192,-0.122000,0.813496,-2.660000,-2.520000,-1.820000
71.887610,0.244976,0.090768,1.040904,1.540000,-1.540000,0.560000
71.891676,0.149816,0.013664,1.005280,-1.260000,1.820000,-1.400000
71.895742,0.260104,0.024400,0.897432,-1.820000,-2.940000,-1.400000
71.899808,0.212768,0.061976,1.070184,0.000000,-1.120000,-0.980000
71.903874,0.169824,-0.030256,0.961360,-1.680000,0.420000,-1.960000
71.907940,0.304512,0.049288,0.946720,0.140000,-1.400000,-1.260000
71.912005,0.223992,-0.003904,1.096536,-1.960000,1.540000,-0.420000
71.916071,0.155184,0.035136,0.869128,-0.700000,-0.980000,-1.400000
71.920137,0.209352,0.058560,1.029192,1.120000,0.420000,-1.120000
71.924203,0.237656,-0.058560,1.058960,-1.820000,0.140000,-1.120000
71.928269,0.125416,0.017080,0.785192,0.000000,-2.660000,-1.400000
71.932335,0.241072,0.123952,1.201456,0.980000,1.120000,-0.700000
71.936401,0.203008,-0.027328,0.926712,-3.220000,-1.540000,-1.400000
71.940467,0.196176,0.055632,0.895480,-0.840000,-1.960000,-0.140000
71.944533,0.191784,0.022448,1.199504,0.000000,1.820000,-1.820000
71.948598,0.240584,-0.059536,0.860832,-1.820000,-2.800000,-0.700000
71.952664,0.248880,0.034648,0.929640,0.560000,-2.100000,-0.280000
71.956730,0.185928,0.075640,1.149728,-0.420000,1.820000,-1.260000
71.960796,0.198616,-0.074176,0.740784,-0.560000,-2.660000,-0.140000
71.964862,0.219600,0.081008,1.072624,-0.840000,1.540000,-0.420000
71.968928,0.207400,0.001464,1.065792,-0.840000,0.420000,-1.820000
71.972994,0.198616,0.006832,0.765184,0.280000,-3.360000,-0.560000
71.977060,0.244000,0.104920,1.169248,-0.840000,3.220000,-0.560000
71.981126,0.162992,-0.032208,1.000400,-1.680000,-0.840000,-1.120000
71.985192,0.176656,0.101992,0.862784,1.820000,-4.760000,-0.420000
71.989257,0.303536,-0.011712,1.130208,-2.380000,4.480000,-0.560000
71.993323,0.221064,-0.048312,0.952088,-3.080000,-0.840000,-0.700000
71.997389,0.122488,0.129808,0.945744,2.660000,-3.640000,-0.140000
72.001455,0.214232,-0.004392,1.122400,-2.100000,4.340000,-0.700000
72.005521,0.209840,-0.131760,0.852048,-1.680000,-3.920000,-0.840000
72.009587,0.181536,0.137128,0.958432,3.220000,-3.780000,-0.700000
72.013653,0.234240,-0.013176,1.086776,-3.360000,2.660000,-1.540000
72.017719,0.178608,-0.015128,0.884744,-2.240000,-1.120000,-0.420000
72.021785,0.179584,0.128832,1.085312,2.660000,-2.100000,-0.980000
72.025850,0.250344,-0.066856,0.925248,-2.800000,1.120000,-1.680000
72.029916,0.296704,-0.016104,0.943304,-0.980000,-2.100000,-0.420000
72.033982,0.151768,0.135176,1.085312,0.700000,0.560000,-0.700000
72.038048,0.146888,-0.012200,0.907192,-2.660000,1.120000,-1.400000
72.042114,0.313784,-0.023424,1.016504,-0.700000,0.700000,-0.840000
72.046180,0.170312,0.058560,1.037000,0.840000,-2.380000,-1.120000
72.050246,0.141032,0.004880,0.830088,-1.260000,-1.260000,-1.400000
72.054312,0.286456,0.037576,1.110200,-1.260000,2.380000,-0.700000
72.058378,0.137128,-0.014152,0.989176,-0.700000,-0.560000,-0.980000
72.062444,0.184952,0.063440,0.854976,1.120000,-3.080000,-1.120000
72.066509,0.270840,0.047336,1.152656,-0.980000,1.960000,-1.680000
72.070575,0.154696,-0.059048,0.904752,-2.380000,-3.220000,-0.420000
72.074641,0.213744,0.103456,0.949160,0.840000,-1.960000,-1.820000
72.078707,0.275720,0.019520,1.207312,-1.680000,3.920000,-1.540000
72.082773,0.177144,-0.113704,0.767136,-2.520000,-3.640000,-1.400000
72.086839,0.215696,0.118096,0.996984,1.540000,-1.400000,-0.560000
72.090905,0.184464,0.000976,1.129232,-1.400000,3.360000,-1.960000
72.094971,0.255712,-0.070760,0.766160,-0.840000,-4.620000,-1.260000
72.099037,0.193248,0.154208,1.057984,0.420000,0.840000,-1.680000
72.103102,0.171776,-0.023424,1.122888,-3.360000,3.360000,-1.960000
72.107168,0.212280,-0.012200,0.803248,0.840000,-6.160000,-1.120000
72.111234,0.237168,0.140544,1.142408,0.700000,1.400000,-1.400000
72.115300,0.148352,0.000488,1.065792,-3.360000,-0.140000,-1.260000
72.119366,0.179584,0.013176,0.764208,0.140000,-3.920000,-1.260000
72.123432,0.300608,-0.018544,1.167296,-0.700000,0.840000,-0.280000
72.127498,0.152744,-0.019032,0.963800,-2.380000,-1.960000,-2.240000
72.131564,0.233264,0.084912,0.884744,1.400000,-4.060000,-0.560000
72.135630,0.236192,-0.009760,1.129720,-2.520000,3.780000,-1.400000
72.139696,0.173240,-0.092232,0.808616,-0.700000,-3.080000,-1.960000
72.143761,0.211304,0.129320,0.981368,1.260000,-2.800000,-1.540000
72.147827,0.170800,-0.006344,1.111176,-3.360000,3.080000,-0.280000
72.151893,0.177144,0.020496,0.831552,0.000000,-4.200000,-0.980000
72.155959,0.253272,0.157136,1.085312,1.540000,-1.400000,-0.280000
72.160025,0.228384,-0.081984,0.978440,-4.480000,0.700000,-1.120000
72.164091,0.244488,0.040016,0.971608,0.140000,-3.360000,-0.560000
72.168157,0.196176,0.074176,1.080920,0.840000,0.140000,-0.280000
72.172223,0.203984,-0.081496,0.887184,-3.640000,0.840000,-1.260000
72.176289,0.304024,0.077104,0.976976,0.840000,-2.520000,-0.840000
72.180354,0.105408,0.045384,1.083360,-0.700000,0.560000,-1.540000
72.184420,0.221064,-0.081984,0.843264,-1.540000,-0.840000,-0.980000
72.188486,0.244976,0.060024,1.062864,0.980000,0.700000,-0.560000
72.192552,0.116144,0.041968,1.007720,-0.280000,0.140000,-1.120000
72.196618,0.176656,-0.021960,0.791536,-2.240000,-1.400000,-2.100000
72.200684,0.278648,0.072224,1.236104,-0.560000,0.980000,-0.280000
72.204750,0.174216,-0.035624,0.868640,0.280000,-4.900000,-1.400000
72.208816,0.204960,0.099552,0.971608,0.140000,-1.260000,-0.980000
72.212882,0.264496,-0.009272,1.188280,-2.380000,3.080000,-0.980000
72.216948,0.147376,-0.004880,0.805688,-0.840000,-4.340000,-0.560000
72.221013,0.234240,0.074176,0.973560,1.680000,-2.800000,-1.120000
72.225079,0.262544,-0.025376,1.137040,-2.800000,0.980000,-1.260000
72.229145,0.182024,0.002928,0.783240,-0.700000,-5.600000,-0.700000
72.233211,0.174216,0.150304,1.080920,0.980000,2.940000,-1.400000
72.237277,0.248880,-0.108336,1.054568,-2.660000,0.980000,-2.100000
72.241343,0.192272,0.005368,0.790560,-0.280000,-4.900000,-0.280000
72.245409,0.226920,0.156648,1.176080,0.560000,1.960000,-0.700000
72.249475,0.219600,-0.078568,0.959896,-3.080000,0.140000,-1.400000
72.253541,0.200568,0.057584,0.830088,0.560000,-3.640000,0.140000
72.257606,0.166408,0.024400,1.157536,-0.280000,3.080000,-1.820000
72.261672,0.204960,-0.076616,0.952576,-2.660000,-1.260000,-0.840000
72.265738,0.262056,0.041480,0.882304,1.680000,-2.940000,0.140000
72.269804,0.191784,0.124440,1.131184,0.420000,0.840000,-0.980000
72.273870,0.162992,-0.042456,0.850584,-2.100000,-2.660000,-1.680000
72.277936,0.266936,0.057584,1.007232,0.000000,-1.540000,0.000000
72.282002,0.190320,0.007808,1.046272,-1.400000,1.820000,-1.260000
72.286068,0.164456,0.015616,0.946232,-0.840000,-3.640000,-0.840000
72.290134,0.258640,0.072712,1.036512,0.280000,-0.700000,-0.840000
72.294200,0.221064,-0.056608,1.018456,-1.960000,0.420000,-0.280000
72.298265,0.185440,0.064904,0.888648,0.980000,-3.080000,-1.540000
72.302331,0.243512,0.039040,1.043832,-1.960000,0.420000,-1.120000
72.306397,0.232288,-0.095160,0.918416,-4.060000,0.280000,-1.120000
72.310463,0.193248,0.086864,1.011624,1.820000,-1.540000,-1.400000
72.314529,0.167872,-0.021472,1.066768,0.560000,-0.140000,-0.280000
72.318595,0.203984,-0.038552,0.814960,-1.820000,-0.560000,-0.980000
72.322661,0.230336,0.171288,1.106784,1.120000,-1.400000,-1.400000
72.326727,0.135664,0.008784,0.919392,-2.100000,-0.980000,-1.680000
72.330793,0.247904,-0.016104,0.949648,-2.800000,-2.100000,-0.560000
72.334858,0.258640,0.078080,1.149240,0.700000,-1.260000,-1.120000
72.338924,0.119072,-0.026352,0.918904,-1.120000,-1.820000,-0.840000
72.342990,0.272304,0.003904,0.906704,-0.420000,-0.140000,-1.820000
72.347056,0.339160,0.085400,1.196088,-0.420000,0.280000,-0.420000
72.351122,0.088816,-0.011224,0.753960,-0.980000,-2.380000,-1.260000
72.355188,0.241560,0.013664,1.005280,-1.120000,1.960000,-1.120000
72.359254,0.197640,-0.000976,1.147776,-1.540000,0.140000,-0.980000
72.363320,0.160064,-0.009272,0.775432,1.260000,-4.060000,-0.420000
72.367386,0.244976,0.087352,1.115568,-0.280000,2.660000,-0.840000
72.371452,0.182512,-0.028304,1.035048,-2.520000,-0.700000,-0.420000
72.375517,0.190808,0.026352,0.752496,1.120000,-6.160000,-1.400000
72.379583,0.282064,0.095648,1.171200,-1.260000,2.940000,-1.540000
72.383649,0.237168,-0.096624,0.983320,-3.920000,-0.280000,-0.980000
72.387715,0.155184,0.118096,0.877424,2.100000,-4.060000,-0.980000
72.391781,0.210816,0.033184,1.150216,-0.700000,4.760000,-1.400000
72.395847,0.236192,-0.134688,0.857904,-2.800000,-2.240000,-0.700000
72.399913,0.227896,0.171776,0.996984,2.660000,-3.780000,-0.280000
72.403979,0.138592,0.034648,1.089216,-1.540000,2.660000,-1.960000
72.408045,0.256200,-0.088816,0.822768,-2.520000,-2.800000,-1.260000
72.412110,0.193248,0.122976,1.053104,1.120000,-1.680000,-0.280000
72.416176,0.170312,0.009760,1.111664,-1.960000,1.120000,-0.840000
72.420242,0.225456,-0.046848,0.827648,-0.700000,-3.360000,-0.980000
72.424308,0.245952,0.094672,1.089216,0.700000,-0.420000,0.000000
72.428374,0.241560,-0.040992,0.920856,-1.680000,-0.560000,-1.260000
72.432440,0.212280,0.044408,0.941352,-1.260000,-0.140000,-0.700000
72.436506,0.221064,0.047824,1.125328,-1.120000,0.560000,-0.560000
72.440572,0.197640,-0.051728,0.878400,-0.700000,-1.400000,-0.840000
72.444638,0.174704,0.059048,0.986248,1.400000,0.420000,-0.840000
72.448704,0.220088,0.017568,1.011136,-1.540000,0.280000,0.000000
72.452769,0.216184,0.066368,0.889136,-0.420000,-2.940000,-0.280000
72.456835,0.130784,0.072224,1.076528,0.980000,0.840000,-1.260000
72.460901,0.275720,-0.062952,0.972584,-2.660000,-1.260000,-0.420000
72.464967,0.250832,0.017568,0.915976,-0.840000,-1.400000,0.140000
72.469033,0.164944,0.119072,1.204384,0.280000,1.540000,-1.120000
72.473099,0.222040,-0.068320,0.826184,-2.380000,-1.820000,-0.420000
72.477165,0.255224,0.010248,0.976000,0.000000,0.700000,-0.700000
72.481231,0.209352,0.039528,1.104832,0.140000,0.280000,-1.120000
72.485297,0.141032,-0.052216,0.764696,-1.820000,-1.680000,-0.280000
72.489362,0.261568,0.113704,1.148264,0.140000,0.140000,0.420000
72.493428,0.150304,0.003416,0.973072,0.140000,-1.540000,-0.700000
72.497494,0.209840,-0.009272,0.825208,0.000000,-3.780000,-1.260000
72.501560,0.307440,0.081984,1.195112,-2.240000,2.100000,-0.280000
72.505626,0.180072,-0.023424,0.939400,-1.960000,-1.120000,-0.700000
72.509692,0.152256,0.107360,0.911096,1.540000,-2.940000,-0.560000
72.513758,0.276208,-0.019032,1.155584,-1.680000,2.800000,-0.840000
72.517824,0.180560,-0.076616,0.804712,-1.400000,-3.920000,-0.560000
72.521890,0.200568,0.138104,1.015528,1.820000,-0.840000,0.000000
72.525956,0.251320,-0.055144,1.100440,-2.660000,4.620000,-0.560000
72.530021,0.178608,-0.030256,0.754936,-0.280000,-1.960000,-0.420000
72.534087,0.191296,0.144448,1.133136,2.380000,0.140000,-0.700000
72.538153,0.231312,-0.057096,0.963800,-4.200000,2.240000,-0.980000
72.542219,0.228384,0.025376,0.926712,-0.840000,-1.960000,0.700000
72.546285,0.189832,0.102480,1.118008,1.680000,-0.140000,-0.420000
72.550351,0.183976,-0.067344,0.925736,-2.520000,0.280000,-1.820000
72.554417,0.295240,0.008784,0.984784,-0.420000,-1.260000,-0.140000
72.558483,0.161528,0.090280,1.087752,0.140000,0.840000,-0.700000
72.562549,0.166896,-0.009760,0.892552,-2.100000,-1.820000,-1.120000
72.566614,0.260592,0.031232,1.007232,-0.280000,-1.400000,-0.140000
72.570680,0.157136,0.001952,1.006744,-0.700000,-0.420000,-0.140000
72.574746,0.261568,0.036112,0.892552,0.420000,-2.100000,-0.700000
72.578812,0.193248,0.065880,1.063840,-0.560000,2.660000,-0.420000
72.582878,0.223016,-0.046360,0.907680,-1.960000,-1.260000,0.140000
72.586944,0.192760,0.056608,0.940864,0.700000,-1.260000,-0.700000
72.591010,0.203984,0.014152,1.186816,-1.260000,2.940000,-0.280000
72.595076,0.242536,-0.063440,0.777872,-2.520000,-2.240000,0.280000
72.599142,0.217160,0.101504,1.096536,1.540000,0.140000,-0.280000
72.603208,0.129808,-0.019032,0.996984,0.140000,0.980000,-1.540000
72.607273,0.238632,-0.012200,0.803736,-1.960000,-3.500000,-0.560000
72.611339,0.271328,0.145912,1.188768,0.000000,2.100000,-0.420000
72.615405,0.138104,0.016104,0.976000,-1.680000,-0.700000,-0.560000
72.619471,0.220576,0.027328,0.910608,-0.420000,-3.500000,0.000000
72.623537,0.283528,0.005856,1.157048,-0.840000,2.660000,-0.700000
72.627603,0.154696,-0.055144,0.856440,-0.980000,-3.220000,-0.420000
72.631669,0.214720,0.080520,0.910120,0.280000,-0.280000,-0.140000
72.635735,0.245952,-0.015128,1.162904,-1.960000,2.520000,-0.420000
72.639801,0.169336,-0.044896,0.749080,0.280000,-3.780000,-0.840000
72.643866,0.204472,0.146888,1.100928,0.280000,1.540000,-0.280000
72.647932,0.248880,-0.072224,1.037488,-3.500000,2.800000,-0.280000
72.651998,0.221552,0.066368,0.836432,1.260000,-5.320000,0.140000
72.656064,0.159576,0.142496,1.088240,0.140000,2.940000,-0.700000
72.660130,0.239120,-0.129808,0.998448,-4.480000,0.700000,-0.980000
72.664196,0.210328,0.072224,0.955016,2.380000,-2.800000,0.140000
72.668262,0.183000,0.079544,1.148752,0.840000,1.960000,-0.420000
72.672328,0.242536,-0.120048,0.816424,-3.500000,-0.980000,-1.120000
72.676394,0.210816,0.079056,0.999424,0.700000,-1.260000,0.700000
72.680460,0.107848,0.041968,1.047736,0.000000,0.700000,-0.980000
72.684525,0.248880,-0.041480,0.891088,-2.100000,-1.680000,-1.120000
72.688591,0.211792,0.048800,1.026264,0.280000,-1.960000,0.140000
72.692657,0.209352,0.042944,0.998448,-0.980000,-1.540000,0.420000
72.696723,0.209352,0.063440,0.962824,0.140000,-0.280000,-0.700000
72.700789,0.340136,0.021960,1.136552,-1.400000,-0.140000,0.420000
72.704855,0.154208,-0.012688,0.788608,-2.240000,-3.080000,-0.420000
72.708921,0.122488,0.064904,1.030168,0.140000,1.820000,-1.400000
72.712987,0.322080,-0.066856,1.072136,-0.840000,-0.140000,-0.420000
72.717053,0.176168,-0.026352,0.802272,-0.840000,-2.800000,-0.140000
72.721118,0.203984,0.155184,1.164368,1.820000,2.520000,-0.980000
72.725184,0.170312,-0.046848,0.952576,-2.660000,0.280000,-0.420000
72.729250,0.258640,0.067832,0.832040,-0.560000,-3.220000,-0.140000
72.733316,0.242536,0.038064,1.162904,0.000000,1.540000,-1.120000
72.737382,0.168360,-0.084912,0.948184,-2.940000,0.140000,0.000000
72.741448,0.224480,0.055632,0.933056,0.560000,-1.960000,0.840000
72.745514,0.177144,0.058560,1.144848,0.140000,2.240000,-1.540000
72.749580,0.154696,-0.013176,0.819352,-1.820000,-4.760000,-0.840000
72.753646,0.304512,0.077104,0.963800,-0.140000,-1.680000,0.840000
72.757712,0.194712,-0.013176,1.133136,-0.280000,2.800000,-1.260000
72.761777,0.163480,-0.000488,0.799832,0.280000,-3.780000,-0.420000
72.765843,0.232776,0.087352,1.112640,-1.120000,1.680000,0.140000
72.769909,0.219112,-0.051240,1.019432,-1.960000,1.680000,-0.280000
72.773975,0.207400,0.058560,0.879864,1.960000,-5.460000,-0.560000
72.778041,0.223504,0.084912,1.087752,-1.960000,1.400000,-0.840000
72.782107,0.240096,-0.098088,0.925736,-3.640000,0.140000,-0.420000
72.786173,0.187392,0.067344,0.960384,2.800000,-1.820000,0.420000
72.790239,0.207888,0.011224,1.076040,-1.120000,2.800000,-0.280000
72.794305,0.231312,-0.060512,0.834968,-2.240000,-1.960000,-0.560000
72.798370,0.143960,0.143472,1.037976,1.680000,-3.080000,-1.400000
72.802436,0.192760,0.020496,0.989664,-1.820000,0.280000,-0.840000
72.806502,0.284992,-0.023424,0.946720,-1.540000,-2.100000,-0.140000
72.810568,0.220088,0.098088,1.147776,0.700000,0.280000,-0.420000
72.814634,0.160064,-0.024888,0.887184,-1.960000,-0.840000,-0.980000
72.818700,0.247416,-0.013664,0.977464,-1.540000,0.560000,-0.840000
72.822766,0.205936,0.038552,1.109224,0.840000,-0.140000,-0.560000
72.826832,0.179096,-0.014152,0.806664,0.420000,-4.620000,-1.400000
72.830898,0.266448,0.038064,1.091168,-0.980000,1.680000,-0.560000
72.834964,0.167384,0.005368,1.006744,-2.800000,2.240000,0.140000
72.839029,0.163968,0.068320,0.783728,0.280000,-3.220000,-0.280000
72.843095,0.239120,0.050264,1.151680,0.420000,0.980000,-1.400000
72.847161,0.223504,-0.083936,0.936960,-2.800000,-1.820000,-0.420000
72.851227,0.258640,0.077104,0.919392,0.700000,-3.220000,-0.700000
72.855293,0.224480,0.092232,1.256600,-1.400000,5.600000,-0.420000
72.859359,0.187880,-0.088328,0.767136,-2.240000,-1.680000,-1.400000
72.863425,0.229848,0.093208,0.955504,1.540000,-2.800000,-0.560000
72.867491,0.159088,0.027328,1.142408,-1.400000,0.980000,-1.400000
72.871557,0.227408,-0.080520,0.813496,-2.100000,-3.500000,-0.560000
72.875622,0.215696,0.130296,1.092632,1.120000,1.680000,-0.420000
72.879688,0.139568,-0.029768,1.036512,-1.540000,1.260000,-1.680000
72.883754,0.212768,-0.007320,0.776896,-0.420000,-5.740000,-0.420000
72.887820,0.221552,0.119560,1.148264,-0.140000,1.260000,0.560000
72.891886,0.255224,-0.041968,1.015528,-1.260000,-0.840000,-0.840000
72.895952,0.251808,0.021960,0.849608,0.560000,-3.080000,-0.700000
72.900018,0.234728,0.014640,1.155584,-2.520000,4.060000,0.140000
72.904084,0.139080,-0.032696,0.808128,-0.560000,-2.380000,-0.840000
72.908150,0.171288,0.151280,1.018944,1.680000,-1.540000,-0.420000
72.912216,0.247416,-0.055632,1.017480,-2.100000,2.100000,-1.120000
72.916281,0.267912,-0.017080,0.909632,-0.560000,-2.800000,-0.420000
72.920347,0.170312,0.161040,1.070184,1.260000,1.960000,-0.420000
72.924413,0.195688,-0.080032,1.000400,-3.500000,2.380000,-0.420000
72.928479,0.251808,0.030256,0.919392,-0.280000,-3.780000,-0.280000
72.932545,0.217648,0.083448,1.138504,0.840000,0.280000,-0.420000
72.936611,0.206912,-0.043920,0.851072,-2.660000,0.420000,-1.120000
72.940677,0.247904,0.012688,1.016016,-0.140000,0.000000,-0.140000
72.944743,0.163968,0.027328,1.000888,0.560000,0.000000,-1.120000
72.948809,0.188856,-0.047824,0.830088,-1.400000,-1.120000,-1.120000
72.952874,0.232776,0.087352,1.170224,0.420000,0.420000,-0.280000
72.956940,0.163480,0.030256,0.877912,0.420000,-1.400000,-1.120000
72.961006,0.228872,0.053680,0.924760,-1.120000,-0.280000,-0.280000
72.965072,0.267912,0.020496,1.190720,-2.100000,3.220000,-0.700000
72.969138,0.166408,-0.017568,0.900848,-0.980000,-3.360000,-0.140000
72.973204,0.179584,0.084424,0.925736,0.840000,-1.680000,-0.280000
72.977270,0.312320,-0.043920,1.167784,-1.680000,3.220000,-0.840000
72.981336,0.166896,-0.008784,0.807152,-1.680000,-3.080000,-0.420000
72.985402,0.162992,0.165432,1.057496,1.540000,0.420000,-0.840000
72.989468,0.223504,-0.109800,1.075552,-2.240000,2.800000,-1.400000
72.993533,0.210328,-0.052704,0.730048,-0.420000,-4.900000,0.140000
72.997599,0.213256,0.158112,1.152168,1.260000,0.840000,-0.420000
73.001665,0.213256,-0.030256,1.035048,-3.220000,2.240000,-0.840000
73.005731,0.222040,0.047824,0.847168,0.560000,-4.480000,0.420000
73.009797,0.201056,0.094672,1.108736,0.700000,0.980000,-0.980000
73.013863,0.191296,-0.119072,0.915976,-3.080000,-1.960000,-1.400000
73.017929,0.219600,0.061000,0.946232,0.140000,-1.260000,0.560000
73.021995,0.208864,0.093696,1.151192,-0.140000,2.380000,-0.420000
73.026061,0.215208,-0.064416,0.838872,-0.840000,-3.780000,-0.700000
73.030126,0.204960,0.073200,0.975024,-0.140000,-1.400000,-0.840000
73.034192,0.217160,0.005856,1.056032,-1.260000,1.260000,-1.120000
73.038258,0.214232,0.013176,0.909144,-0.280000,-1.680000,-0.280000
73.042324,0.202520,0.090280,1.044320,0.000000,2.100000,-1.120000
73.046390,0.248392,-0.079544,0.985272,-2.520000,1.120000,0.140000
73.050456,0.196176,0.050752,0.920856,0.840000,-2.800000,-0.700000
73.054522,0.193736,0.056120,1.089216,-0.980000,1.540000,-0.980000
73.058588,0.259616,-0.062952,0.882304,-3.220000,0.700000,-0.980000
73.062654,0.183000,0.063928,1.016504,0.980000,-1.680000,-0.700000
73.066720,0.154696,0.067344,1.068720,0.000000,0.000000,-1.120000
73.070785,0.276696,-0.080032,0.827160,-1.820000,-0.420000,0.000000
73.074851,0.211304,0.104432,1.124352,0.560000,0.560000,-1.120000
73.078917,0.166408,0.038064,0.942328,-0.980000,-1.820000,-1.540000
73.082983,0.240096,-0.001952,0.911584,-1.680000,-0.420000,-0.420000
73.087049,0.188368,0.075640,1.154120,-0.560000,4.200000,-1.120000
73.091115,0.181536,-0.018544,0.920368,-0.840000,-4.480000,-0.980000
73.095181,0.265472,-0.003416,0.911584,-0.840000,-0.700000,-0.560000
73.099247,0.226920,0.015616,1.191696,-0.560000,2.800000,-0.140000
73.103313,0.137616,-0.018544,0.738344,0.000000,-3.780000,-1.120000
73.107378,0.236192,0.062952,1.059448,-0.840000,0.980000,-1.120000
73.111444,0.209840,-0.033184,1.067744,-2.100000,0.700000,-0.980000
73.115510,0.145424,0.040992,0.807640,1.680000,-6.300000,-0.700000
73.119576,0.203008,0.142496,1.126792,0.140000,1.120000,-1.400000
73.123642,0.287920,-0.074176,1.052616,-4.760000,-0.280000,-0.560000
73.127708,0.203984,0.072224,0.854000,0.980000,-4.200000,-0.420000
73.131774,0.207400,0.099064,1.187304,-0.140000,1.540000,-1.820000
73.135840,0.284504,-0.182512,0.828136,-3.360000,-2.660000,-0.980000
73.139906,0.153232,0.069296,0.936472,1.820000,-1.960000,-0.840000
73.143972,0.207888,0.062952,1.110200,0.700000,2.660000,-1.960000
73.148037,0.199592,-0.095648,0.805688,-3.220000,-1.820000,-1.260000
73.152103,0.199592,0.150792,1.030656,0.980000,-1.120000,-0.700000
73.156169,0.220088,-0.004392,1.014064,-1.540000,0.700000,-1.540000
73.160235,0.216672,0.003904,0.937448,-1.540000,-0.840000,-0.980000
73.164301,0.248880,0.084912,1.093120,0.140000,-0.980000,-0.420000
73.168367,0.220576,-0.014640,0.957456,-1.960000,0.000000,-1.120000
73.172433,0.187392,0.022448,0.900848,0.140000,0.000000,-1.400000
73.176499,0.234240,0.007808,1.085800,-0.840000,1.540000,-0.280000
73.180565,0.197640,-0.018544,0.899384,-0.840000,-2.940000,-0.840000
73.184630,0.161528,0.139568,1.063840,0.700000,0.140000,-0.700000
73.188696,0.244976,-0.011224,1.006744,-1.820000,0.560000,-0.420000
73.192762,0.247416,-0.008784,0.800320,-1.260000,-1.960000,-0.140000
73.196828,0.199592,0.105408,1.201944,0.980000,1.120000,-0.840000
73.200894,0.131272,-0.063440,0.923296,-2.800000,-0.280000,-0.700000
73.204960,0.239608,0.014640,0.896456,-0.280000,-1.400000,-0.140000
73.209026,0.241560,0.052704,1.159488,1.260000,0.700000,-0.980000
73.213092,0.203984,-0.042944,0.825208,-1.680000,-2.520000,-1.260000
73.217158,0.286944,0.033672,0.996008,-1.540000,0.840000,-0.140000
73.221223,0.125904,0.039040,1.104832,-0.420000,1.680000,-1.260000
73.225289,0.163480,-0.024400,0.785192,0.700000,-3.920000,-0.560000
73.229355,0.291824,0.066856,1.103856,-0.420000,0.840000,-0.140000
73.233421,0.144936,0.043920,1.070672,-1.400000,-0.140000,-1.120000
73.237487,0.161528,0.077592,0.806176,-0.420000,-5.180000,-0.140000
73.241553,0.320128,0.036112,1.149728,-1.820000,1.260000,-0.560000
73.245619,0.220576,-0.088328,0.974536,-2.380000,-1.400000,-0.280000
73.249685,0.196176,0.077592,0.878400,2.240000,-4.060000,-0.700000
73.253751,0.268888,0.014640,1.149728,-1.120000,3.920000,-0.700000
73.257817,0.231800,-0.097600,0.838384,-2.240000,-0.700000,-0.140000
73.261882,0.125416,0.144936,0.929152,2.660000,-1.260000,-0.560000
73.265948,0.153720,0.003416,1.107272,-2.240000,2.800000,-1.820000
73.270014,0.267424,-0.060512,0.844240,-2.520000,-3.080000,-0.420000
73.274080,0.221064,0.164456,1.136552,1.960000,-1.540000,-0.140000
73.278146,0.159088,-0.035136,0.938424,-2.380000,1.680000,-1.680000
73.282212,0.255712,-0.026840,0.945744,-1.260000,-3.780000,-0.420000
73.286278,0.204472,0.130296,1.122400,1.260000,-0.560000,-0.420000
73.290344,0.183488,-0.024888,0.934520,-1.960000,2.100000,-1.260000
73.294410,0.298168,-0.030744,0.905240,-0.700000,-1.820000,-0.700000
73.298475,0.193248,0.052704,1.060424,-0.420000,-0.420000,-0.420000
73.302541,0.165432,-0.025864,0.879864,-0.980000,-1.120000,-0.980000
73.306607,0.207888,0.049288,1.062376,-0.560000,1.680000,-0.840000
73.310673,0.218136,0.011712,0.941840,-1.260000,-1.260000,-0.560000
73.314739,0.187392,-0.006832,0.889136,0.280000,-1.960000,-0.420000
73.318805,0.248392,0.112728,1.159976,0.000000,1.680000,-1.120000
73.322871,0.278648,-0.053192,0.926712,-2.380000,-1.260000,0.420000
73.326937,0.173728,0.073200,0.903776,0.420000,-0.280000,-1.400000
73.331003,0.212280,0.045872,1.160952,-0.980000,3.500000,-0.980000
73.335069,0.228872,-0.118096,0.805688,-1.400000,-2.660000,0.420000
73.339134,0.154696,0.174704,1.080432,1.260000,0.420000,-0.560000
73.343200,0.150792,0.042944,1.099952,-0.700000,0.000000,-1.820000
73.347266,0.258640,-0.103944,0.705160,-1.680000,-5.740000,-1.120000
73.351332,0.224480,0.112240,1.163392,-0.420000,2.800000,-0.420000
73.355398,0.194224,-0.015616,1.052128,-0.140000,-0.420000,-1.960000
73.359464,0.225456,0.005856,0.789096,-0.280000,-3.220000,-1.120000
73.363530,0.219600,0.038552,1.183400,-1.540000,3.500000,-1.260000
73.367596,0.191296,-0.039528,0.882304,-0.420000,-2.380000,-1.260000
73.371662,0.254248,0.048312,0.932568,1.260000,-3.360000,-0.700000
73.375727,0.243512,0.039528,1.150216,-2.100000,3.360000,-0.840000
73.379793,0.162992,-0.039040,0.826184,-0.840000,-2.660000,-1.120000
73.383859,0.179584,0.162504,1.010160,1.820000,0.140000,-0.420000
73.387925,0.243512,-0.059536,1.057008,-3.080000,2.100000,-0.980000
73.391991,0.211792,0.017080,0.889624,0.000000,-5.040000,-0.560000
73.396057,0.162016,0.148352,1.072136,1.120000,-0.560000,-0.420000
73.400123,0.269864,-0.091256,1.009184,-3.500000,0.980000,-0.840000
73.404189,0.254736,-0.001952,0.865712,1.120000,-2.380000,-0.560000
73.408255,0.150792,0.101504,1.137040,0.140000,1.680000,-1.540000
73.412321,0.244976,-0.096136,0.828624,-3.640000,0.280000,-1.400000
73.416386,0.227408,0.040016,1.044808,0.000000,-0.280000,-0.420000
73.420452,0.153232,0.067344,0.992592,1.960000,-0.980000,-1.260000
73.424518,0.231312,-0.047336,0.864736,-1.540000,-0.140000,-1.400000
73.428584,0.202032,0.109312,1.113128,-0.840000,1.400000,0.000000
73.432650,0.211304,0.030744,0.919880,-0.140000,-1.680000,-0.560000
73.436716,0.253272,0.007808,0.916464,-1.260000,0.000000,-0.280000
73.440782,0.217648,0.031232,1.189744,-1.960000,2.100000,-0.700000
73.444848,0.194224,-0.004880,0.886696,0.000000,-3.080000,-0.280000
73.448914,0.201544,0.048800,0.959408,1.120000,0.280000,-0.980000
73.452979,0.241560,-0.018056,1.108736,-1.680000,2.240000,-0.980000
73.457045,0.166408,-0.021472,0.793488,-0.700000,-5.040000,-0.560000
73.461111,0.182512,0.166408,1.090192,-0.420000,2.100000,-1.260000
73.465177,0.278648,-0.068320,1.082872,-2.520000,1.260000,-1.260000
73.469243,0.173240,-0.035136,0.756400,0.140000,-4.340000,0.000000
73.473309,0.209352,0.147376,1.183400,1.120000,2.800000,-0.700000
73.477375,0.213256,-0.076616,0.978440,-2.940000,0.560000,-1.120000
73.481441,0.212280,0.057096,0.854976,-0.420000,-4.200000,0.280000
73.485507,0.249368,0.101992,1.140456,0.140000,2.800000,-1.120000
73.489573,0.209840,-0.123952,0.856440,-2.800000,-0.980000,-0.420000
73.493638,0.200568,0.046360,0.985760,0.840000,-1.680000,0.000000
73.497704,0.186416,0.050264,1.079944,0.140000,1.680000,-1.120000
73.501770,0.191784,-0.037088,0.829600,-2.100000,-1.260000,-0.420000
73.505836,0.250344,0.125904,1.025776,0.700000,-0.420000,0.000000
73.509902,0.220576,0.021472,1.069208,-0.980000,0.840000,-0.840000
73.513968,0.176656,0.005856,0.894016,-0.980000,-2.380000,-0.840000
73.518034,0.243024,0.078568,1.106784,-0.840000,0.700000,-0.700000
73.522100,0.259616,-0.089304,0.936472,-1.540000,0.700000,0.140000
73.526166,0.180072,0.077104,0.934520,0.980000,-1.260000,-0.280000
73.530231,0.209352,0.008784,1.057496,-0.560000,1.260000,-0.700000
73.534297,0.262056,-0.085400,0.854488,-2.240000,0.280000,-0.280000
73.538363,0.149816,0.126880,1.030168,1.960000,2.380000,-0.980000
73.542429,0.188856,0.008784,1.016504,-0.700000,0.980000,-0.840000
73.546495,0.259616,-0.030744,0.882792,-1.960000,-0.420000,-0.700000
73.550561,0.157136,0.140544,1.129232,1.260000,2.660000,-0.840000
73.554627,0.183488,-0.028304,0.932080,-0.700000,-1.540000,-0.560000
73.558693,0.305488,0.006832,0.932080,-1.400000,0.000000,0.000000
73.562759,0.190808,0.070760,1.161440,-0.560000,2.660000,-0.420000
73.566825,0.128344,-0.018544,0.833016,-0.560000,-2.520000,-0.700000
73.570890,0.289384,-0.002440,1.023824,-0.700000,0.840000,0.000000
73.574956,0.199104,0.016592,1.074088,-0.700000,1.540000,-0.280000
73.579022,0.165920,0.044896,0.809592,0.420000,-3.220000,-0.140000
73.583088,0.279136,0.096624,1.134600,-0.420000,2.520000,-0.840000
73.587154,0.193736,-0.104432,0.923784,-1.820000,0.560000,-0.420000
73.591220,0.184464,0.080520,0.866200,0.840000,-1.960000,-0.560000
73.595286,0.277184,0.056608,1.207800,-0.980000,3.780000,-0.840000
73.599352,0.198128,-0.135664,0.824232,-2.380000,0.700000,-0.420000
73.603418,0.219600,0.142984,0.968680,2.380000,-1.400000,-0.420000
73.607483,0.150304,-0.000976,1.094096,-1.680000,4.200000,-1.400000
73.611549,0.237168,-0.042456,0.852048,-1.400000,-1.540000,-0.280000
73.615615,0.175192,0.174216,1.072136,1.120000,1.120000,0.000000
73.619681,0.152256,0.000976,1.082384,-2.800000,2.240000,-1.540000
73.623747,0.258640,-0.056120,0.831552,-0.700000,-4.060000,0.000000
73.627813,0.215696,0.093696,1.105808,1.260000,0.980000,0.140000
73.631879,0.200080,-0.026352,0.984784,-1.960000,0.840000,-1.260000
73.635945,0.244000,0.024888,0.882304,-0.840000,-0.840000,-0.140000
73.640011,0.221064,0.041480,1.155096,-1.400000,2.800000,-0.140000
73.644077,0.167872,-0.051728,0.818376,-0.280000,-1.120000,-0.840000
73.648142,0.167872,0.051728,1.006256,0.840000,-1.680000,-0.980000
73.652208,0.250832,0.022448,1.036512,-2.800000,0.840000,0.140000
73.656274,0.175192,0.020984,0.885232,-0.700000,-1.680000,-0.840000
73.660340,0.227896,0.145912,1.135576,1.120000,0.700000,-0.840000
73.664406,0.273280,-0.096136,0.931104,-3.080000,-0.700000,-0.420000
73.668472,0.222040,0.040504,0.927200,0.280000,-1.960000,-0.420000
73.672538,0.141520,0.098576,1.135576,0.280000,1.680000,-0.840000
73.676604,0.257664,-0.092232,0.854000,-2.520000,-1.400000,-0.280000
73.680670,0.218136,0.081496,1.058472,0.560000,0.980000,-1.120000
73.684735,0.166408,0.006832,0.980392,0.280000,0.700000,-1.260000
73.688801,0.191784,-0.042944,0.804712,-1.960000,-2.800000,0.000000
73.692867,0.208376,0.136640,1.207312,0.560000,2.240000,-0.280000
73.696933,0.222528,-0.013664,0.953064,-0.700000,-1.820000,-0.840000
73.700999,0.236680,0.017568,0.882792,-1.540000,-1.680000,-0.420000
73.705065,0.230336,0.011712,1.172664,-1.260000,3.360000,-0.560000
73.709131,0.146888,-0.054168,0.808616,0.280000,-3.360000,-0.560000
73.713197,0.206424,0.075640,1.013576,0.280000,-0.420000,-0.840000
73.717263,0.249856,-0.018544,1.096536,-1.540000,2.520000,-0.420000
73.721328,0.220576,0.031720,0.757376,0.280000,-4.340000,0.140000
73.725394,0.161040,0.150792,1.098000,0.560000,2.100000,-1.400000
73.729460,0.272304,-0.082960,1.025288,-3.640000,1.120000,-1.400000
73.733526,0.157136,0.028304,0.898408,0.280000,-2.800000,0.000000
73.737592,0.225944,0.125904,1.196088,0.700000,3.080000,-0.980000
73.741658,0.254736,-0.145912,0.842288,-3.080000,-0.560000,-1.120000
73.745724,0.209840,0.094184,0.964288,0.840000,-1.260000,0.000000
73.749790,0.151768,0.072224,1.109712,0.280000,2.240000,-1.120000
73.753856,0.181048,-0.095160,0.812520,-1.820000,-0.420000,-1.260000
73.757922,0.267912,0.064904,0.999912,1.120000,-1.960000,-0.700000
73.761987,0.176656,0.013664,1.061400,-1.260000,0.980000,-0.420000
73.766053,0.230336,0.056608,0.903776,-0.840000,0.000000,-0.560000
73.770119,0.248880,0.054656,1.099952,-0.420000,1.400000,-0.140000
73.774185,0.166408,-0.024400,0.910120,-1.540000,-1.540000,-1.120000
73.778251,0.206912,0.040504,0.915976,0.140000,-0.280000,-0.980000
73.782317,0.248880,0.024400,1.164368,-1.540000,1.820000,0.000000
73.786383,0.180560,-0.023912,0.849608,-0.280000,-2.800000,-0.420000
73.790449,0.183976,0.123952,1.082872,1.680000,0.840000,-1.260000
73.794515,0.219112,-0.071736,0.984296,-2.940000,1.260000,-0.700000
73.798580,0.182512,0.026352,0.812520,-0.700000,-2.940000,0.560000
73.802646,0.188856,0.147864,1.204384,1.540000,0.980000,-0.700000
73.806712,0.257176,-0.094184,0.916464,-3.080000,-0.700000,-0.420000
73.810778,0.245464,0.016592,0.924760,-0.280000,-1.540000,0.000000
73.814844,0.216672,0.047336,1.153632,1.120000,2.380000,-0.980000
73.818910,0.169824,-0.096624,0.786168,-1.400000,0.140000,-0.980000
73.822976,0.222528,0.071736,1.013088,0.000000,0.420000,-0.840000
73.827042,0.206912,0.067344,1.057984,-0.560000,0.000000,-1.400000
73.831108,0.189344,0.023424,0.822280,-1.540000,-0.840000,0.000000
73.835174,0.275720,0.109312,1.136552,-0.700000,2.940000,-0.420000
73.839239,0.186904,-0.047824,0.996496,-1.260000,-0.420000,-1.120000
73.843305,0.145424,0.040504,0.912072,0.420000,-2.520000,-0.560000
73.847371,0.226920,0.036600,1.150216,-0.840000,3.360000,-0.840000
73.851437,0.239120,-0.078568,0.864736,-1.400000,-1.680000,0.000000
73.855503,0.190808,0.131760,0.944280,1.400000,-2.660000,0.000000
73.859569,0.204960,0.002440,1.146312,-1.960000,3.220000,-0.560000
73.863635,0.227408,-0.080032,0.797880,-1.540000,-1.680000,-0.420000
73.867701,0.172752,0.127856,1.056032,2.100000,-1.400000,0.140000
73.871767,0.173728,-0.040016,0.980392,-1.960000,2.520000,-1.540000
73.875832,0.270840,-0.001464,0.930128,-1.680000,-2.520000,0.560000
73.879898,0.173728,0.155184,1.084336,1.400000,-0.140000,-0.840000
73.883964,0.264984,-0.040504,0.920856,-2.380000,-0.140000,-0.840000
73.888030,0.255712,-0.009760,0.982344,-1.120000,1.120000,-0.420000
73.892096,0.142496,0.042944,1.121912,0.280000,1.400000,-0.700000
73.896162,0.153232,-0.022448,0.836920,0.000000,-1.680000,-0.980000
73.900228,0.278648,0.066368,1.050176,-0.420000,0.420000,-0.280000
73.904294,0.171776,0.046848,1.030168,-1.540000,0.000000,-0.420000
73.908360,0.213256,0.013176,0.839848,0.700000,-2.660000,-0.420000
73.912426,0.238144,0.047824,1.120448,-0.700000,3.080000,-0.840000
73.916491,0.152256,-0.082960,0.922808,-2.660000,-0.560000,0.700000
73.920557,0.175192,0.091256,0.924272,1.680000,-2.520000,-0.840000
73.924623,0.288896,0.040992,1.144848,-0.420000,2.240000,-0.980000
73.928689,0.267424,-0.121512,0.804712,-3.220000,-1.400000,0.000000
73.932755,0.109800,0.160064,1.016992,1.400000,-0.560000,-0.980000
73.936821,0.185928,0.036600,1.140944,-0.560000,3.080000,-0.420000
73.940887,0.220576,-0.062464,0.769576,-1.540000,-2.100000,-0.280000
73.944953,0.243512,0.133224,1.139968,0.840000,-0.980000,-0.700000
73.949019,0.179096,-0.011712,0.994056,-2.100000,0.140000,-0.980000
73.953084,0.235704,-0.010248,0.911584,-0.700000,-1.820000,0.420000
73.957150,0.231312,0.089792,1.164856,0.700000,1.540000,-0.140000
73.961216,0.187392,-0.054168,0.880352,-1.540000,-2.660000,-1.120000
73.965282,0.242536,0.024888,0.944280,-0.700000,-0.420000,-0.700000
73.969348,0.179584,0.000000,1.064328,-0.560000,1.960000,-0.140000
73.973414,0.171288,-0.006344,0.805200,0.140000,-3.220000,-1.120000
73.977480,0.203008,0.106872,1.107760,0.700000,0.420000,-0.980000
73.981546,0.201056,-0.060512,1.024800,-2.100000,0.140000,0.140000
73.985612,0.213256,0.087352,0.877912,0.560000,-3.220000,0.560000
73.989678,0.247416,0.089304,1.109712,-0.140000,0.980000,-1.120000
73.993743,0.239608,-0.113216,0.871568,-4.200000,-0.560000,-0.700000
73.997809,0.229848,0.112240,1.024312,0.700000,-2.100000,0.000000
74.001875,0.123464,0.036112,1.109712,0.840000,3.360000,-0.700000
74.005941,0.233752,-0.127856,0.809592,-1.820000,-1.820000,-0.700000
74.010007,0.208864,0.146400,1.055056,0.280000,-2.240000,-0.700000
74.014073,0.194224,0.036600,1.049688,-0.980000,0.280000,-0.840000
74.018139,0.201544,-0.028792,0.840824,-0.980000,-2.100000,-0.140000
74.022205,0.249368,0.111264,1.145336,0.420000,0.700000,-0.280000
74.026271,0.145912,-0.080032,0.947208,-1.540000,-2.380000,-1.540000
74.030336,0.264008,0.040504,0.914512,-1.120000,-0.700000,-0.560000
74.034402,0.214232,0.018544,1.111664,-1.260000,3.500000,0.560000
74.038468,0.168360,-0.032696,0.806176,0.280000,-3.220000,-0.280000
74.042534,0.237168,0.099064,1.024800,0.840000,-0.140000,-0.840000
74.046600,0.215208,-0.018544,1.052128,-2.660000,0.980000,-0.420000
74.050666,0.204960,0.009760,0.816912,0.000000,-1.540000,-0.420000
74.054732,0.168360,0.128344,1.152656,1.120000,2.520000,-0.560000
74.058798,0.249368,-0.057096,0.966240,-3.640000,0.560000,-0.420000
74.062864,0.217160,0.075640,0.917928,-0.840000,-3.640000,0.000000
74.066930,0.183488,0.094672,1.227808,1.400000,1.120000,-0.840000
74.070995,0.242536,-0.163968,0.763720,-2.940000,-0.140000,-0.140000
74.075061,0.233752,0.059048,1.021872,0.420000,-1.820000,-0.420000
74.079127,0.146400,0.089792,1.081408,-0.560000,0.840000,-1.120000
74.083193,0.193736,-0.067832,0.834480,-1.260000,-1.820000,-0.700000
74.087259,0.225456,0.078568,1.076040,1.120000,0.700000,-0.420000
74.091325,0.206912,-0.008296,0.977464,-1.400000,-2.240000,-1.540000
74.095391,0.193736,0.042456,0.891088,-1.680000,-1.400000,-0.280000
74.099457,0.218624,0.072224,1.181936,-0.420000,1.540000,-0.140000
74.103523,0.209840,-0.031232,0.855464,-0.560000,-3.080000,-0.280000
74.107588,0.194712,0.035136,0.947208,0.560000,-2.660000,-1.120000
74.111654,0.263032,-0.008296,1.123376,-2.240000,2.240000,0.280000
74.115720,0.191784,0.000000,0.786168,-0.840000,-2.380000,0.000000
74.119786,0.190808,0.164456,1.110200,1.680000,0.140000,-0.840000
74.123852,0.243024,-0.099064,0.972096,-2.660000,1.960000,-0.840000
74.127918,0.186904,0.016592,0.894504,-1.260000,-0.980000,0.140000
74.131984,0.212768,0.156160,1.203896,0.700000,0.560000,-1.260000
74.136050,0.247416,-0.132248,0.840336,-2.800000,0.560000,-1.120000
74.140116,0.250832,0.040504,0.976488,1.260000,-0.700000,0.000000
74.144181,0.120536,0.060024,1.084336,0.280000,2.100000,-1.400000
74.148247,0.206424,-0.075152,0.802272,-2.100000,-1.260000,-0.980000
74.152313,0.195200,0.107360,1.041880,0.280000,0.140000,-0.560000
74.156379,0.216672,0.015616,1.007720,-0.700000,0.560000,-1.120000
74.160445,0.164944,0.014640,0.885232,-0.700000,-0.560000,-0.840000
74.164511,0.304512,0.067832,1.194136,-0.420000,1.540000,-0.420000
74.168577,0.201544,-0.025376,0.910608,-1.960000,-0.140000,-0.280000
74.172643,0.147864,0.107848,0.984296,0.280000,-1.260000,-0.280000
74.176709,0.257664,-0.015616,1.044320,-1.680000,1.680000,-0.840000
74.180775,0.218136,-0.071248,0.879864,-1.540000,-2.240000,0.420000
74.184840,0.156648,0.133224,1.006256,1.960000,-0.420000,-0.840000
74.188906,0.238144,-0.041480,1.046760,-2.100000,2.660000,-0.560000
74.192972,0.176168,-0.022448,0.828136,-1.260000,-0.700000,-0.840000
74.197038,0.197152,0.122976,1.150216,1.680000,-0.420000,-1.540000
74.201104,0.223016,-0.062464,0.932568,-2.660000,0.140000,-1.260000
74.205170,0.215208,0.028792,0.944768,-1.260000,-0.140000,-0.140000
74.209236,0.217648,0.129808,1.164856,1.120000,0.560000,-0.840000
74.213302,0.207888,-0.108336,0.809592,-1.400000,-1.120000,-0.560000
74.217368,0.265960,0.042456,0.984784,-0.980000,0.140000,-0.700000
74.221433,0.134200,0.050264,1.055056,-0.980000,0.840000,-0.980000
74.225499,0.165920,0.064416,0.856928,-0.700000,-1.820000,-0.420000
74.229565,0.280112,0.035624,1.129232,-0.280000,1.680000,-0.140000
74.233631,0.216184,-0.026352,0.956968,-1.120000,-0.560000,-0.560000
74.237697,0.142008,0.073200,0.946232,0.140000,-2.660000,-0.980000
74.241763,0.273768,0.025864,1.139480,-1.260000,3.640000,-0.280000
74.245829,0.232288,-0.107360,0.806176,-1.680000,-0.700000,0.420000
74.249895,0.203984,0.131272,1.000888,1.400000,-1.260000,-0.700000
74.253961,0.181536,-0.043432,1.025288,-1.820000,3.920000,-1.680000
74.258027,0.189832,-0.049288,0.861808,-1.680000,-0.980000,0.140000
74.262092,0.188368,0.126392,1.075552,3.360000,0.420000,-1.120000
74.266158,0.229360,-0.015616,1.004304,-2.660000,2.660000,-0.560000
74.270224,0.227408,0.061488,0.926224,-2.100000,-2.240000,-0.280000
74.274290,0.177144,0.130784,1.140944,0.420000,1.680000,-0.560000
74.278356,0.204960,-0.079056,0.923296,-2.100000,-0.840000,-0.980000
74.282422,0.287432,-0.025376,0.901336,-2.240000,-1.400000,0.280000
74.286488,0.173240,0.094672,1.186328,0.420000,1.540000,-0.560000
74.290554,0.137128,-0.019032,0.836920,0.560000,-1.400000,-0.560000
74.294620,0.241072,0.059048,0.994056,-0.280000,1.260000,-0.560000
74.298685,0.193736,-0.033184,0.983320,-1.680000,0.140000,-0.560000
74.302751,0.168360,0.028792,0.920856,-0.420000,-2.940000,-0.280000
74.306817,0.252784,0.099064,1.156560,-0.420000,1.540000,-0.280000
74.310883,0.244488,-0.082960,0.929640,-1.960000,-0.140000,0.280000
74.314949,0.151768,0.063928,0.855464,0.980000,-2.380000,-1.260000
74.319015,0.245952,0.061488,1.146800,-0.980000,2.660000,-0.560000
74.323081,0.221064,-0.098576,0.849608,-2.380000,-0.280000,0.560000
74.327147,0.124440,0.156160,1.040904,2.800000,-1.400000,-0.560000
74.331213,0.190320,-0.009272,1.016016,-1.820000,0.840000,-1.260000
74.335279,0.280600,-0.035624,0.881816,-2.240000,-2.380000,-0.140000
74.339344,0.197152,0.132736,1.147776,1.680000,1.400000,0.000000
74.343410,0.185928,-0.014640,0.980880,-0.420000,-0.840000,-1.120000
74.347476,0.261568,-0.021960,0.868152,-2.240000,-1.540000,-0.420000
74.351542,0.202520,0.065880,1.127768,0.000000,1.120000,-0.420000
74.355608,0.188368,-0.033672,0.839848,-0.980000,-1.400000,-0.840000
74.359674,0.230336,0.049776,1.033096,-0.700000,1.820000,-0.280000
74.363740,0.156160,-0.017080,1.041392,-0.980000,2.520000,-0.420000
74.367806,0.199592,-0.035136,0.822768,0.700000,-3.080000,-0.280000
74.371872,0.245464,0.110776,1.083848,0.140000,1.680000,-0.980000
74.375937,0.203984,-0.012200,1.052128,-2.660000,0.420000,0.140000
74.380003,0.145912,0.122000,0.881816,0.980000,-4.760000,-0.700000
74.384069,0.268888,0.067344,1.126792,-0.840000,2.800000,-0.420000
74.388135,0.247416,-0.145424,0.890600,-3.640000,-0.140000,0.280000
74.392201,0.162992,0.089304,0.981368,2.100000,-1.540000,0.140000
74.396267,0.195200,0.039528,1.115080,0.280000,1.540000,-0.840000
74.400333,0.216672,-0.061976,0.765672,-2.660000,-1.540000,-0.420000
74.404399,0.190320,0.149816,1.101904,1.260000,-0.560000,-0.840000
74.408465,0.207888,-0.011712,1.011624,-0.980000,0.280000,-0.840000
74.412531,0.225944,-0.047824,0.874984,-2.100000,-0.700000,-0.840000
74.416596,0.231800,0.071248,1.143384,0.420000,1.680000,0.000000
74.420662,0.181536,-0.027328,0.852536,-1.540000,0.000000,-0.140000
74.424728,0.215208,0.056608,1.004304,-0.140000,1.260000,0.140000
74.428794,0.208376,0.018056,1.082384,-0.840000,2.100000,0.000000
74.432860,0.146400,-0.049288,0.780800,-0.140000,-2.800000,-1.260000
74.436926,0.219112,0.122488,1.128744,0.560000,1.400000,-0.560000
74.440992,0.235704,-0.024888,1.014552,-2.100000,0.980000,0.140000
74.445058,0.207400,0.027816,0.850096,0.420000,-3.080000,-0.420000
74.449124,0.160064,0.128344,1.177056,0.140000,2.100000,-1.120000
74.453189,0.261568,-0.081984,0.893528,-3.920000,-0.560000,-0.140000
74.457255,0.222528,0.039528,0.942328,0.140000,-0.840000,-0.140000
74.461321,0.177632,0.076616,1.175592,0.840000,1.680000,-0.840000
74.465387,0.217648,-0.132248,0.732000,-2.380000,-1.960000,-0.840000
74.469453,0.188368,0.116144,1.109712,0.980000,2.100000,0.000000
74.473519,0.164944,-0.003904,0.984784,0.280000,1.540000,-0.840000
74.477585,0.234240,0.019520,0.821792,-1.820000,-1.400000,-0.840000
74.481651,0.248392,0.105896,1.146312,-1.260000,2.380000,-0.280000
74.485717,0.155672,-0.024400,0.947696,-1.680000,-0.420000,-0.560000
74.489782,0.221552,0.035624,0.969168,1.260000,-0.980000,0.000000
74.493848,0.282064,-0.004392,1.147288,-1.260000,3.360000,0.280000
74.497914,0.159088,-0.027328,0.816424,-1.260000,-2.380000,-0.700000
74.501980,0.162504,0.149816,1.028704,1.680000,-0.840000,-0.560000
74.506046,0.239120,-0.029768,1.056032,-2.240000,3.780000,-0.560000
74.510112,0.172264,-0.043432,0.822280,-0.980000,-2.660000,-0.420000
74.514178,0.216184,0.104432,1.077016,0.980000,0.000000,-0.840000
74.518244,0.238632,-0.057096,0.985760,-3.220000,1.820000,-0.560000
74.522310,0.173240,0.029280,0.948672,0.420000,-0.420000,0.280000
74.526376,0.182024,0.109800,1.087264,1.260000,0.700000,-0.840000
74.530441,0.226920,-0.071736,0.878888,-2.240000,-0.420000,-0.560000
74.534507,0.256688,0.014152,1.030168,-0.840000,0.140000,-0.280000
74.538573,0.183976,0.061976,1.013576,0.420000,-0.280000,-0.280000
74.542639,0.175680,0.055144,0.832528,-0.560000,-1.540000,-0.700000
74.546705,0.258152,0.063928,1.153144,-1.960000,4.480000,-0.280000
74.550771,0.170312,-0.034648,0.954040,0.000000,-1.120000,0.140000
74.554837,0.181536,0.108824,0.996008,1.120000,-0.560000,-0.140000
74.558903,0.253272,-0.008296,1.109712,-2.380000,4.620000,-1.120000
74.562969,0.195688,-0.108336,0.781776,-2.520000,-3.640000,-0.420000
74.567034,0.217648,0.095648,1.002840,2.240000,-0.980000,-0.280000
74.571100,0.179096,-0.018544,1.106784,-1.680000,4.900000,-0.980000
74.575166,0.184464,-0.020008,0.818864,-0.840000,-1.960000,-0.420000
74.579232,0.171776,0.134200,1.082384,2.100000,0.000000,-0.840000
74.583298,0.250832,-0.031232,0.994056,-2.380000,1.820000,-1.260000
74.587364,0.190808,0.021960,0.858392,-0.700000,-3.360000,0.560000
74.591430,0.209840,0.122000,1.165832,0.560000,1.400000,-0.700000
74.595496,0.193248,-0.074176,0.977464,-2.240000,0.000000,-0.420000
74.599562,0.279624,0.063440,0.946720,-0.420000,0.000000,0.560000
74.603628,0.165432,0.024400,1.039440,0.700000,2.100000,-0.420000
74.607693,0.150304,-0.020984,0.849120,-1.820000,-2.240000,-0.700000
74.611759,0.246440,0.040992,1.012112,-0.280000,-0.420000,-0.140000
74.615825,0.168360,-0.014640,1.094096,-0.980000,2.800000,0.000000
74.619891,0.202032,0.047824,0.835944,0.980000,-2.800000,-0.560000
74.623957,0.226432,0.096136,1.126304,-1.260000,2.520000,-0.840000
74.628023,0.269864,-0.101016,0.876448,-2.520000,-0.560000,-0.140000
74.632089,0.173240,0.084912,0.971120,0.280000,-1.260000,0.840000
74.636155,0.200080,0.053192,1.108736,0.420000,3.920000,-1.260000
74.640221,0.259616,-0.115168,0.824720,-2.660000,0.000000,-0.560000
74.644286,0.145912,0.098088,1.023824,1.260000,1.400000,-0.560000
74.648352,0.106384,0.054656,1.096536,-0.140000,1.400000,-0.980000
74.652418,0.274744,-0.010248,0.885232,-1.120000,-2.240000,-0.140000
74.656484,0.224968,0.090768,1.115568,0.700000,-0.140000,-0.420000
74.660550,0.144936,0.058560,0.989664,-1.400000,-0.420000,-0.840000
74.664616,0.252296,-0.015616,0.868640,-1.540000,0.000000,0.140000
74.668682,0.264984,-0.006832,1.156560,-0.420000,1.120000,0.280000
74.672748,0.149328,-0.068808,0.813984,-0.840000,-1.540000,-0.420000
74.676814,0.229360,0.074664,1.021872,0.140000,2.100000,-0.420000
74.680880,0.197152,-0.017568,1.008696,-1.260000,2.380000,-0.140000
74.684945,0.139568,0.022448,0.784216,0.700000,-3.360000,-0.700000
74.689011,0.215696,0.118096,1.175592,0.560000,3.080000,-0.700000
74.693077,0.225944,-0.039040,1.003816,-3.500000,1.540000,-0.140000
74.697143,0.197152,0.067344,0.908168,0.420000,-3.920000,-0.420000
74.701209,0.161528,0.094184,1.162904,0.280000,1.960000,-0.980000
74.705275,0.253272,-0.135176,0.879864,-2.800000,-1.960000,-0.840000
74.709341,0.244976,0.085400,0.949648,0.840000,-0.560000,0.280000
74.713407,0.167872,0.076616,1.169736,-0.840000,3.360000,-0.700000
74.717473,0.202520,-0.073688,0.804712,-2.100000,-1.120000,-0.280000
74.721538,0.179096,0.097112,1.058472,2.240000,-0.700000,-0.280000
74.725604,0.157624,-0.039528,0.965264,-1.120000,0.420000,-1.120000
74.729670,0.261568,0.024400,0.886696,-2.800000,-2.940000,-0.560000
74.733736,0.198128,0.131272,1.164368,-0.420000,1.400000,0.420000
74.737802,0.151280,-0.035136,0.953552,-0.280000,-1.400000,-0.700000
74.741868,0.215696,0.015128,0.874496,-0.140000,-2.100000,-0.700000
74.745934,0.265960,0.002928,1.165344,-1.820000,0.140000,0.000000
74.750000,0.171288,-0.022936,0.806176,-1.260000,-3.500000,-0.560000
74.754066,0.169336,0.158600,1.085800,1.820000,-0.420000,-0.700000
74.758132,0.228872,-0.074176,0.980880,-2.380000,1.540000,-0.560000
74.762197,0.224968,-0.010248,0.849608,-0.560000,-3.360000,0.140000
74.766263,0.183000,0.142984,1.148752,0.840000,2.240000,-1.120000
74.770329,0.244488,-0.075152,0.926224,-3.780000,-0.140000,-0.560000
74.774395,0.238632,0.053680,0.964776,0.700000,-1.120000,0.140000
74.778461,0.152744,0.039528,1.129720,0.980000,2.800000,-0.560000
74.782527,0.184952,-0.086864,0.809104,-1.820000,-0.980000,-0.140000
74.786593,0.234240,0.087352,1.002352,-0.560000,0.420000,0.000000
74.790659,0.150304,0.035624,1.058472,0.560000,0.700000,-0.980000
74.794725,0.190320,-0.021472,0.802760,-1.120000,-1.120000,-0.560000
74.798790,0.284016,0.091744,1.167784,0.000000,0.980000,-0.140000
74.802856,0.166408,-0.016104,0.927688,-1.820000,0.560000,-0.560000
74.806922,0.160552,0.081984,0.993080,0.140000,-1.400000,-0.560000
74.810988,0.293288,0.017568,1.156560,-0.840000,2.100000,0.000000
74.815054,0.161528,-0.072712,0.807640,-1.120000,-1.960000,-0.280000
74.819120,0.166408,0.112240,1.043832,0.420000,-1.820000,-0.840000
74.823186,0.236192,0.000488,1.107760,-2.800000,2.800000,-0.560000
74.827252,0.183000,-0.063440,0.770552,0.280000,-2.380000,0.560000
74.831318,0.155184,0.103456,1.063352,2.940000,-0.840000,-0.980000
74.835383,0.216672,-0.032208,1.040904,-3.500000,0.980000,-0.980000
74.839449,0.234240,0.044896,0.882304,-1.120000,-4.200000,0.280000
74.843515,0.189344,0.138104,1.118984,1.960000,0.980000,0.000000
74.847581,0.230336,-0.078568,0.893040,-2.520000,0.140000,-0.280000
74.851647,0.254736,-0.003416,0.955504,-1.680000,-1.960000,-0.420000
74.855713,0.204472,0.085888,1.158512,0.420000,0.980000,-0.980000
74.859779,0.099064,-0.061976,0.816424,-1.260000,-0.420000,0.000000
74.863845,0.258640,0.075152,1.041392,0.140000,-0.700000,0.000000
74.867911,0.185928,-0.000976,1.048224,-1.120000,0.000000,-0.420000
74.871977,0.174704,0.045872,0.883768,0.140000,-4.480000,-0.980000
74.876042,0.232776,0.112728,1.098488,-0.700000,0.980000,-0.560000
74.880108,0.239120,-0.133224,0.903776,-3.360000,0.280000,0.420000
74.884174,0.143960,0.058072,0.941840,0.840000,-3.360000,-0.840000
74.888240,0.222040,0.039040,1.194136,-0.140000,1.680000,-1.120000
74.892306,0.242048,-0.110288,0.788120,-2.380000,-0.560000,0.560000
74.896372,0.223504,0.180072,1.030168,1.680000,-0.420000,0.000000
74.900438,0.131760,0.007808,0.992592,-1.400000,1.260000,-1.260000
74.904504,0.221064,-0.002928,0.864248,-2.100000,-3.080000,0.140000
74.908570,0.182512,0.099552,1.147776,1.260000,0.840000,-0.560000
74.912635,0.192272,-0.039040,1.001376,-1.820000,-0.980000,-0.840000
74.916701,0.240096,0.006344,0.870104,-1.540000,-2.660000,-0.280000
74.920767,0.200080,0.097600,1.214144,0.140000,2.100000,-0.280000
74.924833,0.152256,-0.023912,0.852048,0.000000,-4.900000,-0.560000
74.928899,0.250344,0.048800,0.945744,-0.700000,-1.680000,-0.140000
74.932965,0.201056,-0.051240,1.035536,-2.100000,1.400000,-0.700000
74.937031,0.201056,-0.015616,0.829112,0.000000,-3.220000,0.420000
74.941097,0.204960,0.129808,1.111176,0.700000,2.240000,0.000000
74.945163,0.213256,-0.062952,1.015040,-1.960000,1.540000,-0.140000
74.949229,0.136640,0.059536,0.874008,0.420000,-5.460000,-0.980000
74.953294,0.240584,0.122976,1.116544,-0.700000,0.560000,-0.980000
74.957360,0.272792,-0.075152,0.958920,-3.920000,-0.140000,0.140000
74.961426,0.166408,0.069784,0.939888,1.260000,-2.940000,0.420000
74.965492,0.162504,0.058560,1.132648,-0.420000,0.140000,-0.700000
74.969558,0.270352,-0.137128,0.825208,-2.380000,-1.960000,-0.140000
74.973624,0.163968,0.102968,1.041392,1.820000,-0.560000,-0.140000
74.977690,0.223504,0.038064,0.996984,-0.420000,-0.140000,-0.980000
74.981756,0.221552,0.000976,0.889136,-2.800000,-1.260000,-0.420000
74.985822,0.144936,0.086864,1.094096,0.140000,0.840000,-0.420000
74.989887,0.207400,-0.057584,0.953064,-0.700000,-2.520000,-0.140000
74.993953,0.235704,0.042456,0.937936,-0.560000,-0.560000,0.140000
74.998019,0.231312,0.021960,1.188280,-0.840000,0.420000,-0.140000
75.002085,0.160552,0.007808,0.790560,-0.700000,-5.180000,-1.120000
75.006151,0.188856,0.102480,1.022848,0.420000,-0.980000,-0.560000
75.010217,0.234728,-0.057096,1.033584,-2.800000,1.260000,0.000000
75.014283,0.179096,0.051240,0.849120,-0.140000,-4.760000,0.420000
75.018349,0.189832,0.122000,1.180472,1.260000,0.840000,-0.560000
75.022415,0.277672,-0.097600,0.950136,-3.360000,0.980000,-0.700000
75.026481,0.173728,0.005368,0.832528,0.840000,-3.220000,0.420000
75.030546,0.180560,0.091744,1.175104,0.420000,2.520000,-1.540000
75.034612,0.210328,-0.098576,0.863272,-2.660000,-2.240000,-0.560000
75.038678,0.228384,0.068808,0.985760,-0.140000,-2.380000,0.140000
75.042744,0.174704,0.039528,1.076528,1.120000,0.280000,-0.980000
75.046810,0.210328,-0.041968,0.819352,-1.260000,-1.540000,-0.280000
75.050876,0.223016,0.112240,1.104832,-1.120000,0.420000,-0.280000
75.054942,0.182024,0.017080,0.979416,-0.840000,-0.980000,-0.700000
75.059008,0.166896,0.064416,0.852048,-0.420000,-2.660000,-0.280000
75.063074,0.294752,0.018544,1.183888,-1.680000,1.680000,0.000000
75.067139,0.176656,-0.051240,0.922808,-1.540000,-1.400000,-0.980000
75.071205,0.191296,0.076616,1.018456,1.540000,-1.540000,0.560000
75.075271,0.202520,0.006344,1.054568,-1.400000,2.660000,-0.560000
75.079337,0.216184,-0.064904,0.788608,-1.400000,-3.220000,0.140000
75.083403,0.182512,0.127368,1.036512,1.120000,-1.820000,-0.140000
75.087469,0.187880,-0.017080,1.069208,-2.240000,1.680000,-0.560000
75.091535,0.221064,-0.008784,0.849608,-0.420000,-2.520000,0.000000
75.095601,0.197640,0.120536,1.101904,1.400000,-0.560000,-0.420000
75.099667,0.199592,-0.036112,0.951600,-2.800000,-0.560000,-1.400000
75.103733,0.272792,0.000976,0.976488,-0.700000,-1.400000,-0.140000
75.107798,0.220088,0.107848,1.116056,0.560000,0.700000,-0.420000
75.111864,0.115168,-0.029280,0.843752,-2.240000,-2.520000,-0.840000
75.115930,0.232288,0.042944,1.039440,-0.700000,0.140000,-0.560000
75.119996,0.167872,-0.016592,1.072624,-0.700000,-0.420000,0.560000
75.124062,0.200568,0.005856,0.799344,1.260000,-4.760000,-0.420000
75.128128,0.235216,0.068808,1.108248,-0.980000,1.260000,-0.700000
75.132194,0.208864,-0.043920,0.968192,-3.360000,-1.960000,0.000000
75.136260,0.173728,0.098088,0.888648,0.840000,-4.620000,0.000000
75.140326,0.260592,0.056608,1.201944,0.140000,2.380000,-0.700000
75.144391,0.183976,-0.137616,0.803248,-2.800000,-2.800000,0.000000
75.148457,0.211304,0.144448,1.027240,1.260000,-2.940000,-0.280000
75.152523,0.180072,-0.004880,1.059936,-1.120000,2.380000,-0.560000
75.156589,0.240096,-0.060512,0.814472,-1.540000,-3.360000,0.000000
75.160655,0.200568,0.161528,1.084336,1.820000,-0.980000,-0.420000
75.164721,0.186416,0.001952,1.016992,-2.100000,-0.700000,-1.540000
75.168787,0.254736,-0.021472,0.892064,-1.680000,-2.380000,0.000000
75.172853,0.244976,0.110776,1.156072,0.840000,2.380000,0.700000
75.176919,0.134688,-0.061000,0.916464,-1.400000,-0.700000,-0.560000
75.180985,0.217160,0.016104,0.916952,-0.560000,-1.680000,-0.700000
75.185050,0.173240,0.018544,1.064328,-0.420000,1.120000,-0.280000
75.189116,0.216672,-0.046360,0.867664,0.140000,-3.780000,-0.700000
75.193182,0.222528,0.103944,1.000400,0.140000,0.280000,-0.560000
75.197248,0.207400,0.001464,1.076040,-2.380000,0.840000,0.700000
75.201314,0.127856,0.020008,0.869128,0.000000,-2.520000,-0.700000
75.205380,0.254736,0.112240,1.116544,0.980000,0.000000,-0.700000
75.209446,0.284992,-0.059048,0.892064,-3.780000,-0.700000,-0.140000
75.213512,0.175680,0.096136,1.008208,-0.420000,-1.540000,0.140000
75.217578,0.124928,0.044408,1.174616,1.120000,1.680000,-0.980000
75.221643,0.262056,-0.151768,0.753960,-1.960000,-2.940000,-0.840000
75.225709,0.244000,0.044896,1.021872,0.000000,-0.700000,0.000000
75.229775,0.120048,0.090768,1.081896,-0.560000,1.120000,0.000000
75.233841,0.231800,0.011712,0.819352,-0.140000,-2.380000,-0.420000
75.237907,0.255224,0.052704,1.107272,-0.700000,0.980000,-0.980000
75.241973,0.176168,-0.045872,0.935984,-0.980000,-1.820000,-1.540000
75.246039,0.178120,0.072224,0.897920,-0.140000,-1.120000,0.560000
75.250105,0.220576,0.075152,1.271728,-1.540000,3.360000,-0.280000
75.254171,0.191296,-0.045384,0.842288,-0.840000,-4.900000,-0.420000
75.258237,0.211304,0.083448,0.896456,0.560000,-3.640000,-0.140000
75.262302,0.265472,-0.006344,1.170712,-3.220000,4.480000,0.280000
75.266368,0.162016,-0.042944,0.872544,0.560000,-4.760000,0.140000
75.270434,0.162992,0.122976,0.991128,2.800000,-0.700000,-0.560000
75.274500,0.290360,-0.073200,1.020408,-4.200000,1.120000,-1.120000
75.278566,0.136152,0.020496,0.839848,-0.840000,-2.800000,0.420000
75.282632,0.188856,0.129808,1.129720,2.660000,-2.100000,0.000000
75.286698,0.243024,-0.049776,0.968192,-4.200000,2.520000,-0.560000
75.290764,0.262544,-0.019032,0.909144,0.280000,-4.200000,0.000000
75.294830,0.192272,0.101992,1.109224,1.540000,-0.980000,-0.420000
75.298895,0.188368,-0.075152,0.838872,-3.080000,1.960000,-0.840000
75.302961,0.233264,0.058072,1.038952,-0.560000,0.280000,0.280000
75.307027,0.195200,0.088816,1.036512,0.420000,-1.540000,0.420000
75.311093,0.159576,-0.018544,0.863760,-0.420000,-0.280000,-0.980000
75.315159,0.278648,0.059048,1.118984,-0.700000,0.840000,-0.700000
75.319225,0.182024,-0.036600,0.934520,-2.240000,-0.420000,0.000000
75.323291,0.165432,0.097112,0.963312,0.420000,-0.560000,-0.840000
75.327357,0.227896,0.005856,1.148264,-0.560000,0.840000,-0.420000
75.331423,0.183976,-0.082472,0.841312,-1.680000,-2.800000,0.700000
75.335488,0.224480,0.084912,0.963312,1.120000,-1.120000,-0.840000
75.339554,0.208864,0.005368,1.126792,-0.980000,3.080000,-0.420000
75.343620,0.167872,-0.034648,0.738344,-0.980000,-3.640000,0.140000
75.347686,0.222528,0.142496,1.138016,1.120000,-0.280000,-0.700000
75.351752,0.179584,-0.033672,0.981856,-1.820000,-0.560000,-1.120000
75.355818,0.246440,0.024400,0.897920,-1.260000,-3.360000,0.980000
75.359884,0.250344,0.115168,1.160464,0.280000,2.240000,-0.420000
75.363950,0.154208,-0.047824,0.957456,-2.240000,-1.960000,-0.560000
75.368016,0.256200,0.035624,0.853024,0.000000,-2.240000,-0.700000
75.372082,0.228384,-0.006832,1.168272,-0.420000,2.240000,-0.700000
75.376147,0.153720,-0.052704,0.810080,0.280000,-2.240000,-0.420000
75.380213,0.187880,0.135176,1.033584,-0.280000,0.280000,0.420000
75.384279,0.189832,-0.025376,1.055056,-1.960000,2.800000,0.000000
75.388345,0.190808,-0.014640,0.773968,1.260000,-5.880000,-0.280000
75.392411,0.249856,0.117120,1.103368,-0.280000,1.120000,-0.560000
75.396477,0.252296,-0.058560,1.071160,-4.760000,1.540000,-0.140000
75.400543,0.176656,0.102480,0.950136,2.100000,-3.500000,-0.420000
75.404609,0.169336,0.058560,1.093120,0.280000,1.820000,-0.420000
75.408675,0.285968,-0.128344,0.833016,-4.200000,-0.980000,-1.120000
75.412740,0.196176,0.080520,1.004792,1.680000,-3.080000,0.280000
75.416806,0.106384,0.101992,1.097024,0.280000,0.000000,-0.700000
75.420872,0.258152,-0.095648,0.810568,-2.100000,-0.980000,-0.840000
75.424938,0.261080,0.075152,1.115080,0.420000,0.280000,0.140000
75.429004,0.111264,0.032208,0.917928,-1.400000,-1.400000,-0.700000
75.433070,0.239120,0.056608,0.962824,-0.980000,-0.980000,-0.140000
75.437136,0.247904,0.002440,1.113616,0.700000,0.280000,0.000000
75.441202,0.158600,-0.062952,0.843752,-0.560000,-3.500000,-0.700000
75.445268,0.236192,0.076616,1.021384,-0.280000,1.820000,-0.980000
75.449334,0.284504,0.019032,1.133624,-1.540000,1.820000,0.420000
75.453399,0.118096,0.007320,0.775432,0.000000,-4.900000,0.140000
75.457465,0.153232,0.135664,1.092632,0.700000,0.420000,-0.560000
75.461531,0.248392,-0.107360,1.032608,-3.360000,-0.560000,-0.280000
75.465597,0.209352,0.044408,0.864736,0.420000,-4.060000,0.280000
75.469663,0.187880,0.118584,1.154608,0.700000,2.240000,-1.260000
75.473729,0.244000,-0.107848,0.912072,-2.800000,-1.820000,-0.280000
75.477795,0.192272,0.052704,0.873032,0.700000,-3.500000,0.280000
75.481861,0.226920,0.055632,1.194136,0.560000,2.520000,-1.540000
75.485927,0.209840,-0.102968,0.783240,-2.800000,-0.980000,-0.560000
75.489992,0.247904,0.136640,1.015040,0.280000,-0.420000,0.560000
75.494058,0.120048,0.015128,1.042368,0.140000,2.380000,-1.120000
75.498124,0.212768,-0.021960,0.845216,-0.280000,-1.540000,0.000000
75.502190,0.218624,0.084424,1.093120,-0.560000,-0.980000,0.280000
75.506256,0.205448,0.007320,1.048712,-1.960000,0.000000,-1.260000
75.510322,0.183976,0.060024,0.919880,0.280000,-4.620000,-0.280000
75.514388,0.283528,0.034160,1.111176,-1.540000,2.520000,0.000000
75.518454,0.217160,-0.074664,0.872056,-1.540000,-1.540000,-0.280000
75.522520,0.142496,0.108824,1.002352,0.700000,-1.820000,-0.700000
